timestamp,latitude,longitude,speed,accelerometerX,accelerometerY,accelerometerZ,gyroX,gyroY,gyroZ
1492618275.4,40.4795396654312,-79.9223965779691,1.16999995708466,-0.0308837890625,-0.852554321289062,0.499725341796875,-0.0300926550534594,-0.0891487848581845,0.048967809279396
1492618275.5,40.4795396654312,-79.9223965779691,1.16999995708466,0.0183563232421875,-0.918075561523438,0.301803588867188,-0.046514505283215,-0.0443690627090471,0.0284260488432878
1492618275.7,40.4795396654312,-79.9223965779691,1.16999995708466,0.180892944335938,-0.925155639648438,0.432632446289062,-0.040332775760923,0.0555665898283943,-0.0570656832059999
1492618275.9,40.4795205966015,-79.9224063009768,2.45000004768372,-0.19683837890625,-0.942047119140625,0.452545166015625,0.0158447432215354,-0.163903716656709,0.0752201860409611
1492618276.1,40.4795205966015,-79.9224063009768,2.45000004768372,-0.0437164306640625,-0.887176513671875,0.410736083984375,-0.0484181328304036,-0.120941335635441,0.0477960183997611
1492618276.3,40.4794925591354,-79.9224187061935,3.89000010490417,0.02783203125,-0.921783447265625,0.412750244140625,-0.0214637468054936,-0.0477299720047271,-0.0139573609569963
1492618276.5,40.4794925591354,-79.9224187061935,3.89000010490417,0.0741729736328125,-0.891937255859375,0.415435791015625,0.0181909881418952,-0.00756604065691512,-0.0104563693879781
1492618276.7,40.4794925591354,-79.9224187061935,3.89000010490417,0.0877227783203125,-0.943817138671875,0.430389404296875,-0.000521979573655531,-0.0382877343598512,0.0171528879489824
1492618276.9,40.4794925591354,-79.9224187061935,3.89000010490417,0.11669921875,-0.96221923828125,0.570755004882812,-0.0103636913820434,0.00857457976172812,-0.0161214456587947
1492618277.1,40.4794925591354,-79.9224187061935,3.89000010490417,-0.06170654296875,-0.919418334960938,0.47772216796875,0.0178154824281941,-0.0458564381778564,-0.00396411528258295
1492618277.3,40.4794984519318,-79.9224070513874,5.90999984741211,0.000152587890625,-0.92828369140625,0.500900268554688,-0.0140737410966327,-0.0828706489044317,0.0491156147198954
1492618277.5,40.4794984519318,-79.9224070513874,5.90999984741211,0.140548706054688,-0.896942138671875,0.512527465820312,-0.0134228645262174,0.0883663481299192,-0.0600734573411354
1492618277.7,40.4794984519318,-79.9224070513874,5.90999984741211,0.020050048828125,-0.904693603515625,0.5347900390625,-0.00792450213963978,-0.0276020668020173,0.0191819503835137
1492618277.9,40.4794984519318,-79.9224070513874,5.90999984741211,-0.02972412109375,-0.910018920898438,0.539886474609375,-0.0532264701785417,-0.104958906985549,0.0189177648033779
1492618278.1,40.4794984519318,-79.9224070513874,5.90999984741211,-0.0242462158203125,-0.959442138671875,0.525299072265625,-0.0636705890255054,-0.135731467065305,0.0647374513581912
1492618278.3,40.4794984519318,-79.9224070513874,5.90999984741211,-0.0989532470703125,-0.91845703125,0.538986206054688,-0.0425932668941823,-0.029509689090841,-0.0163531406736316
1492618278.5,40.4794984519318,-79.9224070513874,8.26000022888184,-0.100982666015625,-0.817459106445312,0.473953247070312,0.0680344447877093,-0.142979526288065,0.00852903970708777
1492618278.7,40.4794984519318,-79.9224070513874,8.26000022888184,-0.052581787109375,-1.02938842773438,0.487503051757812,0.0451581573400376,-0.000298806674306891,-0.0315233051910499
1492618278.9,40.4794984519318,-79.9224070513874,8.26000022888184,-0.10797119140625,-0.930633544921875,0.539260864257812,-0.061674549788491,0.0344421297457768,0.0120742397502013
1492618279.1,40.4794984519318,-79.9224070513874,8.26000022888184,0.063812255859375,-0.9246826171875,0.3271484375,-0.00343281464511214,0.0840413745196305,-0.0919464355833127
1492618279.3,40.479295280673,-79.9225328655606,11.3000001907349,0.0748748779296875,-0.8050537109375,0.426742553710938,0.00952879038030351,-0.0670690488925555,0.0450516308964344
1492618279.5,40.479295280673,-79.9225328655606,11.3000001907349,0.0994415283203125,-0.970184326171875,0.346328735351562,-0.083955887048639,-0.0675273789161582,0.0281024747708431
1492618279.7,40.479295280673,-79.9225328655606,11.3000001907349,0.250503540039062,-0.74951171875,0.42388916015625,0.103806290865763,-0.0240850962664586,-0.0500533137397123
1492618279.9,40.479295280673,-79.9225328655606,11.3000001907349,0.383010864257812,-0.916961669921875,0.07586669921875,-0.0787270365643774,-0.279221521334339,0.152383148097135
1492618280.1,40.479295280673,-79.9225328655606,11.3000001907349,-0.164154052734375,-0.942672729492188,0.33050537109375,-0.0519305759921091,-0.137935765499564,0.0616646960924577
1492618280.3,40.4791932148344,-79.9225959896057,13.1400003433228,0.0805206298828125,-0.934783935546875,0.298126220703125,-0.0232712342373304,0.147994524936793,-0.0859173051914823
1492618280.5,40.4791932148344,-79.9225959896057,13.1400003433228,-0.0429840087890625,-1.03761291503906,0.355438232421875,-0.049439721424558,-0.0358426861630494,0.0134470992921371
1492618280.7,40.4791932148344,-79.9225959896057,13.1400003433228,-0.019134521484375,-0.958328247070312,0.297576904296875,-0.102409462874016,0.0676759833049846,-0.0278785029231675
1492618280.9,40.4791932148344,-79.9225959896057,13.1400003433228,0.01177978515625,-0.833999633789062,0.270004272460938,-0.173335301657224,-0.119061143905845,0.0721013580883693
1492618281.1,40.4791932148344,-79.9225959896057,13.1400003433228,-0.125839233398438,-0.845672607421875,0.357269287109375,-0.0369540232859395,-0.308206567690434,0.196600410624048
1492618281.3,40.4790758124539,-79.9226685987497,13.960000038147,-0.0890960693359375,-0.989776611328125,0.279693603515625,-0.0386885401039081,-0.0688919826587148,-0.0119466743339865
1492618281.5,40.4790758124539,-79.9226685987497,13.960000038147,-0.071075439453125,-1.02044677734375,0.2396240234375,0.00186607697581852,-0.207427492035765,0.0613286051628897
1492618281.7,40.4790758124539,-79.9226685987497,13.960000038147,-0.0003509521484375,-1.06900024414062,0.328704833984375,0.00263093684088928,-0.0574563689379145,0.00977113803950072
1492618281.9,40.4790758124539,-79.9226685987497,13.960000038147,0.02362060546875,-0.998580932617188,0.21533203125,0.00531167479416304,-0.0191830156479498,-0.00949203875726042
1492618282.1,40.4790758124539,-79.9226685987497,13.960000038147,0.02874755859375,-0.99993896484375,0.294906616210938,-0.0227756199584667,0.0533311324093818,-0.0184964527189273
1492618282.3,40.4789531877353,-79.9227444377216,14.7299995422363,-0.001708984375,-0.979934692382812,0.196075439453125,-0.0273328212158102,0.0214498983678252,-0.0141959801906674
1492618282.5,40.4789531877353,-79.9227444377216,14.7299995422363,0.148666381835938,-0.925949096679688,0.1422119140625,-0.231488353536304,0.0610716101176971,-0.0153222310156619
1492618282.7,40.4789531877353,-79.9227444377216,14.7299995422363,0.213607788085938,-0.878036499023438,0.144729614257812,-0.139266280780168,0.0774852045480734,-0.0528040928296551
1492618282.9,40.4789531877353,-79.9227444377216,14.7299995422363,-0.016357421875,-0.907699584960938,0.203903198242188,0.148331681130797,-0.194544982894724,0.104377272603476
1492618283.1,40.4789531877353,-79.9227444377216,14.7299995422363,0.059326171875,-1.06419372558594,0.230743408203125,-0.0618862710951523,-0.0464037177818677,-0.0165070713846381
1492618283.3,40.4788337148569,-79.9228183273939,14.5299997329712,0.0492095947265625,-0.961944580078125,0.104354858398438,-0.00124582675793907,0.00320165226249326,0.0149059789372825
1492618283.5,40.4788337148569,-79.9228183273939,14.5299997329712,0.0108795166015625,-0.866378784179688,0.162994384765625,0.0444146027636875,-0.10452640962452,0.0433730404613575
1492618283.7,40.4788337148569,-79.9228183273939,14.5299997329712,-0.0342864990234375,-1.03446960449219,0.0978851318359375,-0.061941931161935,-0.085738873398447,0.121135480078908
1492618283.9,40.4788337148569,-79.9228183273939,14.5299997329712,0.0672149658203125,-0.926864624023438,0.200912475585938,-0.0213886456627534,0.0533183492361494,-0.0419389282143498
1492618284.1,40.4788337148569,-79.9228183273939,14.5299997329712,0.164443969726562,-1.01400756835938,0.160736083984375,-0.0670328299017305,-0.00913890359671591,-0.00919243313462651
1492618284.3,40.4787330694723,-79.9228805729394,13.8400001525879,0.09173583984375,-1.01042175292969,0.132919311523438,0.0181923197224403,0.00626348856775736,-0.00302854679163811
1492618284.5,40.4787330694723,-79.9228805729394,13.8400001525879,0.312850952148438,-0.906661987304688,0.12274169921875,-0.0855908016418386,0.0601224595051928,-0.0159584602000818
1492618284.7,40.4787330694723,-79.9228805729394,13.8400001525879,0.173660278320312,-0.863388061523438,0.180908203125,-0.0521697278579982,0.010989800554321,0.0826022022665517
1492618284.9,40.4787330694723,-79.9228805729394,13.8400001525879,0.183517456054688,-0.907440185546875,0.109970092773438,-0.0605725337294162,0.0354983394341022,0.00995036878086306
1492618285.1,40.4787330694723,-79.9228805729394,13.8400001525879,0.46807861328125,-1.01806640625,0.135025024414062,-0.0749533372997351,0.00474761727528426,0.0322729850379072
1492618285.3,40.4785978328814,-79.9229412340372,13.8000001907349,0.120559692382812,-0.890029907226562,0.193695068359375,0.0126345688435539,-0.130904487589537,0.0942940120842176
1492618285.5,40.4785978328814,-79.9229412340372,13.8000001907349,0.07061767578125,-0.994705200195312,0.20928955078125,-0.0877309178938263,0.0314135829541387,-0.0308332801526104
1492618285.7,40.4785978328814,-79.9229412340372,13.8000001907349,0.083099365234375,-0.911331176757812,0.120697021484375,-0.0479363669892083,0.0375329945069227,-0.0560307788063951
1492618285.9,40.4785978328814,-79.9229412340372,13.8000001907349,0.0348968505859375,-1.02748107910156,0.0912628173828125,-0.000962200101845629,0.0117069898358793,-0.00110627711681892
1492618286.1,40.4785978328814,-79.9229412340372,13.8000001907349,0.122146606445312,-1.08456420898438,0.018951416015625,-0.0923373876313364,0.0261285397708764,-0.0084763091175042
1492618286.3,40.4784867307548,-79.923009295091,13.1999998092651,0.0519256591796875,-0.935409545898438,0.11322021484375,-0.0597181916517188,0.0152828162315287,0.0142761413394788
1492618286.5,40.4784867307548,-79.923009295091,13.1999998092651,0.057464599609375,-0.954193115234375,0.082366943359375,-0.0193462674227716,-0.0434883553365579,-0.0107479855273418
1492618286.7,40.4784867307548,-79.923009295091,13.1999998092651,0.0897979736328125,-1.05812072753906,0.105072021484375,0.0108310761533523,0.036097018047152,0.00641502243378287
1492618286.9,40.4784867307548,-79.923009295091,13.1999998092651,0.146255493164062,-0.991119384765625,-0.0277252197265625,-0.22220377502796,-0.119808426907722,0.0630732419930006
1492618287.1,40.4784867307548,-79.923009295091,13.1999998092651,-0.03521728515625,-0.984390258789062,0.12274169921875,-0.0210248578578486,-0.0530445762760893,0.0287094091832722
1492618287.3,40.4783840943505,-79.9230718240886,12.0799999237061,0.074127197265625,-0.936050415039062,0.128082275390625,0.0218435135769389,-0.115015269577797,0.0527649443616309
1492618287.5,40.4783840943505,-79.9230718240886,12.0799999237061,0.022125244140625,-0.977813720703125,0.069580078125,-0.063654876375074,0.00360272432265919,-0.0155880144924518
1492618287.7,40.4783840943505,-79.9230718240886,12.0799999237061,0.0300750732421875,-0.985671997070312,0.040985107421875,-0.0602649386235121,0.035492746795813,-0.01243696229067
1492618287.9,40.4783840943505,-79.9230718240886,12.0799999237061,-0.0179595947265625,-1.02919006347656,0.093902587890625,-0.0184786095396238,-0.019024024930872,0.0169193287213824
1492618288.1,40.4783840943505,-79.9230718240886,12.0799999237061,-0.0173797607421875,-0.991989135742188,0.08984375,0.0256222728476523,-0.0586646451244835,0.0409298564773188
1492618288.3,40.4782976543111,-79.9231440495372,10.8500003814697,0.021820068359375,-1.00924682617188,0.0586395263671875,-0.0702057200244509,0.00151959971799921,-0.0049875680895004
1492618288.5,40.4782976543111,-79.9231440495372,10.8500003814697,-0.0068817138671875,-0.948745727539062,0.0341644287109375,-0.0122739768319572,-0.0669337603091795,0.00431192412094729
1492618288.7,40.4782976543111,-79.9231440495372,10.8500003814697,-0.01458740234375,-1.05374145507812,0.0687103271484375,0.0034517230888517,0.0648546304461547,-0.0609062278140032
1492618288.9,40.4782976543111,-79.9231440495372,10.8500003814697,0.0714569091796875,-0.926132202148438,0.020660400390625,0.0498972524998336,-0.00989710555906147,0.00586747651366258
1492618289.1,40.4782976543111,-79.9231440495372,10.8500003814697,0.072418212890625,-1.021240234375,0.0319671630859375,0.0117021961459172,-0.0904875559381673,0.029141107595974
1492618289.3,40.4782122422865,-79.9231957301986,9.30000019073486,0.0066375732421875,-0.991668701171875,0.102508544921875,-0.0143722814548306,0.0107253486580761,-0.0332274619725916
1492618289.5,40.4782122422865,-79.9231957301986,9.30000019073486,-0.0428466796875,-1.09687805175781,0.0540771484375,-0.0822381481455379,0.0558435585817625,-0.0297738746709769
1492618289.7,40.4782122422865,-79.9231957301986,9.30000019073486,0.0074920654296875,-1.02134704589844,0.03466796875,-0.0760393743922694,-0.0409889786535186,0.00892318754841949
1492618289.9,40.4782122422865,-79.9231957301986,9.30000019073486,0.0586090087890625,-0.930419921875,0.01812744140625,-0.0173739303194589,-0.0488184059422425,-0.00218432472608299
1492618290.1,40.4782122422865,-79.9231957301986,9.30000019073486,0.0849761962890625,-1.06639099121094,0.06292724609375,-0.012233496783388,0.0256046959844578,-0.0257804646164031
1492618290.3,40.4781497098674,-79.9232335669878,7.48000001907349,0.0205535888671875,-1.00926208496094,0.0177001953125,-0.0176469043311921,-0.028601018526906,0.0286809133596084
1492618290.5,40.4781497098674,-79.9232335669878,7.48000001907349,-0.099334716796875,-0.99603271484375,0.018402099609375,0.0226911977519111,-0.145868789754692,0.0517870316093538
1492618290.7,40.4781497098674,-79.9232335669878,7.48000001907349,-0.132125854492188,-1.02088928222656,-0.0045166015625,-0.0539969226819016,-0.114531639523839,-0.00772077031624872
1492618290.9,40.4781497098674,-79.9232335669878,7.48000001907349,-0.171890258789062,-1.00883483886719,-0.0535125732421875,-0.0214320551885217,-0.279604217582983,0.0900641133248447
1492618291.1,40.4781497098674,-79.9232335669878,7.48000001907349,-0.0839996337890625,-1.00930786132812,-0.0534210205078125,-0.0347494585355719,-0.347595252844924,0.0922356548776953
1492618291.3,40.478096425004,-79.9232658083144,5.46999979019165,-0.195404052734375,-1.02786254882812,0.0061798095703125,-0.00998445724281607,-0.253092715247353,0.0463981251435785
1492618291.5,40.478096425004,-79.9232658083144,5.46999979019165,-0.0956268310546875,-1.00790405273438,0.0094451904296875,-0.0201795705278574,-0.295571732530771,0.0677276486301321
1492618291.7,40.478096425004,-79.9232658083144,5.46999979019165,-0.113693237304688,-1.0260009765625,0.0068817138671875,0.00398968162904771,-0.314873791479448,0.0808194822328527
1492618291.9,40.478096425004,-79.9232658083144,5.46999979019165,-0.155731201171875,-1.01493835449219,0.0647430419921875,-0.00966541054422458,-0.321170036928613,0.0636365005635524
1492618292.1,40.478096425004,-79.9232658083144,5.46999979019165,-0.167572021484375,-0.971405029296875,0.08404541015625,-0.0238478086133326,-0.362562484487278,0.0657305441286817
1492618292.3,40.4780647047939,-79.9232850014133,3.74000000953674,-0.083465576171875,-1.05012512207031,0.0814666748046875,-0.0451277973036107,-0.362424266426703,0.0644461015349365
1492618292.5,40.4780647047939,-79.9232850014133,3.74000000953674,-0.10272216796875,-0.991912841796875,0.086883544921875,-0.028098746345317,-0.349769191242756,0.0720512906598758
1492618292.7,40.4780647047939,-79.9232850014133,3.74000000953674,-0.0794219970703125,-0.984054565429688,0.1104736328125,-0.0330647428299878,-0.35611150937878,0.119996446080681
1492618292.9,40.4780647047939,-79.9232850014133,3.74000000953674,-0.090087890625,-0.990142822265625,0.0912322998046875,-0.00849867967066087,-0.349889299807918,0.118099476436218
1492618293.1,40.4780647047939,-79.9232850014133,3.74000000953674,-0.0449371337890625,-1.0216064453125,0.150833129882812,0.0255820591151922,-0.370323468535987,0.106772786004002
1492618293.3,40.478047221392,-79.9232970577756,2.95000004768372,-0.128158569335938,-0.9512939453125,0.1712646484375,0.0266262845786122,-0.384147138806262,0.178255491771146
1492618293.5,40.478047221392,-79.9232970577756,2.95000004768372,-0.34967041015625,-0.979507446289062,0.079132080078125,0.100450175260045,-0.464429727763354,0.0320809711233125
1492618293.7,40.478047221392,-79.9232970577756,2.95000004768372,0.018157958984375,-0.9940185546875,0.244277954101562,0.116965236127953,-0.407085211591223,0.101405983775274
1492618293.9,40.478047221392,-79.9232970577756,2.95000004768372,-0.305084228515625,-0.934112548828125,0.274948120117188,0.00852877339097876,-0.178751106050009,0.0570579600388387
1492618294.1,40.478047221392,-79.9232970577756,2.95000004768372,-0.340103149414062,-0.879440307617188,0.446823120117188,0.0362466877004145,-0.0162058678653502,-0.0891490511742935
1492618294.3,40.4780303975117,-79.9234042137103,3.14000010490417,-0.120803833007812,-1.05763244628906,0.197677612304688,-0.12115918221261,-0.261926420583146,0.149771652332203
1492618294.5,40.4780303975117,-79.9234042137103,3.14000010490417,-0.0442962646484375,-1.15162658691406,0.389419555664062,-0.0337872584337263,-0.289090663701954,0.131544445199483
1492618294.7,40.4780303975117,-79.9234042137103,3.14000010490417,-0.186676025390625,-1.12649536132812,0.2215576171875,0.103033707833531,0.00249937668303936,-0.134360738052242
1492618294.9,40.4780303975117,-79.9234042137103,3.14000010490417,0.205184936523438,-1.07066345214844,0.328582763671875,0.00312974691306112,-0.130856018057697,0.0110318784995442
1492618295.1,40.4780303975117,-79.9234042137103,3.14000010490417,0.079925537109375,-0.820556640625,0.156112670898438,0.0110009858308993,-0.14155020773102,-0.0251112122344661
1492618295.3,40.4780438176544,-79.9234398831173,3.69000005722046,-0.332015991210938,-0.987136840820312,0.219635009765625,0.04493738128567,-0.384243811553832,0.318117255371055
1492618295.5,40.4780438176544,-79.9234398831173,3.69000005722046,-0.2935791015625,-1.03884887695312,0.2860107421875,-0.115093832829954,-0.258783091548526,0.0975811518177024
1492618295.7,40.4780438176544,-79.9234398831173,3.69000005722046,0.0507354736328125,-1.10842895507812,0.348052978515625,0.00208152670800593,0.017008011985682,0.012771987955802
1492618295.9,40.4780438176544,-79.9234398831173,3.69000005722046,0.096527099609375,-1.07637023925781,0.443817138671875,0.152731755883826,0.0415288014064776,-0.164872840977389
1492618296.1,40.4780438176544,-79.9234398831173,3.69000005722046,0.0413360595703125,-1.04193115234375,0.3720703125,-0.0300614960687054,0.0119003353310191,0.0241844321751186
1492618296.3,40.4780607704599,-79.9234849419907,4.76999998092651,-0.0041046142578125,-0.953948974609375,0.227996826171875,0.0784982710267396,-0.351527676510535,0.0635512794086699
1492618296.5,40.4780607704599,-79.9234849419907,4.76999998092651,-0.0775299072265625,-1.30821228027344,0.7415771484375,-0.243827844131077,0.19091935538669,-0.0541673649916667
1492618296.7,40.4780607704599,-79.9234849419907,4.76999998092651,-0.0824127197265625,-1.26036071777344,0.439727783203125,0.250886019968114,0.0600865068304768,0.142087633638998
1492618296.9,40.4780607704599,-79.9234849419907,4.76999998092651,0.0213165283203125,-0.796127319335938,0.0662841796875,-0.0925645552723201,0.321797743997545,-0.296053232055858
1492618297.1,40.4780607704599,-79.9234849419907,4.76999998092651,0.654891967773438,-0.835952758789062,-0.0858154296875,0.126181371396281,0.197017195334645,-0.0855798826813693
1492618297.3,40.4780824807983,-79.9235426459146,5.84999990463257,0.598846435546875,-0.544174194335938,0.081787109375,-0.299224524281924,0.341277435790929,0.0291083507145661
1492618297.5,40.4780824807983,-79.9235426459146,5.84999990463257,-0.420639038085938,-1.06455993652344,0.440155029296875,0.295554688299795,0.275675788659007,-0.2013323152489
1492618297.7,40.4780824807983,-79.9235426459146,5.84999990463257,0.0989837646484375,-1.18531799316406,0.289413452148438,0.264719543934421,-0.0346826131922109,0.0912955590128974
1492618297.9,40.4780824807983,-79.9235426459146,5.84999990463257,-0.270843505859375,-1.10470581054688,0.0631256103515625,0.121830565123419,0.36506665486028,-0.375002109939039
1492618298.1,40.4780824807983,-79.9235426459146,5.84999990463257,-0.21429443359375,-0.762603759765625,0.039459228515625,-0.0158458084859715,0.106482767761292,0.0486088151644533
1492618298.3,40.4781072168231,-79.9236083918124,6.46000003814697,-0.204818725585938,-1.19963073730469,0.498519897460938,0.226440065373949,-0.231214580576243,0.135125597917312
1492618298.5,40.4781072168231,-79.9236083918124,6.46000003814697,-0.262298583984375,-0.978652954101562,0.414718627929688,-0.644562748103006,-0.171320087660361,0.00450500329997804
1492618298.7,40.4781072168231,-79.9236083918124,6.46000003814697,0.487686157226562,-1.73782348632812,0.068511962890625,0.0398808373239366,0.375235669166639,0.0143669551326505
1492618298.9,40.4781072168231,-79.9236083918124,6.46000003814697,0.068389892578125,-0.546783447265625,0.05230712890625,-0.0949408939129978,0.670696614196063,-0.398268284170298
1492618299.1,40.4781072168231,-79.9236083918124,6.46000003814697,-0.493896484375,-0.731094360351562,0.290863037109375,0.2308880770266,0.0346450626208408,-0.121406323561769
1492618299.3,40.4781329854992,-79.9236768823946,6.82000017166138,-0.344741821289062,-1.14364624023438,-0.148788452148438,0.0499955231440575,0.226242458821066,-0.027793548084394
1492618299.5,40.4781329854992,-79.9236768823946,6.82000017166138,-0.443527221679688,-0.641281127929688,0.260055541992188,0.532264701785417,0.126262597809529,-0.304078401684702
1492618299.7,40.4781329854992,-79.9236768823946,6.82000017166138,-0.225799560546875,-0.965835571289062,0.119766235351562,0.273560173489048,-0.123052689747656,-0.0576558397035615
1492618299.9,40.4781329854992,-79.9236768823946,6.82000017166138,0.123199462890625,-0.285400390625,0.0425567626953125,-0.751477746909218,-0.509888555990462,0.393452223654999
1492618300.1,40.4781329854992,-79.9236768823946,6.82000017166138,0.111190795898438,-1.02146911621094,0.0826568603515625,0.085636341696479,0.0845178140386457,-0.141147804090309
1492618300.3,40.478161951496,-79.923753871138,7.26999998092651,0.336227416992188,-1.43588256835938,0.295364379882812,0.192733500721252,0.0348911387055641,-0.13459216675097
1492618300.5,40.478161951496,-79.923753871138,7.26999998092651,-0.4639892578125,-0.808212280273438,0.587066650390625,-0.286322840381035,-0.0928058376670813,0.0164998808496949
1492618300.7,40.478161951496,-79.923753871138,7.26999998092651,-0.01611328125,-0.900344848632812,0.14886474609375,-0.111690845589051,0.0018013621613296,0.0692219483177756
1492618300.9,40.478161951496,-79.923753871138,7.26999998092651,0.0589141845703125,-1.56028747558594,0.240814208984375,0.146470930477159,-0.130732181067009,-0.0354804962547987
1492618301.1,40.478161951496,-79.923753871138,7.26999998092651,-0.260360717773438,-0.6925048828125,0.6302490234375,-0.0522368395174682,0.00462058449128748,0.161517790636107
1492618301.3,40.4781918499109,-79.923833338156,7.71000003814697,-0.406402587890625,-0.896728515625,0.489273071289062,-0.127310818014584,-0.331061816165494,-0.0601570805993639
1492618301.5,40.4781918499109,-79.923833338156,7.71000003814697,0.244888305664062,-1.52999877929688,0.578872680664062,0.277008700784592,-0.0794618027091303,-0.0524019555050531
1492618301.7,40.4781918499109,-79.923833338156,7.71000003814697,0.240264892578125,-1.05023193359375,0.554702758789062,-0.626158707073904,-0.562863890078209,0.15710626429039
1492618301.9,40.4781918499109,-79.923833338156,7.71000003814697,-0.09033203125,-0.853546142578125,0.237594604492188,0.0278452134095415,-0.117164973209709,0.157320915074251
1492618302.1,40.4781918499109,-79.923833338156,7.71000003814697,0.465530395507812,-0.316268920898438,0.3265380859375,-0.139732600287041,0.242359643422116,-0.0841545588659589
1492618302.3,40.4782233042914,-79.9239169407761,8.10999965667725,-0.512405395507812,-0.918914794921875,0.08551025390625,0.496783406582291,0.543486729986793,-0.207426693087438
1492618302.5,40.4782233042914,-79.9239169407761,8.10999965667725,0.34613037109375,-0.976470947265625,0.704208374023438,0.172343007835061,0.0169283834690887,-0.210455772511294
1492618302.7,40.4782233042914,-79.9239169407761,8.10999965667725,-0.389419555664062,-0.716018676757812,-0.037384033203125,0.147785733107331,-0.585955627258068,0.318624587558715
1492618302.9,40.4782233042914,-79.9239169407761,8.10999965667725,-0.0619964599609375,-0.803512573242188,0.0692138671875,-0.423129159262297,-0.12807967262129,0.0333158789207823
1492618303.1,40.4782233042914,-79.9239169407761,8.10999965667725,-0.3717041015625,-0.866561889648438,0.15179443359375,0.362335849478513,-0.477809449079912,0.186199168670634
1492618303.3,40.4782566657431,-79.924005612202,8.6899995803833,-0.864151000976562,-0.903213500976562,0.969161987304688,0.56096026253102,-0.97368098930496,0.496582071603881
1492618303.5,40.4782566657431,-79.924005612202,8.6899995803833,-0.107284545898438,-0.771682739257812,0.606842041015625,-0.412523919169383,0.0548150457687739,0.0585416070821218
1492618303.7,40.4782566657431,-79.924005612202,8.6899995803833,-0.795013427734375,-0.67449951171875,0.326614379882812,-0.0593698501811365,0.506645624731072,-0.441195511465176
1492618303.9,40.4782566657431,-79.924005612202,8.6899995803833,0.218917846679688,-1.08638000488281,-0.102996826171875,-0.131774276001557,0.258246730904984,-0.189669267571007
1492618304.1,40.4782566657431,-79.924005612202,8.6899995803833,0.29925537109375,-0.437667846679688,-0.190597534179688,-0.204222910296072,-0.460318872304708,0.0417455827192101
1492618304.3,40.4782915608569,-79.9240983599495,8.9399995803833,0.0217437744140625,-0.7811279296875,-0.0189056396484375,-0.00953544828302871,0.0798349115778504,-0.0376211451390044
1492618304.5,40.4782915608569,-79.9240983599495,8.9399995803833,-1.2474365234375,-1.069091796875,0.010650634765625,-0.417157819466121,-0.40886047477387,0.530957356006297
1492618304.7,40.4782915608569,-79.9240983599495,8.9399995803833,-0.22894287109375,-0.785919189453125,0.162948608398438,0.102239553196469,0.12054718779411,-0.322327180422252
1492618304.9,40.4782915608569,-79.9240983599495,8.9399995803833,0.202423095703125,-1.28512573242188,0.253921508789062,-0.232246555498649,-0.697337812476779,0.0921823916558937
1492618305.1,40.4782915608569,-79.9240983599495,8.9399995803833,0.666091918945312,-0.9066162109375,-0.055511474609375,-0.0166538115607015,-0.478511990975475,0.331590719957984
1492618305.3,40.4783254473998,-79.9241884270158,8.89999961853027,-0.159393310546875,-0.689346313476562,0.554855346679688,-0.0534102282937571,-0.677161970374448,0.495924004498522
1492618305.5,40.4783254473998,-79.9241884270158,8.89999961853027,0.1661376953125,-1.27908325195312,0.302139282226562,-0.0565668731338281,0.154597300227427,-0.0617523140923213
1492618305.7,40.4783254473998,-79.9241884270158,8.89999961853027,-0.468307495117188,-0.990097045898438,0.0559844970703125,-0.119406555899229,-0.419377564234702,0.091554151954744
1492618305.9,40.4783254473998,-79.9241884270158,8.89999961853027,-0.073760986328125,-1.19793701171875,0.193695068359375,-0.170346435965828,-0.295571466214662,0.611025560495638
1492618306.1,40.4783254473998,-79.9241884270158,8.89999961853027,-0.6871337890625,-0.744674682617188,0.307296752929688,-0.637962103341245,0.533867125813317,-0.0921403137106705
1492618306.3,40.4783577661606,-79.9242743270728,8.40999984741211,-0.430877685546875,-1.02774047851562,0.125885009765625,0.439495615741379,-0.116645923113253,0.192454401439012
1492618306.5,40.4783577661606,-79.9242743270728,8.40999984741211,-0.014190673828125,-1.13810729980469,-0.188140869140625,0.0258555657591433,-0.0236004009480642,-0.189460475741545
1492618306.7,40.4783577661606,-79.9242743270728,8.40999984741211,-0.000762939453125,-1.35078430175781,0.355789184570312,-0.303014468829216,0.425300434499038,-0.19185359229709
1492618306.9,40.4783577661606,-79.9242743270728,8.40999984741211,-0.115890502929688,-1.26506042480469,0.253143310546875,-0.0902622525099466,0.524943938264898,-0.353063255195075
1492618307.1,40.4783577661606,-79.9242743270728,8.40999984741211,0.108047485351562,-0.974685668945312,0.411590576171875,-0.309885957073838,-0.0149802811316957,0.146135904812027
1492618307.3,40.4783895555713,-79.92435882017,8.31999969482422,0.35540771484375,-0.790496826171875,0.395233154296875,-0.376580831833238,0.336419829962625,-0.233959767027897
1492618307.5,40.4783895555713,-79.92435882017,8.31999969482422,-0.131149291992188,-1.15716552734375,0.593826293945312,-0.311601565448067,0.443441887844658,-0.177061330338354
1492618307.7,40.4783895555713,-79.92435882017,8.31999969482422,0.2860107421875,-0.493545532226562,-0.139572143554688,-0.0212176707207703,0.727697316271465,-0.152431351312865
1492618307.9,40.4783895555713,-79.92435882017,8.31999969482422,0.727691650390625,-1.10537719726562,0.26800537109375,-0.0522181973898377,0.290723447766282,-0.071655012289672
1492618308.1,40.4783895555713,-79.92435882017,8.31999969482422,-0.469558715820312,-1.0196533203125,0.552215576171875,-0.00237580600845969,0.0393793640906747,0.039323970340001
1492618308.3,40.4784212537507,-79.9244430707834,7.82999992370605,0.174819946289062,-0.625640869140625,-0.226821899414062,-0.226874426947741,0.179133003350327,0.100637661800786
1492618308.5,40.4784212537507,-79.9244430707834,7.82999992370605,0.20208740234375,-0.862457275390625,0.144485473632812,0.367902388788996,0.544337876271182,-0.127716151132494
1492618308.7,40.4784212537507,-79.9244430707834,7.82999992370605,0.106948852539062,-1.19552612304688,0.125411987304688,0.309180752017185,-0.310483570422452,0.0380856004331142
1492618308.9,40.4784212537507,-79.9244430707834,7.82999992370605,-0.151748657226562,-0.428665161132812,-0.039215087890625,0.347809104680458,0.0924215435217829,0.0811561057946387
1492618309.1,40.4784212537507,-79.9244430707834,7.82999992370605,0.106475830078125,-0.99212646484375,0.456207275390625,-0.172455393233062,-0.410462099853444,0.469493994892249
1492618309.3,40.4784509284472,-79.9245219431801,7.76999998092651,-0.07843017578125,-0.899581909179688,0.170806884765625,0.265439662693179,-0.651607075502375,0.323197235150381
1492618309.5,40.4784509284472,-79.9245219431801,7.76999998092651,-0.099334716796875,-1.19013977050781,0.0583343505859375,-0.321945283121935,0.0871908288247582,-0.00565362467812921
1492618309.7,40.4784509284472,-79.9245219431801,7.76999998092651,-0.17926025390625,-0.563232421875,-0.394180297851562,0.0382174269070731,-0.539512761008176,0.257674950218944
1492618309.9,40.4784509284472,-79.9245219431801,7.76999998092651,0.021484375,-1.30058288574219,0.124893188476562,-0.184430297074603,0.48411048821904,-0.109758988534308
1492618310.1,40.4784509284472,-79.9245219431801,7.76999998092651,0.0390777587890625,-0.953582763671875,0.068359375,-0.0892856713382146,0.0324932284600568,0.00539929279402665
1492618310.3,40.4784695240691,-79.9245713684965,8.0600004196167,-0.324554443359375,-1.27943420410156,0.147674560546875,0.313427162375317,-0.26475469766081,0.141433827591383
1492618310.5,40.4784695240691,-79.9245713684965,8.0600004196167,0.0021514892578125,-0.928359985351562,0.0354766845703125,-0.0290572180216366,-0.171068685253458,0.00654125626945262
1492618310.7,40.4784695240691,-79.9245713684965,8.0600004196167,-0.123306274414062,-1.02523803710938,0.350540161132812,-0.133836894265823,0.21573176094685,-0.0627011983887166
1492618310.9,40.4784695240691,-79.9245713684965,8.0600004196167,0.501815795898438,-1.13177490234375,0.150955200195312,-0.104531469630591,0.155936337623519,-0.290416651608705
1492618311.1,40.4784695240691,-79.9245713684965,8.0600004196167,-0.11199951171875,-1.11427307128906,0.473068237304688,0.217730463344954,-0.139667885472552,0.198773017441334
1492618311.3,40.4785171433816,-79.9246893896055,8.17000007629395,-0.133712768554688,-1.05122375488281,0.287109375,0.0660234918485904,0.0112848788031018,0.0838115437175567
1492618311.5,40.4785171433816,-79.9246893896055,8.17000007629395,0.249954223632812,-0.731781005859375,-0.262252807617188,0.128871164097261,0.375688672868061,-0.184105125105505
1492618311.7,40.4785171433816,-79.9246893896055,8.17000007629395,0.10675048828125,-1.24079895019531,0.152236938476562,0.243262188715544,0.0888361297462092,0.015055914906654
1492618311.9,40.4785171433816,-79.9246893896055,8.17000007629395,-0.21417236328125,-1.22383117675781,0.100845336914062,0.375458575749878,-0.220481242434897,0.146219528070256
1492618312.1,40.4785171433816,-79.9246893896055,8.17000007629395,0.255264282226562,-0.854537963867188,0.167205810546875,-0.237070605497219,0.369529313898926,-0.37122468224887
1492618312.3,40.4785521995671,-79.9247762725093,8.52999973297119,0.303604125976562,-1.04837036132812,0.00030517578125,0.0829750448191628,-0.206868494522957,0.203964051038117
1492618312.5,40.4785521995671,-79.9247762725093,8.52999973297119,0.0070037841796875,-1.25250244140625,-0.167068481445312,-0.0860022600302559,-0.455756611041293,0.120777817544511
1492618312.7,40.4785521995671,-79.9247762725093,8.52999973297119,-0.164413452148438,-1.148681640625,0.541427612304688,-0.0342594368949973,-0.348667974132008,0.055992162970589
1492618312.9,40.4785521995671,-79.9247762725093,8.52999973297119,-0.0374603271484375,-0.77410888671875,-0.09808349609375,-0.284858368097601,0.231605266308158,-0.0685532285680567
1492618313.1,40.4785521995671,-79.9247762725093,8.52999973297119,0.459457397460938,-0.685150146484375,0.0965118408203125,-0.00652474467069413,0.349988369400469,-0.109723834807919
1492618313.3,40.4785810598031,-79.9248477994332,7.67999982833862,0.043853759765625,-0.530288696289062,-0.168365478515625,-0.465745063025745,0.202981078279768,-0.172687887196226
1492618313.5,40.4785810598031,-79.9248477994332,7.67999982833862,0.315750122070312,-1.21598815917969,0.138580322265625,0.0202240453180617,0.113646671093605,-0.247447879000821
1492618313.7,40.4785810598031,-79.9248477994332,7.67999982833862,-0.393829345703125,-0.501846313476562,0.057342529296875,-0.0158604558719669,-0.0105362642206805,-0.0139959767928024
1492618313.9,40.4785810598031,-79.9248477994332,7.67999982833862,-0.474334716796875,-1.12416076660156,0.257522583007812,-0.412688768840859,-0.309982363505299,0.414530611050758
1492618314.1,40.4785810598031,-79.9248477994332,7.67999982833862,-0.1201171875,-0.717010498046875,0.644973754882812,0.183228945106869,-0.264968283180235,0.16142564526239
1492618314.3,40.4786025955981,-79.9249011735349,6.46999979019165,0.200210571289062,-1.03060913085938,0.0762481689453125,0.0532885218319405,-0.0460910626698924,-0.0281232474273458
1492618314.5,40.4786025955981,-79.9249011735349,6.46999979019165,0.03253173828125,-0.731597900390625,0.41033935546875,-0.247352804149906,0.161171846010505,0.0311704363466144
1492618314.7,40.4786025955981,-79.9249011735349,6.46999979019165,0.194015502929688,-1.16470336914062,0.609527587890625,-0.266107050862353,-0.402456637616665,0.159312426937412
1492618314.9,40.4786025955981,-79.9249011735349,6.46999979019165,0.17877197265625,-1.14285278320312,0.387039184570312,0.279131506489494,0.376837560562321,-0.19109938507638
1492618315.1,40.4786025955981,-79.9249011735349,6.46999979019165,0.458114624023438,-0.787094116210938,0.418487548828125,-0.27541746203327,0.14113395565264,-0.0298393884337928
1492618315.3,40.4786287750716,-79.9249660564834,5.98999977111816,0.1668701171875,-1.09445190429688,-0.13775634765625,0.353179369018602,-0.393713746074044,0.200815395681316
1492618315.5,40.4786287750716,-79.9249660564834,5.98999977111816,0.590621948242188,-0.779953002929688,-0.163284301757812,-0.104218814518616,0.395263439512361,-0.337944489686695
1492618315.7,40.4786287750716,-79.9249660564834,5.98999977111816,0.123428344726562,-0.830291748046875,0.0917816162109375,0.167019615132101,-0.201031378045721,0.213339177023523
1492618315.9,40.4786287750716,-79.9249660564834,5.98999977111816,-0.365737915039062,-1.20205688476562,0.460968017578125,-0.0794298447760493,-0.0430798264253398,0.0995220636201521
1492618316.1,40.4786287750716,-79.9249660564834,5.98999977111816,-0.504440307617188,-1.19837951660156,-0.42138671875,0.493288273967671,-0.51904849855979,0.398756707914218
1492618316.3,40.4786524570699,-79.9250247497142,5.30000019073486,-0.325149536132812,-1.40632629394531,0.6221923828125,0.468839389896308,-0.513570908829714,0.398492256017974
1492618316.5,40.4786524570699,-79.9250247497142,5.30000019073486,-0.466476440429688,-0.606964111328125,-0.0549163818359375,-0.0738494570278973,-0.348395799068602,0.147280531448543
1492618316.7,40.4786524570699,-79.9250247497142,5.30000019073486,0.0102081298828125,-0.735855102539062,0.0174102783203125,0.0441919624965569,-0.298098806089147,0.186742986165228
1492618316.9,40.4786524570699,-79.9250247497142,5.30000019073486,0.0024871826171875,-1.17010498046875,0.374618530273438,-0.11289113229235,-0.141778973268657,0.155943528158462
1492618317.1,40.4786524570699,-79.9250247497142,5.30000019073486,-0.139572143554688,-1.15577697753906,0.455337524414062,-0.17510816799489,0.294681970410576,-0.271239228599044
1492618317.3,40.4786754669285,-79.9250817771205,5.15999984741211,-0.334518432617188,-0.965850830078125,0.0917510986328125,0.369992970244709,-0.0332255977598286,0.180865389639423
1492618317.5,40.4786754669285,-79.9250817771205,5.15999984741211,-0.014892578125,-1.181884765625,-0.275253295898438,0.243629704945975,-0.235570979487395,0.199285675951174
1492618317.7,40.4786754669285,-79.9250817771205,5.15999984741211,-0.0475921630859375,-0.870208740234375,-0.1773681640625,-0.135072867327729,-0.0990967567940665,0.0884347913699342
1492618317.9,40.4786754669285,-79.9250817771205,5.15999984741211,-0.0324859619140625,-1.14288330078125,0.180755615234375,-0.117274429130511,0.00500727548156698,-0.0651864603179785
1492618318.1,40.4786754669285,-79.9250817771205,5.15999984741211,-0.241912841796875,-1.0970458984375,-0.071929931640625,0.0672991460107384,-0.324840671859069,0.195578289397675
1492618318.3,40.4786938557008,-79.925127351672,3.75,-0.276947021484375,-0.8438720703125,0.019317626953125,-0.0601405690006054,-0.193179313887732,0.164079751604763
1492618318.5,40.4786938557008,-79.925127351672,3.75,-0.229827880859375,-0.971633911132812,0.0453033447265625,-0.0280079325521453,-0.0625789592946819,-0.010787400311475
1492618318.7,40.4786938557008,-79.925127351672,3.75,0.00482177734375,-1.02439880371094,0.0027618408203125,-0.079252211931341,-0.0707545975251162,-0.00595988820348833
1492618318.9,40.4786938557008,-79.925127351672,3.75,0.0672454833984375,-1.06230163574219,0.05780029296875,0.0811395941958802,-0.137737093682244,0.0651590297587507
1492618319.1,40.4786938557008,-79.925127351672,3.75,-0.0639190673828125,-1.04432678222656,-0.0172271728515625,0.00605016936444201,-0.0489707387565951,-0.00194410759575784
1492618319.3,40.478704615806,-79.9251540194105,1.74000000953674,0.0669708251953125,-1.00764465332031,-0.018768310546875,-0.0407402394077052,0.0130215261499424,-0.0505627764562444
1492618319.5,40.478704615806,-79.9251540194105,1.74000000953674,0.04296875,-0.994369506835938,0.0377044677734375,-0.00542619072103645,3.64853069340856e-05,0.00740784888816441
1492618319.7,40.478704615806,-79.9251540194105,1.74000000953674,-0.00262451171875,-0.979827880859375,0.15032958984375,-0.00729732770292612,0.0149390021347995,-0.00331190713162254
1492618319.9,40.478704615806,-79.9251540194105,1.74000000953674,0.022796630859375,-0.95330810546875,0.215560913085938,-0.0107698234482804,-0.0201409546920513,-0.00219071631269918
1492618320.1,40.478704615806,-79.9251540194105,1.74000000953674,0.0114898681640625,-0.983245849609375,0.201416015625,-0.00967446529193085,-0.00631888231843101,0.00311589847539271
1492618320.3,40.4787045742159,-79.9251539163341,0.0,0.0070648193359375,-0.96673583984375,0.185867309570312,-0.0149621716362832,-0.00734872671196465,-0.000134223318939994
1492618320.5,40.4787045742159,-79.9251539163341,0.0,0.05072021484375,-0.920242309570312,0.223480224609375,-0.067051472029361,-0.00381950563539164,-0.00494149540264203
1492618320.7,40.4787045742159,-79.9251539163341,0.0,0.0590057373046875,-0.980484008789062,0.118896484375,-0.0353699750695604,0.0523470943865975,-0.0324836410801325
1492618320.9,40.4787045742159,-79.9251539163341,0.0,0.0060272216796875,-0.997573852539062,0.0939178466796875,-0.024704547536011,-0.0168578097002016,0.00618785479279911
1492618321.1,40.4787045742159,-79.9251539163341,0.0,0.015106201171875,-0.995437622070312,0.063201904296875,-0.00956128094560248,0.0107000486277204,0.00413935128231016
1492618321.3,40.4787057002997,-79.9251567072091,0.200000002980232,0.012176513671875,-0.993606567382812,0.1224365234375,-0.0227268841105182,-0.00197553289662078,0.0253615493769336
1492618321.5,40.4787057002997,-79.9251567072091,0.200000002980232,-0.048126220703125,-0.993865966796875,0.119033813476562,0.0056933057783714,-0.0223689552600116,0.0384997219826215
1492618321.7,40.4787057002997,-79.9251567072091,0.200000002980232,0.0012054443359375,-0.968841552734375,0.0844879150390625,-0.00441339055847931,-0.0244371661625671,-0.00211454990552292
1492618321.9,40.4787057002997,-79.9251567072091,0.200000002980232,0.0576934814453125,-1.02253723144531,0.14276123046875,-0.0252939050852456,-0.00622141062253411,-0.0226334071562564
1492618322.1,40.4787057002997,-79.9251567072091,0.200000002980232,0.140655517578125,-0.986373901367188,0.139892578125,-0.0307941316845862,0.0789089304668298,-0.0410350513403769
1492618322.3,40.4787030958651,-79.925150252404,1.45000004768372,-0.086090087890625,-0.9664306640625,0.0871734619140625,-0.0266800804326318,-0.056195362161762,0.0510501349357289
1492618322.5,40.4787030958651,-79.925150252404,1.45000004768372,-0.154525756835938,-1.07176208496094,0.103912353515625,0.0413895180814665,-0.0800410402462225,0.0443450942592364
1492618322.7,40.4787030958651,-79.925150252404,1.45000004768372,-0.0390625,-0.94354248046875,0.196502685546875,-0.117545006297263,-0.136437471070285,0.11003489202324
1492618322.9,40.4787030958651,-79.925150252404,1.45000004768372,0.06036376953125,-1.08805847167969,0.027496337890625,-0.0144250120444142,0.0830530754391021,-0.0675335041866654
1492618323.1,40.4787030958651,-79.925150252404,1.45000004768372,0.2568359375,-0.878692626953125,0.158294677734375,-0.0679609415416231,-0.0761421724103465,0.0218911841604513
1492618323.3,40.4786969516982,-79.9251350247616,1.00999999046326,0.00341796875,-0.847244262695312,0.289016723632812,-0.145858137110332,-0.0107410613085076,0.0689044995158381
1492618323.5,40.4786969516982,-79.9251350247616,1.00999999046326,0.030242919921875,-1.17857360839844,0.318038940429688,0.205068730258282,-0.161939369036666,0.100609165977122
1492618323.7,40.4786969516982,-79.9251350247616,1.00999999046326,-0.2117919921875,-0.926651000976562,0.2255859375,0.0515135249654027,-0.167333335508513,0.0350780926140877
1492618323.9,40.4786969516982,-79.9251350247616,1.00999999046326,-0.0834503173828125,-0.923370361328125,0.215499877929688,-0.0758433657360396,-0.15798697166288,0.0859945368630946
1492618324.1,40.4786969516982,-79.9251350247616,1.00999999046326,0.031585693359375,-0.911102294921875,0.144149780273438,-0.114165188557844,0.210266421757789,-0.179769232534747
1492618324.3,40.4786870835726,-79.9251105676965,1.01999998092651,0.231765747070312,-1.02572631835938,0.105239868164062,-0.0146756155029907,-0.0732853995090185,0.0981305619505857
1492618324.5,40.4786870835726,-79.9251105676965,1.01999998092651,0.0531768798828125,-1.04618835449219,0.148086547851562,0.129390214193718,-0.106128034704094,0.135941590475313
1492618324.7,40.4786870835726,-79.9251105676965,1.01999998092651,0.1376953125,-0.844818115234375,0.249069213867188,-0.113746805950592,0.144327352115754,-0.0910990177244495
1492618324.9,40.4786870835726,-79.9251105676965,1.01999998092651,0.07427978515625,-0.895614624023438,0.307479858398438,-0.0543002567300616,0.104581803375194,-0.0989175260527041
1492618325.1,40.4786870835726,-79.9251105676965,1.01999998092651,-0.0834197998046875,-0.97430419921875,0.171066284179688,0.0234075880851425,-0.124605578979281,0.0112233597819209
1492618325.3,40.4786786525548,-79.9250896723452,2.39000010490417,-0.08587646484375,-1.04911804199219,0.164520263671875,-0.0933874720491546,0.049539057333218,0.00318087960599064
1492618325.5,40.4786786525548,-79.9250896723452,2.39000010490417,-0.0446624755859375,-0.978073120117188,0.370162963867188,-0.0411524967444494,0.0608881183185906,-0.0720148053529417
1492618325.7,40.4786786525548,-79.9250896723452,2.39000010490417,0.14019775390625,-1.15576171875,0.203994750976562,-0.0794460900586988,0.0334900496560734,-0.0126281772569377
1492618325.9,40.4786786525548,-79.9250896723452,2.39000010490417,0.04168701171875,-1.01513671875,0.248703002929688,0.0238603254704559,-0.0331259955350596,0.0280513420779136
1492618326.1,40.4786786525548,-79.9250896723452,2.39000010490417,0.0592803955078125,-1.09231567382812,0.0745086669921875,0.00766271340448499,0.0584449343345519,-0.0608465730055854
1492618326.3,40.4786718296736,-79.9250727625839,2.0699999332428,0.262054443359375,-1.04908752441406,0.0311126708984375,-0.0758423004716036,-0.0069505841289978,0.0131022199309718
1492618326.5,40.4786718296736,-79.9250727625839,2.0699999332428,-0.0717010498046875,-0.934494018554688,0.131027221679688,0.0533226102938935,-0.00778202302132054,0.0677375023261654
1492618326.7,40.4786718296736,-79.9250727625839,2.0699999332428,0.000213623046875,-1.29315185546875,0.0885162353515625,0.172723040922615,-0.0255812601668651,0.0487478321733554
1492618326.9,40.4786718296736,-79.9250727625839,2.0699999332428,-0.178573608398438,-1.04452514648438,0.231338500976562,0.0972977914777179,-0.205915881801036,0.092155760044993
1492618327.1,40.4786718296736,-79.9250727625839,2.0699999332428,-0.003814697265625,-0.847000122070312,0.166778564453125,-0.0383362038916906,-0.036971600149134,0.0572784697770972
1492618327.3,40.4786560905376,-79.9250337548647,2.45000004768372,0.1876220703125,-1.08171081542969,0.143020629882812,-0.0147592387612191,0.110718259158954,-0.0281584011537348
1492618327.5,40.4786560905376,-79.9250337548647,2.45000004768372,0.0438690185546875,-0.956985473632812,0.239913940429688,0.0847614932783879,-0.270717249025389,0.116717562146576
1492618327.7,40.4786560905376,-79.9250337548647,2.45000004768372,0.0856781005859375,-0.932083129882812,0.318374633789062,-0.0272537253314349,0.0586694388144456,-0.0771978494664539
1492618327.9,40.4786560905376,-79.9250337548647,2.45000004768372,0.0252532958984375,-0.824859619140625,0.241607666015625,-0.0866733766249558,0.00376011714308288,0.0321555396338347
1492618328.1,40.4786560905376,-79.9250337548647,2.45000004768372,-0.0750885009765625,-0.7574462890625,0.351455688476562,-0.195883221342489,-0.0997761291881457,0.0185100348404867
1492618328.3,40.4786527349853,-79.9250254384969,2.25999999046326,-0.083160400390625,-0.90289306640625,0.268844604492188,0.0408193352920805,-0.0577154945119792,-0.0570086915586722
1492618328.5,40.4786527349853,-79.9250254384969,2.25999999046326,0.146682739257812,-1.00213623046875,0.229019165039062,0.00197207078720368,0.108472948043908,-0.0844906497955269
1492618328.7,40.4786527349853,-79.9250254384969,2.25999999046326,0.0445709228515625,-0.912521362304688,0.22906494140625,-0.0785938785098734,0.0962394512605205,-0.0405029517545791
1492618328.9,40.4786527349853,-79.9250254384969,2.25999999046326,-0.0486907958984375,-0.91424560546875,0.261184692382812,-0.0609243373094157,0.149307729670311,-0.0575184205913134
1492618329.1,40.4786527349853,-79.9250254384969,2.25999999046326,-0.0434112548828125,-0.89874267578125,0.3204345703125,-0.0868406231414128,0.103749032902326,0.0212336496873108
1492618329.3,40.4786424384616,-79.9249999196943,1.74000000953674,-0.157760620117188,-1.009765625,0.35003662109375,0.015393337416767,0.260503227296608,-0.0484942992375799
1492618329.5,40.4786424384616,-79.9249999196943,1.74000000953674,-0.0974884033203125,-0.899810791015625,0.243148803710938,-0.0561085431102254,0.0237649843034311,-0.0112979282924432
1492618329.7,40.4786424384616,-79.9249999196943,1.74000000953674,0.010589599609375,-0.961166381835938,0.186325073242188,0.0170895047150385,0.113703662740933,-0.0193103147480555
1492618329.9,40.4786424384616,-79.9249999196943,1.74000000953674,-0.07623291015625,-0.985580444335938,0.176193237304688,-0.0159043980299532,0.0362722540468792,0.0146705554969195
1492618330.1,40.4786424384616,-79.9249999196943,1.74000000953674,0.04931640625,-0.98712158203125,0.2236328125,-0.0130159335116533,0.0670951478712383,-0.023763120090668
1492618330.3,40.4786383511902,-79.9249897898412,1.12999999523163,0.04248046875,-0.927978515625,0.1441650390625,-0.0202165884670095,0.00970562427668478,0.00403282483870699
1492618330.5,40.4786383511902,-79.9249897898412,1.12999999523163,0.006011962890625,-0.954360961914062,0.230941772460938,-0.0483864412134317,0.0439240484908949,-0.0198006027047391
1492618330.7,40.4786383511902,-79.9249897898412,1.12999999523163,-0.0340728759765625,-1.01588439941406,0.13238525390625,-0.0233894785897299,0.0437679872510163,0.020971860952156
1492618330.9,40.4786383511902,-79.9249897898412,1.12999999523163,0.073760986328125,-0.9212646484375,0.167434692382812,-0.0680171342406238,0.100426739442452,-0.0329419711037351
1492618331.1,40.4786383511902,-79.9249897898412,1.12999999523163,-0.0063018798828125,-0.9327392578125,0.189697265625,-0.0605552231823307,0.00464748241829728,-0.00809547708162287
1492618331.3,40.4786317118472,-79.9249733349591,1.24000000953674,0.0230255126953125,-0.988601684570312,0.149063110351562,0.0195555918844518,-0.134147152532817,0.0538571067246724
1492618331.5,40.4786317118472,-79.9249733349591,1.24000000953674,0.058319091796875,-0.959075927734375,0.178665161132812,0.0124540065216465,-0.0989992850981696,0.0472964093792622
1492618331.7,40.4786317118472,-79.9249733349591,1.24000000953674,0.0635833740234375,-0.970626831054688,0.224884033203125,-0.0162412879078482,0.0128745196577701,0.0264558422688472
1492618331.9,40.4786317118472,-79.9249733349591,1.24000000953674,-0.0162811279296875,-0.878311157226562,0.211395263671875,-0.016098276157311,0.0703053222492198,-0.0302002467614986
1492618332.1,40.4786317118472,-79.9249733349591,1.24000000953674,0.106735229492188,-0.9168701171875,0.227508544921875,-0.0698635038243757,0.0217258018567574,-0.0188969921468752
1492618332.3,40.4786271940673,-79.9249621381381,1.30999994277954,0.13250732421875,-0.994522094726562,0.189804077148438,-0.00298939832361394,0.17232969202961,-0.0761765271884085
1492618332.5,40.4786271940673,-79.9249621381381,1.30999994277954,-0.074615478515625,-0.929046630859375,0.185394287109375,-0.0311989321702783,0.14593643404638,0.0248930993411887
1492618332.7,40.4786271940673,-79.9249621381381,1.30999994277954,-0.13525390625,-0.915252685546875,0.234695434570312,-0.0907560025760473,0.0910047418218607,-0.0107599697522471
1492618332.9,40.4786271940673,-79.9249621381381,1.30999994277954,0.0158233642578125,-0.985260009765625,0.117691040039062,-0.0318849624670827,0.135285920214935,-0.085972698942156
1492618333.1,40.4786271940673,-79.9249621381381,1.30999994277954,-0.020721435546875,-1.00144958496094,0.170928955078125,0.0043926179019767,0.136125348590528,-0.0131008883504268
1492618333.3,40.4786207257076,-79.9249461070192,1.16999995708466,0.008392333984375,-0.960678100585938,0.153335571289062,0.0346466605174949,0.0646604860026879,-0.00620942639762875
1492618333.5,40.4786207257076,-79.9249461070192,1.16999995708466,-0.0610504150390625,-0.908462524414062,0.1827392578125,-0.0330631449333337,-0.0710472789289159,0.0424933983533043
1492618333.7,40.4786207257076,-79.9249461070192,1.16999995708466,0.065826416015625,-0.982742309570312,0.145919799804688,-0.00956261252614752,-0.0148314104267603,-0.00965555684819129
1492618333.9,40.4786207257076,-79.9249461070192,1.16999995708466,0.026275634765625,-1.01248168945312,0.245407104492188,-0.0444683986177071,0.014115819041856,-0.0111538512774699
1492618334.1,40.4786207257076,-79.9249461070192,1.16999995708466,0.032135009765625,-0.939987182617188,0.238845825195312,-0.0253231998572365,0.0171829816693003,-0.0077671093192161
1492618334.3,40.4786154299918,-79.9249329821695,1.32000005245209,0.011322021484375,-0.958343505859375,0.227554321289062,0.010855044603163,-0.00751970165394774,-0.0190613091861331
1492618334.5,40.4786154299918,-79.9249329821695,1.32000005245209,0.0864715576171875,-0.965591430664062,0.28564453125,-0.0246100053173132,-0.00622141062253411,0.0050951597975396
1492618334.7,40.4786154299918,-79.9249329821695,1.32000005245209,0.064605712890625,-0.99249267578125,0.27056884765625,-0.0310045214107025,0.0938061209725151,-0.0176189411397462
1492618334.9,40.4786154299918,-79.9249329821695,1.32000005245209,-0.0415496826171875,-0.936569213867188,0.22314453125,-0.0095519598817872,-0.00951254509765403,-0.00753674588492424
1492618335.1,40.4786154299918,-79.9249329821695,1.32000005245209,0.04046630859375,-0.943695068359375,0.27838134765625,-0.0194336191065262,0.0086275766674207,-0.0535319347555738
1492618335.3,40.47860946722,-79.9249182040948,1.0,0.010101318359375,-0.967910766601562,0.30206298828125,0.0122161862363025,-0.0181576986282693,0.0310921394105661
1492618335.5,40.47860946722,-79.9249182040948,1.0,0.01025390625,-0.918060302734375,0.300399780273438,-0.0324785810740613,-0.038079741478716,0.0178913825192613
1492618335.7,40.47860946722,-79.9249182040948,1.0,0.0342254638671875,-0.967620849609375,0.207351684570312,-0.0310423382981816,-0.01788099619101,0.00186075065363836
1492618335.9,40.47860946722,-79.9249182040948,1.0,0.0829925537109375,-0.960769653320312,0.17919921875,-0.0135179393771332,0.013913685115119,-0.016167518345653
1492618336.1,40.47860946722,-79.9249182040948,1.0,0.0560302734375,-0.986282348632812,0.215591430664062,-0.0174791251825171,-0.0179659510297835,0.0222579014425552
1492618336.3,40.4786081458852,-79.9249149293117,0.579999983310699,0.054962158203125,-0.92486572265625,0.297317504882812,0.00116193718360157,0.0031827438187537,-0.00532738744459451
1492618336.5,40.4786081458852,-79.9249149293117,0.579999983310699,0.0189208984375,-0.9471435546875,0.294769287109375,-0.0190692986694034,0.00118670458173931,-0.00659558475569024
1492618336.7,40.4786081458852,-79.9249149293117,0.579999983310699,0.0289459228515625,-0.939987182617188,0.250625610351562,-0.0182881935216831,-0.0190274870402891,0.00306050472471906
1492618336.9,40.4786081458852,-79.9249149293117,0.579999983310699,0.01715087890625,-0.957168579101562,0.189697265625,-0.0127488184543183,-0.00204504140107185,-0.0033238913565279
1492618337.1,40.4786081458852,-79.9249149293117,0.579999983310699,0.0235137939453125,-0.992095947265625,0.170059204101562,-0.0277469427653176,-0.00832930262533182,-0.000262587683481813
1492618337.3,40.4786076210646,-79.9249136286015,0.0,0.017608642578125,-0.992294311523438,0.125823974609375,-0.0202951517191669,-0.0105053715520356,-0.0012468920223751
1492618337.5,40.4786076210646,-79.9249136286015,0.0,0.009002685546875,-0.974090576171875,0.128860473632812,-0.0161028035311641,-0.0232975995321222,-0.00330338501613429
1492618337.7,40.4786076210646,-79.9249136286015,0.0,0.0347137451171875,-0.96160888671875,0.119598388671875,-0.0309904066569251,-0.0285200584297676,-0.00770718819468932
1492618337.9,40.4786076210646,-79.9249136286015,0.0,0.0575408935546875,-0.999771118164062,0.0931854248046875,-0.00312761638418906,0.0127853037612524,0.00206741195422851
1492618338.1,40.4786076210646,-79.9249136286015,0.0,0.0849151611328125,-1.00126647949219,0.106292724609375,-0.00304106364876148,0.0457618959591586,0.013711551188382
1492618338.3,40.4786073401889,-79.9249129324819,0.540000021457672,-0.0841522216796875,-0.945220947265625,0.101654052734375,-0.0112100439764705,0.0415556993334874,-0.014082795844339
1492618338.5,40.4786073401889,-79.9249129324819,0.540000021457672,0.058197021484375,-1.00996398925781,0.106765747070312,-0.00861452717807931,0.0489800598204103,-0.0439293748130751
1492618338.7,40.4786073401889,-79.9249129324819,0.540000021457672,0.000518798828125,-1.00868225097656,0.171234130859375,0.00817031190825409,-0.0404739232986972,0.00338674195825377
1492618338.9,40.4786073401889,-79.9249129324819,0.540000021457672,-0.022705078125,-1.02981567382812,0.228973388671875,-0.0143336656190245,-0.00948777769951629,-0.0470356859085435
1492618339.1,40.4786073401889,-79.9249129324819,0.540000021457672,0.0139617919921875,-0.933135986328125,0.17803955078125,-0.00836072792619476,-0.0297341935707347,-0.0277304311665591
1492618339.3,40.478603821065,-79.92490421072,1.12999999523163,-0.0072479248046875,-0.970779418945312,0.192306518554688,-0.0337798015826741,-0.013613280544158,-0.0290984970185328
1492618339.5,40.478603821065,-79.92490421072,1.12999999523163,0.0587158203125,-0.970779418945312,0.1856689453125,-0.0381732184329778,0.0289693337056639,0.00379926561110704
1492618339.7,40.478603821065,-79.92490421072,1.12999999523163,-0.068389892578125,-0.991241455078125,0.220550537109375,-0.0255828580635192,0.00016671388423896,0.00187007171745364
1492618339.9,40.478603821065,-79.92490421072,1.12999999523163,0.1075439453125,-0.934890747070312,0.174957275390625,-0.0600452278335806,0.0354887520541779,-0.0284279130560508
1492618340.1,40.478603821065,-79.92490421072,1.12999999523163,0.1064453125,-1.0355224609375,0.241195678710938,0.00945342292145427,0.00419527766520182,0.0118143152278095
1492618340.3,40.4785980074541,-79.924889802324,1.33000004291534,-0.0162353515625,-1.00010681152344,0.16729736328125,-0.00277394859142653,-0.0350802231429598,0.0277836943883607
1492618340.5,40.4785980074541,-79.924889802324,1.33000004291534,0.047393798828125,-0.972625732421875,0.1505126953125,-0.00627786963764379,-0.0105985821901883,-0.0138977061485785
1492618340.7,40.4785980074541,-79.924889802324,1.33000004291534,0.0240478515625,-1.03184509277344,0.235855102539062,-0.0204789098343823,0.000136087531703049,0.0179156172851811
1492618340.9,40.4785980074541,-79.924889802324,1.33000004291534,0.0584716796875,-0.987472534179688,0.096832275390625,-0.0376339283122367,0.0715120005391347,-0.0122982115978769
1492618341.1,40.4785980074541,-79.924889802324,1.33000004291534,0.016204833984375,-0.999755859375,0.182235717773438,-0.0145320711202354,-0.0105479821294768,-0.03317419875079
1492618341.3,40.4785931052275,-79.9248776526941,1.39999997615814,0.0553131103515625,-0.970046997070312,0.1456298828125,0.0111735586695365,-0.069201708293491,0.0791928234390323
1492618341.5,40.4785931052275,-79.9248776526941,1.39999997615814,-0.136138916015625,-0.808853149414062,0.34466552734375,-0.0574100299349471,-0.10598395768912,0.0903139178350942
1492618341.7,40.4785931052275,-79.9248776526941,1.39999997615814,0.059112548828125,-0.965927124023438,0.304611206054688,0.00796977587817113,0.00632500758893819,-0.0340535745427342
1492618341.9,40.4785931052275,-79.9248776526941,1.39999997615814,0.115234375,-0.943862915039062,0.337966918945312,-0.0275067256349924,0.0522911680037058,-0.0622569831188914
1492618342.1,40.4785931052275,-79.9248776526941,1.39999997615814,0.059051513671875,-0.878189086914062,0.342803955078125,-0.0464420673015648,0.0290202000824844,-0.0144111636067458
1492618342.3,40.4785886839132,-79.9248666949524,1.02999997138977,0.02947998046875,-0.91497802734375,0.36566162109375,-0.00617453898734871,-0.0605871811154117,0.0288809167574733
1492618342.5,40.4785886839132,-79.9248666949524,1.02999997138977,0.0209197998046875,-0.955551147460938,0.364044189453125,-0.0118398815742743,-0.0169424982228661,-7.74979877213058e-05
1492618342.7,40.4785886839132,-79.9248666949524,1.02999997138977,0.0148468017578125,-0.924957275390625,0.266525268554688,-0.0193462674227716,-0.00838256584713341,0.00835327107514254
1492618342.9,40.4785886839132,-79.9248666949524,1.02999997138977,0.014404296875,-0.990386962890625,0.185287475585938,-0.0297565641238914,-0.00406238592680687,-0.00669145855493309
1492618343.1,40.4785886839132,-79.9248666949524,1.02999997138977,0.013885498046875,-0.943649291992188,0.219207763671875,-0.0190959302803042,0.00544243600368593,-0.00234198386261568
1492618343.3,40.4785962403198,-79.9248611089587,0.0,0.0144500732421875,-0.97247314453125,0.229507446289062,-0.0225537786396631,-0.0179358573094657,0.0040802291061104
1492618343.5,40.4785962403198,-79.9248611089587,0.0,0.0348358154296875,-0.956588745117188,0.237197875976562,-0.0193222989729609,-0.0168934960588086,0.00197819605771086
1492618343.7,40.4785962403198,-79.9248611089587,0.0,0.018585205078125,-0.953765869140625,0.27520751953125,-0.0141477769749369,-0.0211806527816182,0.0105719505792876
1492618343.9,40.4785962403198,-79.9248611089587,0.0,-0.008148193359375,-0.956573486328125,0.31866455078125,-0.0162253089413078,-0.0318058665827073,0.000982173810021223
1492618344.1,40.4785962403198,-79.9248611089587,0.0,-0.0148773193359375,-0.927093505859375,0.337905883789062,-0.0211353790430868,-0.065808308432512,0.0298074305007119
1492618344.3,40.4785940610249,-79.9248580076545,0.189999997615814,-0.0401611328125,-0.946990966796875,0.340972900390625,-0.0300327339289326,-0.110426110387373,0.0330301217358168
1492618344.5,40.4785940610249,-79.9248580076545,0.189999997615814,-0.088775634765625,-0.927520751953125,0.379608154296875,0.0138385839723787,-0.205368335880915,0.12115385589043
1492618344.7,40.4785940610249,-79.9248580076545,0.189999997615814,-0.0731201171875,-0.974578857421875,0.279037475585938,-0.00969417268399743,-0.187141661380413,0.0611578965370157
1492618344.9,40.4785940610249,-79.9248580076545,0.189999997615814,-0.1234130859375,-0.957794189453125,0.368392944335938,-0.0999132819842848,-0.288671748462485,0.0615624307065987
1492618345.1,40.4785940610249,-79.9248580076545,0.189999997615814,-0.0901031494140625,-0.88409423828125,0.328201293945312,-0.00301123624455259,-0.357373581419368,0.102181762600814
1492618345.3,40.4785986710717,-79.9248670601099,1.24000000953674,-0.133987426757812,-0.89276123046875,0.289932250976562,-0.0438164567828557,-0.410282336479863,0.175469292638705
1492618345.5,40.4785986710717,-79.9248670601099,1.24000000953674,0.04510498046875,-0.85894775390625,0.285888671875,-0.0167534137854705,-0.448760753173764,0.122534971231745
1492618345.7,40.4785986710717,-79.9248670601099,1.24000000953674,-0.024139404296875,-0.9912109375,0.276947021484375,0.0171920364170065,-0.388355199644696,0.0875415671403217
1492618345.9,40.4785986710717,-79.9248670601099,1.24000000953674,0.12994384765625,-0.849349975585938,0.168502807617188,-0.020501813019757,-0.389181312214838,0.0402443588127324
1492618346.1,40.4785986710717,-79.9248670601099,1.24000000953674,-0.184005737304688,-0.92852783203125,0.269485473632812,-0.0834102053412817,-0.320687205822982,0.0831382965939847
1492618346.3,40.4786138842259,-79.9248792976885,2.29999995231628,-0.337387084960938,-1.03746032714844,0.202880859375,-0.115894379053632,-0.253474346231562,0.00373242026774605
1492618346.5,40.4786138842259,-79.9248792976885,2.29999995231628,-0.325210571289062,-1.0068359375,0.111892700195312,-0.0550155817988569,-0.396423246167091,-0.0869697864542816
1492618346.7,40.4786138842259,-79.9248792976885,2.29999995231628,0.178176879882812,-1.04769897460938,0.06890869140625,-0.00386664358668605,-0.208474114344166,-0.0645406437536343
1492618346.9,40.4786138842259,-79.9248792976885,2.29999995231628,-0.05169677734375,-1.08708190917969,0.2725830078125,0.0557556742657899,-0.410923891986463,0.213807893375377
1492618347.1,40.4786138842259,-79.9248792976885,2.29999995231628,-0.310165405273438,-0.982208251953125,0.13140869140625,-0.0591237740964131,-0.328289465470722,0.0940687086559969
1492618347.3,40.4786061377848,-79.9249099524554,2.59999990463257,-0.35516357421875,-0.98779296875,0.192413330078125,0.000365918333776887,-0.329751008276957,0.0264438580439418
1492618347.5,40.4786061377848,-79.9249099524554,2.59999990463257,0.126358032226562,-0.866867065429688,0.166046142578125,0.11851492956627,-0.518776323496383,0.16035185871087
1492618347.7,40.4786061377848,-79.9249099524554,2.59999990463257,-0.1124267578125,-0.90411376953125,0.262420654296875,-0.0515191176036919,-0.462343673681495,0.242696266983902
1492618347.9,40.4786061377848,-79.9249099524554,2.59999990463257,-0.190826416015625,-0.91943359375,0.15673828125,0.0844909161116359,-0.190951313319771,0.0248145360890313
1492618348.1,40.4786061377848,-79.9249099524554,2.59999990463257,0.03741455078125,-1.06207275390625,0.26788330078125,-0.0563476949761145,-0.201771204196545,-0.194107159211515
1492618348.3,40.4786118930862,-79.9249242163376,2.77999997138977,-0.08062744140625,-0.90386962890625,0.2244873046875,0.0216917133948044,-0.520262633700757,0.230800725342845
1492618348.5,40.4786118930862,-79.9249242163376,2.77999997138977,-0.041259765625,-0.933303833007812,0.20233154296875,0.0584254932585944,-0.334377984354861,0.061169081813594
1492618348.7,40.4786118930862,-79.9249242163376,2.77999997138977,-0.0395355224609375,-0.886703491210938,0.256195068359375,-0.0407194667512025,-0.378386987684529,0.199941612527661
1492618348.9,40.4786118930862,-79.9249242163376,2.77999997138977,-0.21258544921875,-0.958267211914062,0.125244140625,0.00948271769344514,-0.532968042629307,0.104895257435496
1492618349.1,40.4786118930862,-79.9249242163376,2.77999997138977,0.03582763671875,-0.931060791015625,0.237075805664062,-0.0399205184241788,-0.482655070683312,0.0850677568037471
1492618349.3,40.4786127284576,-79.9249262867139,2.86999988555908,-0.243759155273438,-0.908843994140625,0.4056396484375,-0.102267516387915,-0.434371161171848,0.153608734830789
1492618349.5,40.4786127284576,-79.9249262867139,2.86999988555908,-0.311691284179688,-0.99359130859375,0.271133422851562,0.00887045695883593,-0.59569693789336,0.270314046436351
1492618349.7,40.4786127284576,-79.9249262867139,2.86999988555908,-0.1871337890625,-0.96856689453125,0.262664794921875,-0.144415236431727,-0.634086405006852,0.0897197665958975
1492618349.9,40.4786127284576,-79.9249262867139,2.86999988555908,-0.495590209960938,-0.808563232421875,0.213699340820312,-0.0859218325653355,-0.719533662265936,0.281391464990535
1492618350.1,40.4786127284576,-79.9249262867139,2.86999988555908,-0.0801849365234375,-0.977569580078125,0.291152954101562,0.108139520275431,-0.549537698299562,0.278674774362546
1492618350.3,40.4786106384079,-79.9249211067552,2.80999994277954,0.188888549804688,-1.14035034179688,0.03460693359375,-0.0663744964802629,-0.332499923154137,0.0769459144273324
1492618350.5,40.4786106384079,-79.9249211067552,2.80999994277954,-0.239089965820312,-0.84637451171875,0.269607543945312,-0.125731829804276,-0.640560283300726,0.2765152170346
1492618350.7,40.4786106384079,-79.9249211067552,2.80999994277954,-0.371368408203125,-0.931747436523438,0.41510009765625,0.0387095790765197,-0.623550407102281,0.253632005368094
1492618350.9,40.4786106384079,-79.9249211067552,2.80999994277954,0.05694580078125,-0.792816162109375,0.196426391601562,-0.177236566338081,-0.0797286514503562,-0.24257322894154
1492618351.1,40.4786106384079,-79.9249211067552,2.80999994277954,0.226821899414062,-0.845870971679688,0.226974487304688,-0.0923176802392698,0.00801851172611958,-0.174758761259872
1492618351.3,40.4787534703821,-79.9247752745837,2.32999992370605,0.219711303710938,-0.8822021484375,0.348175048828125,-0.00761078176322845,-0.442419766618286,0.235630900611922
1492618351.5,40.4787534703821,-79.9247752745837,2.32999992370605,-0.134841918945312,-0.955291748046875,0.06451416015625,-0.155631139362596,-0.197906158506513,-0.0192083156783055
1492618351.7,40.4787534703821,-79.9247752745837,2.32999992370605,-0.129592895507812,-1.01789855957031,0.220245361328125,-0.108511031247497,-0.381166528914245,0.0169321118946148
1492618351.9,40.4787534703821,-79.9247752745837,2.32999992370605,0.0493621826171875,-0.946884155273438,0.15606689453125,-0.079753951480712,-0.471777655526992,-0.0326516865449165
1492618352.1,40.4787534703821,-79.9247752745837,2.32999992370605,-0.115142822265625,-0.995208740234375,0.277999877929688,-0.0768023700445771,-0.498352008464348,0.203080414188428
1492618352.3,40.4787147185211,-79.9248025194555,2.21000003814697,-0.233840942382812,-0.934417724609375,0.190444946289062,-0.0966658233510421,-0.506712736390542,0.326579449734782
1492618352.5,40.4787147185211,-79.9248025194555,2.21000003814697,-0.1761474609375,-0.998199462890625,0.190521240234375,0.016064720327576,-0.73295998890157,0.2920662135879
1492618352.7,40.4787147185211,-79.9248025194555,2.21000003814697,-0.187393188476562,-0.932632446289062,0.149658203125,-0.0551633872393563,-0.608056934828527,0.196121574260051
1492618352.9,40.4787147185211,-79.9248025194555,2.21000003814697,-0.240982055664062,-0.936141967773438,0.132919311523438,0.00493750066100691,-0.533998952287276,0.125109449057524
1492618353.1,40.4787147185211,-79.9248025194555,2.21000003814697,-0.1602783203125,-1.0498046875,0.21917724609375,-0.0963265366281661,-0.144046122304642,-0.0432630519083372
1492618353.3,40.4787008045618,-79.9247757811844,2.84999990463257,0.0275726318359375,-0.931289672851562,0.295608520507812,-0.108377340560775,-0.256715413278188,-0.00257953783185075
1492618353.5,40.4787008045618,-79.9247757811844,2.84999990463257,0.0470733642578125,-0.973068237304688,0.338424682617188,-0.070816116546297,-0.252707888469837,-0.0213971677782416
1492618353.7,40.4787008045618,-79.9247757811844,2.84999990463257,-0.154403686523438,-1.03346252441406,0.4163818359375,-0.175186731247047,-0.331777407550399,0.168590613859139
1492618353.9,40.4787008045618,-79.9247757811844,2.84999990463257,-0.249176025390625,-0.958541870117188,0.411087036132812,-0.0976330834589589,-0.314194951717586,0.191729755306402
1492618354.1,40.4787008045618,-79.9247757811844,2.84999990463257,0.0733795166015625,-1.00184631347656,0.412353515625,-0.076697175181519,0.275976725862186,-0.158230917218731
1492618354.3,40.4786674864967,-79.9247435946762,4.42000007629395,0.0027923583984375,-1.11268615722656,0.326370239257812,-0.131724741205281,0.117847541397096,-0.114671455481068
1492618354.5,40.4786674864967,-79.9247435946762,4.42000007629395,-0.271682739257812,-0.670745849609375,0.154647827148438,-0.103948237351864,-0.0461363364084237,-0.055322111640325
1492618354.7,40.4786674864967,-79.9247435946762,4.42000007629395,0.028717041015625,-1.17243957519531,0.402847290039062,-0.101696268334093,0.0325696611833421,-0.0213833193405732
1492618354.9,40.4786674864967,-79.9247435946762,4.42000007629395,0.276351928710938,-0.9200439453125,0.156494140625,-0.111102286988144,-0.425799510887319,0.181217725851641
1492618355.1,40.4786674864967,-79.9247435946762,4.42000007629395,0.923660278320312,-1.32151794433594,0.0824127197265625,0.16872989718415,0.229706698767041,-0.14173796058787
1492618355.3,40.4786332045127,-79.9247082230448,5.55999994277954,-0.547439575195312,-0.856063842773438,0.537841796875,-0.202555238821465,-0.225259219746608,-0.0292140782098422
1492618355.5,40.4786332045127,-79.9247082230448,5.55999994277954,0.0709381103515625,-0.435165405273438,-0.204315185546875,-0.0896872760305985,0.330293227874897,-0.268324132469844
1492618355.7,40.4786332045127,-79.9247082230448,5.55999994277954,0.33050537109375,-1.34173583984375,0.365554809570312,-0.0495592973575026,-0.515532593288667,0.303627794828261
1492618355.9,40.4786332045127,-79.9247082230448,5.55999994277954,0.075103759765625,-0.829330444335938,-0.005157470703125,0.0850469841472444,-0.825920289911876,0.491328187405373
1492618356.1,40.4786332045127,-79.9247082230448,5.55999994277954,-0.103042602539062,-0.688247680664062,0.452774047851562,0.107540575346272,-0.19425096991038,0.283082838598845
1492618356.3,40.4785937676583,-79.9246693310141,5.76000022888184,-0.0338897705078125,-1.48210144042969,0.468185424804688,-0.0195342865957312,-0.181743167534713,0.160201123793172
1492618356.5,40.4785937676583,-79.9246693310141,5.76000022888184,-0.385848999023438,-0.834640502929688,0.372802734375,0.157282032922336,-0.265846327391634,0.266717447384199
1492618356.7,40.4785937676583,-79.9246693310141,5.76000022888184,0.0074005126953125,-0.863861083984375,0.503219604492188,-0.010117881613429,0.126603482429059,-0.279778388318274
1492618356.9,40.4785937676583,-79.9246693310141,5.76000022888184,0.040130615234375,-0.882614135742188,0.490859985351562,-0.035626703798644,-0.0976208329179446,0.0595951536093572
1492618357.1,40.4785937676583,-79.9246693310141,5.76000022888184,-0.322189331054688,-1.32846069335938,0.588394165039062,0.253136124773122,0.597183514413842,-0.271900225181602
1492618357.3,40.478553199247,-79.9246199616044,6.34999990463257,-0.206085205078125,-1.03176879882812,0.267410278320312,-0.0135957036809635,0.41066716325738,-0.104621750791545
1492618357.5,40.478553199247,-79.9246199616044,6.34999990463257,-0.0240478515625,-0.8939208984375,0.440460205078125,0.0978621153127057,-0.370779668030718,0.193877328409442
1492618357.7,40.478553199247,-79.9246199616044,6.34999990463257,0.165069580078125,-1.03628540039062,0.471298217773438,-0.0854049129977511,-0.301502325962269,0.238735613810736
1492618357.9,40.478553199247,-79.9246199616044,6.34999990463257,0.15289306640625,-1.59201049804688,-0.0213165283203125,0.113878366108442,-0.368756730866694,0.191903659725584
1492618358.1,40.478553199247,-79.9246199616044,6.34999990463257,-0.003204345703125,-0.97418212890625,0.11383056640625,-0.30931897007776,0.26683249594329,-0.284269809496693
1492618358.3,40.4785144748543,-79.9245601148158,7.17999982833862,-0.0882110595703125,-1.05384826660156,0.666732788085938,0.573523991289578,0.331288184858151,-0.327641784693614
1492618358.5,40.4785144748543,-79.9245601148158,7.17999982833862,0.0901947021484375,-0.596450805664062,0.0909881591796875,-0.350991315866993,0.102276571135621,0.023864053895982
1492618358.7,40.4785144748543,-79.9245601148158,7.17999982833862,0.047760009765625,-1.05989074707031,-0.0035858154296875,0.278047067293614,0.336444863676871,-0.0566632795652889
1492618358.9,40.4785144748543,-79.9245601148158,7.17999982833862,0.75054931640625,-0.56329345703125,-0.166183471679688,-0.786130266381111,0.495409481775919,-0.490189686039364
1492618359.1,40.4785144748543,-79.9245601148158,7.17999982833862,0.020355224609375,-1.01481628417969,0.694839477539062,-0.0978756974342651,0.346287374433586,-0.361209864969627
1492618359.3,40.4784749541809,-79.9244879466295,7.8899998664856,0.552764892578125,-0.981460571289062,0.1468505859375,-0.195140465714466,0.440601892858197,0.103486445218844
1492618359.5,40.4784749541809,-79.9244879466295,7.8899998664856,-0.574676513671875,-1.14277648925781,-0.109130859375,0.0429261620304422,-0.66504112530517,0.389191432226981
1492618359.7,40.4784749541809,-79.9244879466295,7.8899998664856,0.322097778320312,-1.18730163574219,0.146636962890625,-0.130261866818501,0.565635974456873,-0.287472527023622
1492618359.9,40.4784749541809,-79.9244879466295,7.8899998664856,0.05364990234375,-0.900772094726562,-0.0009307861328125,-0.151942927568945,0.180718915779469,-0.236589105972132
1492618360.1,40.4784749541809,-79.9244879466295,7.8899998664856,-0.0749359130859375,-0.7091064453125,0.331634521484375,0.237686594657354,-0.221720411290111,0.0968325372352811
1492618360.3,40.4784147594046,-79.9244258094562,8.27000045776367,-0.153213500976562,-0.65045166015625,0.53363037109375,-0.5948378021257,-0.0748204455613402,0.158299893090964
1492618360.5,40.4784147594046,-79.9244258094562,8.27000045776367,0.215438842773438,-1.29641723632812,-0.468002319335938,0.490280499832536,-0.198885935471554,0.171862307258301
1492618360.7,40.4784147594046,-79.9244258094562,8.27000045776367,-0.3529052734375,-0.431884765625,0.207656860351562,-0.196706937067651,-0.228432642501547,0.318439764179064
1492618360.9,40.4784147594046,-79.9244258094562,8.27000045776367,-0.1568603515625,-1.32612609863281,0.193939208984375,0.446841146660035,0.204541424362446,0.142654886951184
1492618361.1,40.4784147594046,-79.9244258094562,8.27000045776367,-0.0997467041015625,-1.14080810546875,0.162033081054688,0.139271607102348,-0.162590245607082,0.0061103568050778
1492618361.3,40.4783776683372,-79.9243272250822,8.72000026702881,-0.351699829101562,-0.99163818359375,0.06243896484375,-0.376655932975978,-0.0911565420039952,0.00384240882076632
1492618361.5,40.4783776683372,-79.9243272250822,8.72000026702881,0.023773193359375,-1.03091430664062,0.0623626708984375,0.146033905742277,-0.222174746572078,0.179060032736459
1492618361.7,40.4783776683372,-79.9243272250822,8.72000026702881,0.257476806640625,-0.801193237304688,0.238494873046875,-0.592566392031972,0.0410688734862209,-0.0989335050192446
1492618361.9,40.4783776683372,-79.9243272250822,8.72000026702881,-0.2095947265625,-0.874496459960938,0.15338134765625,0.195963382491301,-0.42353369343188,0.233401568463417
1492618362.1,40.4783776683372,-79.9243272250822,8.72000026702881,0.414398193359375,-0.523391723632812,0.280609130859375,-0.323338116372046,0.574317613294422,-0.414218754887109
1492618362.3,40.4783417012371,-79.9242316281015,8.57999992370605,0.746337890625,-1.15048217773438,-0.0702056884765625,-0.177213130520489,0.105386610656616,-0.0660591782071975
1492618362.5,40.4783417012371,-79.9242316281015,8.57999992370605,-0.203079223632812,-0.927383422851562,0.114273071289062,-0.382562824273774,-0.226153242924548,0.360245800655019
1492618362.7,40.4783417012371,-79.9242316281015,8.57999992370605,0.467300415039062,-0.864242553710938,-0.295333862304688,-0.0964192146341008,0.17927974352639,-0.325578900113239
1492618362.9,40.4783417012371,-79.9242316281015,8.57999992370605,-0.1964111328125,-1.08349609375,-0.17529296875,0.0604084830062674,0.0857543197327695,-0.0870323707398985
1492618363.1,40.4783417012371,-79.9242316281015,8.57999992370605,-0.0411529541015625,-0.865768432617188,0.721572875976562,0.117550066303335,0.364068235767609,-0.141542484563858
1492618363.3,40.4783064921133,-79.9241380457463,8.64999961853027,0.464279174804688,-1.10646057128906,0.0203704833984375,0.151566090274699,0.174476732500432,-0.317696475918823
1492618363.5,40.4783064921133,-79.9241380457463,8.64999961853027,0.660552978515625,-0.720855712890625,0.117279052734375,0.125671908679749,0.288501838784938,-0.076225263036357
1492618363.7,40.4783064921133,-79.9241380457463,8.64999961853027,-0.337310791015625,-0.913604736328125,-0.0892181396484375,0.148629422540668,0.240498892768478,0.0094307860521886
1492618363.9,40.4783064921133,-79.9241380457463,8.64999961853027,0.030029296875,-1.09214782714844,-0.0158538818359375,-0.173664202051849,-0.0243759134574953,0.147554837040821
1492618364.1,40.4783064921133,-79.9241380457463,8.64999961853027,0.18963623046875,-0.535186767578125,0.266143798828125,0.25319844274263,-0.25051397636383,0.269792333178804
1492618364.3,40.4782693536441,-79.924039335383,8.63000011444092,0.266952514648438,-1.4525146484375,-0.0460662841796875,-0.396712731777583,0.359965902424451,-0.151061953880347
1492618364.5,40.4782693536441,-79.924039335383,8.63000011444092,0.0867156982421875,-0.851959228515625,-0.330490112304688,-0.217070798342942,0.42693481646002,0.219514514959198
1492618364.7,40.4782693536441,-79.924039335383,8.63000011444092,-0.132583618164062,-1.50088500976562,0.444320678710938,0.322317859358437,-0.11375559438219,0.196578306387
1492618364.9,40.4782693536441,-79.924039335383,8.63000011444092,-0.245697021484375,-0.7435302734375,0.518035888671875,-0.21377753333895,0.354498432706519,-0.292047571460269
1492618365.1,40.4782693536441,-79.924039335383,8.63000011444092,-0.1373291015625,-0.512191772460938,0.11505126953125,-0.0304101038553968,-0.576294211455479,0.271994234768082
1492618365.3,40.4782323832257,-79.923941071682,8.97999954223633,0.245803833007812,-0.715835571289062,0.504867553710938,0.0953398354442917,0.192937232544644,-0.245817225465366
1492618365.5,40.4782323832257,-79.923941071682,8.97999954223633,0.52789306640625,-1.57887268066406,0.334945678710938,-0.102241151093123,-0.546034576201671,0.323425201739692
1492618365.7,40.4782323832257,-79.923941071682,8.97999954223633,-0.0080718994140625,-1.37953186035156,0.736328125,0.249288123314066,0.0100542320633761,-0.156339540212557
1492618365.9,40.4782323832257,-79.923941071682,8.97999954223633,0.308517456054688,-0.96441650390625,0.08343505859375,-0.0128785143994052,-0.225430727320809,-0.0379338002509797
1492618366.1,40.4782323832257,-79.923941071682,8.97999954223633,-0.270980834960938,-1.00701904296875,0.0332489013671875,0.106355734977295,-0.0144825363239599,0.234627155197071
1492618366.3,40.478185895318,-79.9238175114393,9.47999954223633,-0.384384155273438,-1.12324523925781,0.0805206298828125,0.134338633815194,-0.165766597839219,-0.101619569294699
1492618366.5,40.478185895318,-79.9238175114393,9.47999954223633,0.757659912109375,-1.36866760253906,0.0041046142578125,0.352542340885855,0.745466193380582,-0.21795443519263
1492618366.7,40.478185895318,-79.9238175114393,9.47999954223633,0.757461547851562,-1.03973388671875,0.270614624023438,-0.211015835288537,0.78735745101142,-0.644986989664656
1492618366.9,40.478185895318,-79.9238175114393,9.47999954223633,0.259674072265625,-0.905227661132812,0.347732543945312,-0.154705424567684,0.368989224829858,-0.398101570286059
1492618367.1,40.478185895318,-79.9238175114393,9.47999954223633,-0.18182373046875,-0.741790771484375,0.160690307617188,-0.0086576703877386,-0.233918488031001,0.270267174801165
1492618367.3,40.4781507159002,-79.9237240080399,8.89999961853027,-0.566162109375,-0.89422607421875,0.583847045898438,0.383045655379405,-0.104564226511999,0.277142391471314
1492618367.5,40.4781507159002,-79.9237240080399,8.89999961853027,-0.0713043212890625,-1.14674377441406,-0.0699310302734375,-0.0313464712946687,0.20441146210125,-0.165045413816026
1492618367.7,40.4781507159002,-79.9237240080399,8.89999961853027,-0.524795532226562,-0.35089111328125,0.454345703125,-0.91996289958919,-0.421544844729808,0.535438124540355
1492618367.9,40.4781507159002,-79.9237240080399,8.89999961853027,-0.310577392578125,-1.25942993164062,0.006591796875,0.0160367571361301,-0.345794156999704,0.117273896498293
1492618368.1,40.4781507159002,-79.9237240080399,8.89999961853027,0.004608154296875,-1.11184692382812,-0.265960693359375,-0.0129592081804346,0.244638776683006,-0.628764077568329
1492618368.3,40.4781169526402,-79.9236342686475,8.14999961853027,-0.617141723632812,-1.06314086914062,0.05242919921875,0.236713475595039,0.201594902932382,-0.222001641101223
1492618368.5,40.4781169526402,-79.9236342686475,8.14999961853027,-0.214508056640625,-0.837432861328125,-0.5538330078125,0.184564786709652,-0.012906477590851,-0.0311296899819362
1492618368.7,40.4781169526402,-79.9236342686475,8.14999961853027,0.077972412109375,-1.38868713378906,0.10736083984375,-0.120998593598878,-0.501274561444601,0.0853519160920585
1492618368.9,40.4781169526402,-79.9236342686475,8.14999961853027,0.111083984375,-1.069091796875,0.357009887695312,0.0773879991682856,-0.111123325960755,0.0426614438180883
1492618369.1,40.4781169526402,-79.9236342686475,8.14999961853027,0.155746459960938,-0.691726684570312,-0.01470947265625,0.141395211755577,-0.305142334540189,0.0064999772725564
1492618369.3,40.4780873245737,-79.9235555201887,6.59000015258789,0.327529907226562,-1.10484313964844,-0.149246215820312,-0.429292246656958,0.454827167820856,-0.28598328734205
1492618369.5,40.4780873245737,-79.9235555201887,6.59000015258789,0.729385375976562,-0.984451293945312,-0.2125244140625,-0.13088744335856,0.492207030565099,-0.514393026658222
1492618369.7,40.4780873245737,-79.9235555201887,6.59000015258789,0.369415283203125,-1.17430114746094,-0.231460571289062,0.150734917698485,-0.276464883289998,0.117407853501124
1492618369.9,40.4780873245737,-79.9235555201887,6.59000015258789,-0.557708740234375,-0.872451782226562,0.0833892822265625,0.0872289120283464,-0.57382412954443,0.547209296558505
1492618370.1,40.4780873245737,-79.9235555201887,6.59000015258789,-0.0723876953125,-1.04417419433594,-0.0832061767578125,-0.103488575747716,0.0463696293199147,-0.270931367177031
1492618370.3,40.478065132747,-79.9234965365168,4.51999998092651,-0.179672241210938,-0.956573486328125,0.0981903076171875,0.0495148225672982,-0.142829324002585,0.193860284178465
1492618370.5,40.478065132747,-79.9234965365168,4.51999998092651,-0.1878662109375,-0.76324462890625,0.146163940429688,-0.0307358084567135,-0.0753075377247157,0.10330242078752
1492618370.7,40.478065132747,-79.9234965365168,4.51999998092651,0.175155639648438,-1.00587463378906,0.0859527587890625,0.0688256699475718,-0.454603728605398,0.323874477015588
1492618370.9,40.478065132747,-79.9234965365168,4.51999998092651,-0.130950927734375,-1.20526123046875,-0.05474853515625,0.0527060885015402,0.117696806479398,-0.206609635265001
1492618371.1,40.478065132747,-79.9234965365168,4.51999998092651,-0.0661163330078125,-1.17666625976562,0.040771484375,0.111303621966554,-0.0677257844173691,0.0780817526322512
1492618371.3,40.4780492457458,-79.9234543104451,3.10999989509583,-0.345840454101562,-1.06184387207031,-0.0072784423828125,-0.169508605486889,-0.056328520216266,0.0602502912375167
1492618371.5,40.4780492457458,-79.9234543104451,3.10999989509583,0.0427398681640625,-0.801132202148438,0.018768310546875,-0.00165089355974012,0.0319070667041303,-0.0949922929220363
1492618371.7,40.4780492457458,-79.9234543104451,3.10999989509583,0.142547607421875,-0.921279907226562,0.0630340576171875,-0.0324173283689895,0.0480879008552338,0.0603182018453137
1492618371.9,40.4780492457458,-79.9234543104451,3.10999989509583,-0.086395263671875,-0.980148315429688,0.02069091796875,-0.0138441766106679,0.0426425353743488,0.0232049215261874
1492618372.1,40.4780492457458,-79.9234543104451,3.10999989509583,-0.0094757080078125,-0.987030029296875,0.105682373046875,-0.0597834390984258,-0.10067148394663,-0.0440670602414321
1492618372.3,40.4780398888227,-79.9234294406726,1.83000004291534,0.05657958984375,-0.983596801757812,0.0604705810546875,-0.000304399312596057,0.0212693360459178,-0.0437727809409784
1492618372.5,40.4780398888227,-79.9234294406726,1.83000004291534,0.0369415283203125,-0.99822998046875,0.099822998046875,-0.00585096491490409,-0.0116577213557129,0.0319566015004058
1492618372.7,40.4780398888227,-79.9234294406726,1.83000004291534,-0.037506103515625,-1.01242065429688,0.0474090576171875,-0.01623276579236,0.0426486606448559,-0.0354613214949501
1492618372.9,40.4780398888227,-79.9234294406726,1.83000004291534,0.05419921875,-0.99188232421875,0.081512451171875,-0.0119703764676882,-0.0499182914724452,-0.0085234470687986
1492618373.1,40.4780398888227,-79.9234294406726,1.83000004291534,0.0187225341796875,-0.993057250976562,0.112899780273438,-0.014924088432695,-0.0445703976874571,0.0543391388819768
1492618373.3,40.4780363073382,-79.9234199214425,0.639999985694885,-0.0025177001953125,-0.978607177734375,0.110321044921875,-0.0341060388162088,-0.0199902197743528,-0.00882731374917664
1492618373.5,40.4780363073382,-79.9234199214425,0.639999985694885,0.002410888671875,-0.934982299804688,0.26666259765625,-0.0601576132315819,-0.0900265627534746,-0.0110457269372126
1492618373.7,40.4780363073382,-79.9234199214425,0.639999985694885,-0.003662109375,-0.989791870117188,0.152099609375,0.00216275312125335,0.00636841711470648,0.00107192233875689
1492618373.9,40.4780363073382,-79.9234199214425,0.639999985694885,0.03466796875,-0.955978393554688,0.166702270507812,-0.0481219893171868,0.0173363797480888,0.0239854940416897
1492618374.1,40.4780363073382,-79.9234199214425,0.639999985694885,0.01727294921875,-0.985015869140625,0.178741455078125,-0.0450617509085767,-0.0284382993843021,-0.0686256665497069
1492618374.3,40.4780356328636,-79.9234181287561,0.28999999165535,0.0029754638671875,-0.982528686523438,0.176345825195312,-0.00952000194870625,-0.0169598087699516,-0.013914484063446
1492618374.5,40.4780356328636,-79.9234181287561,0.28999999165535,0.0339813232421875,-0.960662841796875,0.171066284179688,-0.0257825951452751,-0.00302108994058589,0.0146708218130285
1492618374.7,40.4780356328636,-79.9234181287561,0.28999999165535,0.0036773681640625,-0.970855712890625,0.178741455078125,0.00193904758968669,-0.0117123161580595,0.00751357638344055
1492618374.9,40.4780356328636,-79.9234181287561,0.28999999165535,0.0033721923828125,-0.981460571289062,0.1749267578125,-0.00292921088297815,0.00214357836140478,-0.0181611607376864
1492618375.1,40.4780356328636,-79.9234181287561,0.28999999165535,0.01519775390625,-0.97454833984375,0.178421020507812,-0.014618623855663,-0.00841878483795849,-0.0257170813824592
1492618375.3,40.4780359430694,-79.9234189532521,0.0,0.0097198486328125,-0.968521118164062,0.179122924804688,-0.00944410185763899,0.0106979180988483,-0.00438915579255959
1492618375.5,40.4780359430694,-79.9234189532521,0.0,0.01434326171875,-0.981246948242188,0.171829223632812,-0.0205508151838145,0.00226501850711239,0.0243066712691532
1492618375.7,40.4780359430694,-79.9234189532521,0.0,0.01025390625,-0.966323852539062,0.1832275390625,-0.0158151821334356,-0.0201113936039514,-0.0225005154178615
1492618375.9,40.4780359430694,-79.9234189532521,0.0,0.0063934326171875,-0.973602294921875,0.176544189453125,-0.0355822290084397,-0.0104015082695225,0.026317890524381
1492618376.1,40.4780359430694,-79.9234189532521,0.0,0.013458251953125,-0.9747314453125,0.173904418945312,-0.0267634373747513,-0.00939856180299864,0.00508131135987119
1492618376.3,40.4780359165332,-79.9234188827215,0.0,-0.0018157958984375,-0.959152221679688,0.18231201171875,-0.0364605395359478,-0.0167808443446983,0.00926593638071269
1492618376.5,40.4780359165332,-79.9234188827215,0.0,0.0081329345703125,-0.976181030273438,0.1734619140625,-0.0213918414560615,-0.014753113490712,-0.00124715833848411
1492618376.7,40.4780359165332,-79.9234188827215,0.0,0.0017242431640625,-0.9713134765625,0.17852783203125,-0.00511060613186206,0.00109455920802257,-0.0149821453444588
1492618376.9,40.4780359165332,-79.9234188827215,0.0,0.019805908203125,-0.971694946289062,0.172271728515625,-0.0222515098559391,0.00865394196221249,-0.00344879361165261
1492618377.1,40.4780359165332,-79.9234188827215,0.0,0.0119476318359375,-0.974029541015625,0.175643920898438,-0.0140092925982528,-0.0105450526522778,0.00628106543095188
1492618377.3,40.47803589003,-79.9234188122787,0.0,0.008544921875,-0.965408325195312,0.181442260742188,-0.00409381122766981,0.00640756558273065,-0.00858816188328753
1492618377.5,40.47803589003,-79.9234188122787,0.0,0.0273284912109375,-0.967453002929688,0.1773681640625,-0.214140255879418,0.00564936362038509,0.00952133352925129
