timestamp,latitude,longitude,speed,accelerometerX,accelerometerY,accelerometerZ,gyroX,gyroY,gyroZ
1492616906.8,40.4630260588978,-79.9309313670545,0.0,0.0023651123046875,-0.9576416015625,0.26153564453125,-0.0112659703593622,0.0107061738982275,-0.0267983247850313
1492616907.0,40.4630260588978,-79.9309313670545,0.0,0.01812744140625,-0.97265625,0.240631103515625,-0.0113844810278707,0.0202826348620435,-0.0129634692381787
1492616907.2,40.4630260588978,-79.9309313670545,0.0,0.0340728759765625,-0.962905883789062,0.239776611328125,-0.0120968766194669,-0.0180016373883906,0.018048242707467
1492616907.4,40.4630260588978,-79.9309313670545,0.0,0.0093841552734375,-0.962188720703125,0.244491577148438,-0.0181363933395486,-0.010519752621922,-0.00335718087015389
1492616907.6,40.4630260588978,-79.9309313670545,0.0,0.00946044921875,-0.960693359375,0.253158569335938,-0.0278681165949162,-0.0264119001108608,-0.00128337732930918
1492616907.8,40.4630260588978,-79.9309313670545,0.0,-0.005523681640625,-0.955474853515625,0.2374267578125,-0.0223021099166506,-0.00198325606378201,-0.00555428876946926
1492616908.0,40.4630260588978,-79.9309313670545,0.0,0.0433197021484375,-0.949844360351562,0.252334594726562,-0.0285040794632271,0.0150758886148296,-0.00992666664716135
1492616908.2,40.4630260588978,-79.9309313670545,0.0,0.0398406982421875,-0.948104858398438,0.2581787109375,-0.030584274590688,0.000195476024011816,-0.0216379175407848
1492616908.4,40.4630260588978,-79.9309313670545,0.0,-0.0041046142578125,-0.95281982421875,0.274993896484375,-0.0213478992980752,-0.014753912439039,-0.00444534849156026
1492616908.6,40.4630260588978,-79.9309313670545,0.0,0.0302734375,-0.932540893554688,0.3546142578125,-0.0150873402075169,-0.0201121925522784,0.0020298613828584
1492616908.8,40.4630260588978,-79.9309313670545,0.0,0.0041961669921875,-0.922988891601562,0.399093627929688,0.000560062777243664,-0.0223377962752576,0.0245863031836115
1492616909.0,40.4630260588978,-79.9309313670545,0.0,-0.0101165771484375,-0.938522338867188,0.4056396484375,-0.0109469236607707,-0.0105634284637993,0.0159083927715883
1492616909.2,40.4630286572878,-79.9309235718846,0.889999985694885,0.0132904052734375,-0.90447998046875,0.437652587890625,-0.00726670135039021,-0.0180397205919787,-0.0234845534406457
1492616909.4,40.4630286572878,-79.9309235718846,0.889999985694885,0.0186004638671875,-0.903945922851562,0.422286987304688,-0.0348365439032175,0.0225630997034783,-0.0100108225376079
1492616909.6,40.4630286572878,-79.9309235718846,0.889999985694885,0.0174713134765625,-0.892562866210938,0.531356811523438,-0.0136910448479884,0.00647014986834751,-0.00762036914315273
1492616909.8,40.4630286572878,-79.9309235718846,0.889999985694885,-0.0128631591796875,-0.9027099609375,0.450759887695312,-0.0919477671638578,-0.0345033824508486,0.00767736079048043
1492616910.0,40.4630286572878,-79.9309235718846,0.889999985694885,0.04071044921875,-0.896240234375,0.447296142578125,-0.00761557545319059,-0.00207620038582577,0.0105895274424821
1492616910.2,40.4630468460177,-79.9309123401343,3.25999999046326,-0.0096282958984375,-0.909469604492188,0.493698120117188,-0.0371990341062268,0.013006878763947,0.00171800521921012
1492616910.4,40.4630468460177,-79.9309123401343,3.25999999046326,0.0653839111328125,-0.900588989257812,0.39593505859375,0.0308785538911417,-0.021477062610944,-0.0113567841525339
1492616910.6,40.4630468460177,-79.9309123401343,3.25999999046326,0.017547607421875,-0.929275512695312,0.464767456054688,-0.0318593961206179,0.00339766091872309,-0.00459981183478486
1492616910.8,40.4630468460177,-79.9309123401343,3.25999999046326,0.0818328857421875,-0.89990234375,0.396392822265625,-0.0126422920107152,-0.00736603725905016,-0.0139712093946647
1492616911.0,40.4630468460177,-79.9309123401343,3.25999999046326,0.04364013671875,-0.9267578125,0.342926025390625,-0.024334900776708,-0.0742979333554666,0.0255317253705897
1492616911.2,40.4630879592527,-79.9308897089957,5.15000009536743,0.00958251953125,-0.912918090820312,0.449127197265625,-0.00855247552468047,-0.00845447119656555,-0.0021981731637514
1492616911.4,40.4630879592527,-79.9308897089957,5.15000009536743,0.05731201171875,-0.89373779296875,0.329498291015625,-0.1018472695679,-0.0610305974369099,0.0161741762483782
1492616911.6,40.4630879592527,-79.9308897089957,5.15000009536743,0.03851318359375,-0.893890380859375,0.381988525390625,-0.102766859092305,-0.0280481462846055,0.0235431429846275
1492616911.8,40.4630879592527,-79.9308897089957,5.15000009536743,0.08856201171875,-0.945907592773438,0.372833251953125,-0.0328769899731372,0.0714752489160916,-0.0485006908241961
1492616912.0,40.4630879592527,-79.9308897089957,5.15000009536743,0.0002593994140625,-0.93890380859375,0.402053833007812,-0.0049540122597654,-0.0340016429014777,0.0320234468437668
1492616912.2,40.46313493982,-79.9308526609837,6.8899998664856,-0.020477294921875,-0.9375,0.375534057617188,-0.0102323975403024,-0.0435421511905775,0.0234643134163611
1492616912.4,40.46313493982,-79.9308526609837,6.8899998664856,0.0340118408203125,-0.93603515625,0.336441040039062,-0.00717748545387255,0.019192070395656,-0.00971894008213517
1492616912.6,40.46313493982,-79.9308526609837,6.8899998664856,0.0405426025390625,-0.950912475585938,0.29425048828125,-0.0225164943844019,0.00653113625731032,0.0146796102446258
1492616912.8,40.46313493982,-79.9308526609837,6.8899998664856,0.047210693359375,-0.909042358398438,0.386795043945312,0.0760034217175534,0.0186495844816069,-0.0184618316247563
1492616913.0,40.46313493982,-79.9308526609837,6.8899998664856,-0.0046844482421875,-0.909820556640625,0.267440795898438,-0.0373329911090578,0.0491664810967159,-0.0463563135144643
1492616913.2,40.4631946189706,-79.9308099132776,8.25,0.018951416015625,-0.888565063476562,0.388259887695312,-0.0840512282156638,-0.00477318362174902,-0.0083117257621373
1492616913.4,40.4631946189706,-79.9308099132776,8.25,0.046295166015625,-0.937225341796875,0.285247802734375,-0.0762572209694379,0.0366608092499218,-0.0104712830900826
1492616913.6,40.4631946189706,-79.9308099132776,8.25,0.01544189453125,-0.946243286132812,0.304977416992188,0.0142090296800088,0.0137328564771026,-0.0190818155265268
1492616913.8,40.4631946189706,-79.9308099132776,8.25,0.101486206054688,-0.931686401367188,0.30633544921875,-0.000586694388144456,0.0382954575270124,-0.0139656167563755
1492616914.0,40.4631946189706,-79.9308099132776,8.25,-0.0062255859375,-0.873397827148438,0.317550659179688,-0.0140865242698651,-0.0169265192563256,0.0084291711662098
1492616914.2,40.4632654041429,-79.9307711888849,9.0,0.051239013671875,-0.967697143554688,0.34722900390625,0.045507031442838,0.0656511819281974,-0.0210277873350476
1492616914.4,40.4632654041429,-79.9307711888849,9.0,0.0222015380859375,-0.93255615234375,0.361312866210938,0.0336746067196159,-0.025745843522232,0.0153382099822024
1492616914.6,40.4632654041429,-79.9307711888849,9.0,-0.0302734375,-0.884689331054688,0.300018310546875,0.0119392174829342,-0.0628327585465665,0.0269397386389146
1492616914.8,40.4632654041429,-79.9307711888849,9.0,-0.010986328125,-0.934722900390625,0.318984985351562,0.0352727696897725,-0.0906425519136099,0.018720690882712
1492616915.0,40.4632654041429,-79.9307711888849,9.0,0.133712768554688,-0.9713134765625,0.20672607421875,-0.0102467786101889,0.134077377712257,-0.111337177796289
1492616915.2,40.4633447388564,-79.9307173770665,9.97000026702881,0.0993804931640625,-0.82818603515625,0.234603881835938,-0.131830202384448,-0.0757269855964031,0.0201699831479331
1492616915.4,40.4633447388564,-79.9307173770665,9.97000026702881,0.136383056640625,-0.931076049804688,0.42852783203125,-0.127453297132903,0.153976783693438,-0.173362732216452
1492616915.6,40.4633447388564,-79.9307173770665,9.97000026702881,0.382186889648438,-1.04884338378906,0.267807006835938,-0.0779512577388373,0.368513850575279,-0.249110756785467
1492616915.8,40.4633447388564,-79.9307173770665,9.97000026702881,0.0294342041015625,-0.917495727539062,0.365142822265625,-0.0496538395762004,0.13858903891496,-0.108553641824938
1492616916.0,40.4633447388564,-79.9307173770665,9.97000026702881,0.0063934326171875,-0.99029541015625,0.34210205078125,-0.033642116154317,0.0821148437870672,-0.064529192160947
1492616916.2,40.4634233611081,-79.930660380125,10.9300003051758,0.0551300048828125,-0.940567016601562,0.347549438476562,-0.0010586065333065,-0.053171342743977,0.0481060103506463
1492616916.4,40.4634233611081,-79.930660380125,10.9300003051758,0.0164337158203125,-0.937301635742188,0.320648193359375,0.0298697484702197,-0.0374283322760826,-0.0241205163089567
1492616916.6,40.4634233611081,-79.930660380125,10.9300003051758,0.04705810546875,-0.93780517578125,0.2962646484375,-0.0528296591761199,-0.0794346384660115,0.0039289615561939
1492616916.8,40.4634233611081,-79.930660380125,10.9300003051758,0.06097412109375,-0.9271240234375,0.304153442382812,-0.0392912134585931,-0.0327238582104576,-0.0259069647681818
1492616917.0,40.4634233611081,-79.930660380125,10.9300003051758,0.149932861328125,-0.921005249023438,0.27532958984375,-0.0211556190673715,0.0628884186133492,-0.0536895938921065
1492616917.2,40.4635070544113,-79.9306067359447,11.8800001144409,0.0438995361328125,-0.968765258789062,0.300872802734375,-0.0175877821549923,0.0469161099755989,-0.0120294986438879
1492616917.4,40.4635070544113,-79.9306067359447,11.8800001144409,-0.066925048828125,-0.9764404296875,0.320404052734375,0.032364864095515,-0.0310535235747599,0.0302654942082055
1492616917.6,40.4635070544113,-79.9306067359447,11.8800001144409,-0.1185302734375,-1.01318359375,0.319488525390625,0.0494213456130365,-0.142852493504068,0.0456556358316644
1492616917.8,40.4635070544113,-79.9306067359447,11.8800001144409,-0.039764404296875,-1.18772888183594,0.318634033203125,0.0485369098150211,-0.0258419836375839,0.0186892655818491
1492616918.0,40.4635070544113,-79.9306067359447,11.8800001144409,-0.061737060546875,-0.876907348632812,0.236648559570312,0.0103983124762144,-0.0234685744741053,0.00549809607046859
1492616918.2,40.4636075115208,-79.9305426982044,12.4899997711182,-0.0622406005859375,-1.01148986816406,0.306655883789062,0.000693220831747626,-0.0202125937253744,0.0160524697865616
1492616918.4,40.4636075115208,-79.9305426982044,12.4899997711182,0.0288543701171875,-1.0408935546875,0.195297241210938,0.000676442916880126,0.0627525973977551,-0.0150820138853367
1492616918.6,40.4636075115208,-79.9305426982044,12.4899997711182,0.0348358154296875,-1.00204467773438,0.382614135742188,-0.0387111769731738,0.0119581259266738,0.0336916509505924
1492616918.8,40.4636075115208,-79.9305426982044,12.4899997711182,-0.021270751953125,-0.94781494140625,0.268951416015625,-0.0373455079661812,0.00130761209522891,0.00601155352863586
1492616919.0,40.4636075115208,-79.9305426982044,12.4899997711182,0.146865844726562,-0.8892822265625,0.23956298828125,-0.0538299424815536,0.0748113908136339,0.0056530920459112
1492616919.2,40.4637246486176,-79.9304660037904,12.8199996948242,-0.2530517578125,-1.2122802734375,0.345672607421875,-0.161739365638801,0.229708030347586,-0.272000892670807
1492616919.4,40.4637246486176,-79.9304660037904,12.8199996948242,-0.280014038085938,-1.08586120605469,0.576187133789062,0.0669047318532976,0.187836746424924,-0.0392496681455878
1492616919.6,40.4637246486176,-79.9304660037904,12.8199996948242,-0.0097808837890625,-1.07307434082031,0.222564697265625,0.0353268318599011,-0.102333030150731,0.0859228978297715
1492616919.8,40.4637246486176,-79.9304660037904,12.8199996948242,0.119155883789062,-0.871307373046875,0.237197875976562,-0.151843325344176,0.104159958658525,-0.053001699382539
1492616920.0,40.4637246486176,-79.9304660037904,12.8199996948242,0.114059448242188,-0.933502197265625,0.180618286132812,-0.0546648434832935,-0.0304907976364262,0.0091149351469052
1492616920.2,40.4638213338707,-79.9304006249457,12.8900003433228,-0.0079498291015625,-0.92987060546875,0.300521850585938,0.0745293620541945,-0.0781304884801997,0.0361497486367356
1492616920.4,40.4638213338707,-79.9304006249457,12.8900003433228,0.105316162109375,-0.938003540039062,0.164901733398438,0.00157366188812782,-0.0850962526274109,0.0716720565206485
1492616920.6,40.4638213338707,-79.9304006249457,12.8900003433228,0.0106201171875,-1.04231262207031,0.141250610351562,0.0571178811633655,0.0443006194690321,-0.0251186690855184
1492616920.8,40.4638213338707,-79.9304006249457,12.8900003433228,0.0457305908203125,-0.879058837890625,0.30059814453125,-0.0208405671104151,-0.0115717012525033,-0.0396334296586682
1492616921.0,40.4638213338707,-79.9304006249457,12.8900003433228,-0.071563720703125,-0.964813232421875,0.154037475585938,-0.0588963401393204,-0.0613017072358799,0.0677928960768391
1492616921.2,40.4639258562033,-79.9303457234799,12.960000038147,-0.0175628662109375,-0.785293579101562,0.228103637695312,-0.166345302744093,0.0670285688439863,-0.0253327872371607
1492616921.4,40.4639258562033,-79.9303457234799,12.960000038147,0.161773681640625,-0.923828125,0.0986175537109375,-0.203348061877981,-0.127361684391404,0.159245048961833
1492616921.6,40.4639258562033,-79.9303457234799,12.960000038147,0.0522003173828125,-0.973175048828125,0.186614990234375,-0.0627872184919261,-0.00703873476107943,-0.00702195684621193
1492616921.8,40.4639258562033,-79.9303457234799,12.960000038147,0.0639495849609375,-1.06365966796875,0.161392211914062,-0.0944969449592816,0.0410238660637986,-0.0757083434687726
1492616922.0,40.4639258562033,-79.9303457234799,12.960000038147,0.019195556640625,-0.81768798828125,0.23028564453125,0.086442214242337,0.0760175364713308,-0.0494232098257995
1492616922.2,40.4640378384296,-79.9302871339767,12.7799997329712,0.163482666015625,-0.893310546875,0.13214111328125,-0.0174929736201855,-0.0679524194261348,0.0735650314234768
1492616922.4,40.4640378384296,-79.9302871339767,12.7799997329712,0.179916381835938,-0.930953979492188,0.216659545898438,-0.0993146033712349,0.124026607758298,-0.0674421577612756
1492616922.6,40.4640378384296,-79.9302871339767,12.7799997329712,0.140899658203125,-0.942764282226562,0.211471557617188,0.001008272788704,-0.0595669241018023,0.0492098906224842
1492616922.8,40.4640378384296,-79.9302871339767,12.7799997329712,0.0579833984375,-0.914703369140625,0.204421997070312,-0.0693188873814545,0.0844807960994936,-0.0243844355729835
1492616923.0,40.4640378384296,-79.9302871339767,12.7799997329712,0.0601654052734375,-1.06941223144531,0.167129516601562,0.0795478228123398,0.0750044699926646,-0.0132399053593289
1492616923.2,40.4641447076951,-79.930242877528,12.5900001525879,-0.111968994140625,-0.98724365234375,0.311172485351562,0.0901027291606509,0.0164396934090591,0.0392637828993652
1492616923.4,40.4641447076951,-79.930242877528,12.5900001525879,0.0696563720703125,-1.05612182617188,0.194107055664062,-0.0364512184721325,-0.0252915082402645,0.00395692474763973
1492616923.6,40.4641447076951,-79.930242877528,12.5900001525879,0.002960205078125,-0.955978393554688,0.180892944335938,-0.00171907048364615,-0.0669888877437441,0.0886510400504487
1492616923.8,40.4641447076951,-79.930242877528,12.5900001525879,0.0768280029296875,-0.995086669921875,0.283172607421875,0.0266909993931011,-0.0405868413289166,0.0504900721584853
1492616924.0,40.4641447076951,-79.930242877528,12.5900001525879,0.016510009765625,-0.93597412109375,0.152389526367188,0.0442247193779648,-0.0758124730673947,-0.00468263614468632
1492616924.2,40.4642526246984,-79.9301878084242,12.6000003814697,-0.14215087890625,-0.908447265625,0.275344848632812,-0.0550022659934065,-0.141108655622284,0.0509792948507328
1492616924.4,40.4642526246984,-79.9301878084242,12.6000003814697,-0.0633392333984375,-0.937332153320312,0.156234741210938,-0.0295839912852542,-0.0253293251277436,0.0466758928452738
1492616924.6,40.4642526246984,-79.9301878084242,12.6000003814697,-0.0786895751953125,-0.889129638671875,0.276626586914062,0.00347808838364348,-0.152126153051942,0.0516064692874465
1492616924.8,40.4642526246984,-79.9301878084242,12.6000003814697,-0.162643432617188,-0.897689819335938,0.26605224609375,-0.120278474840121,-0.137488887068649,0.075890770003443
1492616925.0,40.4642526246984,-79.9301878084242,12.6000003814697,-0.138137817382812,-1.03089904785156,0.203659057617188,-0.0490061587990931,-0.131581196822526,0.00730132244456124
1492616925.2,40.4643560992931,-79.9301348347961,12.5699996948242,0.098175048828125,-0.89349365234375,0.210067749023438,0.0343886002078662,-0.122540830186143,0.065707374627198
1492616925.4,40.4643560992931,-79.9301348347961,12.5699996948242,-0.1142578125,-0.89678955078125,0.239242553710938,-0.0575684880198069,-0.160235478571234,0.07232666151659
1492616925.6,40.4643560992931,-79.9301348347961,12.5699996948242,-0.144515991210938,-0.931793212890625,0.192825317382812,-0.116870693909255,-0.0492295980145507,0.0309169034108389
1492616925.8,40.4643560992931,-79.9301348347961,12.5699996948242,-0.0720062255859375,-1.03929138183594,0.216888427734375,0.028130704278398,-0.124629281112983,0.054986553342975
1492616926.0,40.4643560992931,-79.9301348347961,12.5699996948242,-0.0683441162109375,-0.955551147460938,0.200668334960938,-0.0406560835172587,-0.0837620089212812,0.0456471137161762
1492616926.2,40.4644556343932,-79.9300832022726,12.4399995803833,-0.087799072265625,-1.02020263671875,0.195175170898438,0.0411972378507628,-0.134279511638994,0.106323510728105
1492616926.4,40.4644556343932,-79.9300832022726,12.4399995803833,-0.105606079101562,-0.8125,0.303924560546875,-0.0652439845975242,-0.152736283257679,0.0924867909684898
1492616926.6,40.4644556343932,-79.9300832022726,12.4399995803833,0.0341339111328125,-0.803604125976562,0.220703125,-0.165633972416933,-0.0340216166096533,0.0229149032834778
1492616926.8,40.4644556343932,-79.9300832022726,12.4399995803833,0.144241333007812,-0.972763061523438,0.198379516601562,0.00957433043494387,-0.225552966414844,0.110500146265677
1492616927.0,40.4644556343932,-79.9300832022726,12.4399995803833,0.145187377929688,-0.997848510742188,0.198440551757812,-0.036432310028393,0.123604496725521,-0.148895738649676
1492616927.2,40.4645573906977,-79.9300157279521,12.5799999237061,0.0886688232421875,-0.971298217773438,0.16845703125,-0.0803033616135953,-0.151572748177424,0.104057959588775
1492616927.4,40.4645573906977,-79.9300157279521,12.5799999237061,0.0132904052734375,-0.97955322265625,0.228561401367188,0.0561865737301647,-0.0790721822416517,0.0530238036195866
1492616927.6,40.4645573906977,-79.9300157279521,12.5799999237061,-0.025177001953125,-0.942153930664062,0.2008056640625,0.012672385731033,-0.101130879234669,0.0302447215517029
1492616927.8,40.4645573906977,-79.9300157279521,12.5799999237061,0.0226593017578125,-0.882919311523438,0.215545654296875,-0.0313376828630714,-0.171039656797576,0.095013598210757
1492616928.0,40.4645573906977,-79.9300157279521,12.5799999237061,-0.02911376953125,-0.957473754882812,0.22705078125,-0.0379953192721605,-0.0422968570648565,0.0295741375892209
1492616928.2,40.4646615777542,-79.929949427098,12.8699998855591,-0.1234130859375,-0.962127685546875,0.181686401367188,0.00626668436106546,-0.105344266395283,0.0291237970488885
1492616928.4,40.4646615777542,-79.929949427098,12.8699998855591,-0.0696868896484375,-0.953750610351562,0.276336669921875,0.101956725488703,-0.100645917600166,0.042885948297982
1492616928.6,40.4646615777542,-79.929949427098,12.8699998855591,-0.087249755859375,-1.012939453125,0.198455810546875,0.0163214490566596,-0.104338923083778,0.0729389222511992
1492616928.8,40.4646615777542,-79.929949427098,12.8699998855591,-0.08642578125,-0.937484741210938,0.21392822265625,-0.11452871004664,-0.123701702105309,0.0524573492557268
1492616929.0,40.4646615777542,-79.929949427098,12.8699998855591,0.02801513671875,-1.03375244140625,0.174331665039062,-0.0278816987164756,0.148028613398746,-0.0603754598087504
1492616929.2,40.4647697881241,-79.9298893288522,13.1000003814697,0.007476806640625,-0.969833374023438,0.245101928710938,0.0589663812759895,-0.00677108707152646,-0.0324314431227669
1492616929.4,40.4647697881241,-79.9298893288522,13.1000003814697,0.064453125,-0.990829467773438,0.169647216796875,-0.0399711184848903,0.0555724487827925,-0.00588372179631206
1492616929.6,40.4647697881241,-79.9298893288522,13.1000003814697,0.07086181640625,-0.913375854492188,0.222152709960938,-0.120755979623572,-0.111961156439694,0.0470322237991264
1492616929.8,40.4647697881241,-79.9298893288522,13.1000003814697,0.046966552734375,-0.909591674804688,0.20281982421875,0.0363497520346005,-0.17360215039845,0.127699639533736
1492616930.0,40.4647697881241,-79.9298893288522,13.1000003814697,0.0078582763671875,-0.899169921875,0.18695068359375,-0.0786873554641352,-0.124994400498433,0.0784167782973832
1492616930.2,40.4648826504503,-79.9298245367407,13.1999998092651,-0.09454345703125,-1.02241516113281,0.280197143554688,-0.0381298089072095,-0.046549659009604,0.0370472339240923
1492616930.4,40.4648826504503,-79.9298245367407,13.1999998092651,0.009307861328125,-0.990676879882812,0.242202758789062,-0.0208618723991357,0.0245982874085169,-0.0184027094485565
1492616930.6,40.4648826504503,-79.9298245367407,13.1999998092651,0.055023193359375,-0.956436157226562,0.182464599609375,-0.0181190827924631,-0.0179667499781106,-0.00866885566431693
1492616930.8,40.4648826504503,-79.9298245367407,13.1999998092651,0.04180908203125,-1.03012084960938,0.208450317382812,0.0442319099129081,0.0337475773334841,-0.023090938231532
1492616931.0,40.4648826504503,-79.9298245367407,13.1999998092651,-0.0194854736328125,-0.991348266601562,0.22698974609375,0.0147818756304848,-0.0628471396164529,0.0525580167449318
1492616931.2,40.4649953451384,-79.9297551345825,13.25,-0.118728637695312,-1.00831604003906,0.17327880859375,-0.0119008679632371,-0.158403490057368,0.0823854209538192
1492616931.4,40.4649953451384,-79.9297551345825,13.25,0.065277099609375,-0.992095947265625,0.219100952148438,0.0684789263736435,0.108047108585605,-0.0422262832959694
1492616931.6,40.4649953451384,-79.9297551345825,13.25,0.0608978271484375,-0.968658447265625,0.138107299804688,0.017812020318777,0.0232789574044916,-0.04359248493518
1492616931.8,40.4649953451384,-79.9297551345825,13.25,0.030670166015625,-1.02311706542969,0.1416015625,0.0300921224212413,0.0487363805806681,0.00657960578914977
1492616932.0,40.4649953451384,-79.9297551345825,13.25,0.0460662841796875,-0.92059326171875,0.0880889892578125,0.020634704758152,0.00305251524144882,-0.0275181772276798
1492616932.2,40.4651032202323,-79.9296889175474,13.0900001525879,-0.0018768310546875,-0.887237548828125,0.164398193359375,-0.0359771757980984,0.018316156713129,-0.00681289870064071
1492616932.4,40.4651032202323,-79.9296889175474,13.0900001525879,0.0102996826171875,-0.958267211914062,0.224884033203125,-0.0079386168934172,0.00110867396179999,-0.0416664868348347
1492616932.6,40.4651032202323,-79.9296889175474,13.0900001525879,-0.0208892822265625,-1.02278137207031,0.116744995117188,0.0306929315631632,-0.0767794668592024,0.0495582320930665
1492616932.8,40.4651032202323,-79.9296889175474,13.0900001525879,-0.0434722900390625,-0.957260131835938,0.14825439453125,-0.00375532345312073,-0.105273958942505,0.0610074279354262
1492616933.0,40.4651032202323,-79.9296889175474,13.0900001525879,0.110702514648438,-0.983474731445312,0.170196533203125,-0.0149491221469418,0.162836055375696,-0.0634799066914557
1492616933.2,40.4652099218596,-79.92962982513,12.8000001907349,-0.032379150390625,-0.99163818359375,0.185638427734375,0.0591626562483283,0.0655521123356464,-0.0848605628709389
1492616933.4,40.4652099218596,-79.92962982513,12.8000001907349,-0.026885986328125,-0.9403076171875,0.1260986328125,0.00388475308209858,-0.0244885651716056,0.0139637525436125
1492616933.6,40.4652099218596,-79.92962982513,12.8000001907349,0.04315185546875,-1.02934265136719,0.157363891601562,0.0414425149871591,0.07205821487871,-0.0317480759870526
1492616933.8,40.4652099218596,-79.92962982513,12.8000001907349,-0.0525360107421875,-1.03140258789062,0.165496826171875,-0.0704960045832695,0.0408859143193325,0.0375564303245154
1492616934.0,40.4652099218596,-79.92962982513,12.8000001907349,-0.0701446533203125,-0.997589111328125,0.151107788085938,0.0192610462678891,-0.0224664269559085,-0.0189366732471174
1492616934.2,40.4653143603732,-79.9295691401511,12.6099996566772,0.001068115234375,-0.952423095703125,0.185165405273438,-0.029070800143196,0.0384776177455738,-0.0334495696075042
1492616934.4,40.4653143603732,-79.9295691401511,12.6099996566772,-0.0479278564453125,-0.96844482421875,0.214599609375,-0.0053742590797799,-0.0106025769318235,-0.00216008996016327
1492616934.6,40.4653143603732,-79.9295691401511,12.6099996566772,-0.02642822265625,-0.923492431640625,0.1978759765625,0.0208205934022395,-0.0203422896704613,0.0237223737259898
1492616934.8,40.4653143603732,-79.9295691401511,12.6099996566772,-0.0843505859375,-0.9600830078125,0.288482666015625,-0.0337704805188588,0.0129818450497003,-0.0153062520491214
1492616935.0,40.4653143603732,-79.9295691401511,12.6099996566772,0.0009613037109375,-0.990524291992188,0.286026000976562,-0.0316058631848424,0.0501883360069793,-0.0750880932508931
1492616935.2,40.4654179187868,-79.9295095448195,12.6499996185303,0.0473175048828125,-0.931533813476562,0.183700561523438,-0.0958258623432311,-0.0110787501347296,-0.00734979197640068
1492616935.4,40.4654179187868,-79.9295095448195,12.6499996185303,0.144989013671875,-0.941680908203125,0.149429321289062,-0.0100867226286751,0.0649515695098335,-0.00560195935298168
1492616935.6,40.4654179187868,-79.9295095448195,12.6499996185303,0.04217529296875,-0.936752319335938,0.168243408203125,-0.0390781605713867,-0.0199619902667979,-0.0344674297761325
1492616935.8,40.4654179187868,-79.9295095448195,12.6499996185303,0.0523681640625,-0.949478149414062,0.24554443359375,-0.0799941686110371,0.0398704509956853,-0.0467691034834265
1492616936.0,40.4654179187868,-79.9295095448195,12.6499996185303,0.149688720703125,-1.02728271484375,0.145538330078125,0.025879534208954,0.143417616287383,-0.100329267746555
1492616936.2,40.4655219801147,-79.9294496980309,12.8199996948242,0.0810089111328125,-1.05645751953125,0.160446166992188,-0.120768230164586,0.0529050266349691,-0.0173662071522977
1492616936.4,40.4655219801147,-79.9294496980309,12.8199996948242,0.0630035400390625,-0.898330688476562,0.275588989257812,0.0432057939449005,0.0252433050245341,-0.0305429955937918
1492616936.6,40.4655219801147,-79.9294496980309,12.8199996948242,0.020172119140625,-0.974563598632812,0.138534545898438,-0.183175948201176,0.0437317682601912,-0.0531665490540149
1492616936.8,40.4655219801147,-79.9294496980309,12.8199996948242,0.095428466796875,-0.928634643554688,0.2393798828125,0.0095317198575026,0.0679976931646662,-0.114162791712863
1492616937.0,40.4655219801147,-79.9294496980309,12.8199996948242,0.073577880859375,-0.942153930664062,0.232986450195312,0.0290833170003193,0.00938125125591312,-0.0189182974355959
1492616937.2,40.4656281788279,-79.9293901865184,12.9700002670288,0.153884887695312,-0.849334716796875,0.173385620117188,-0.0377753421661199,-0.156103850456085,0.106637497420626
1492616937.4,40.4656281788279,-79.9293901865184,12.9700002670288,0.197555541992188,-1.03964233398438,0.187164306640625,0.00636016131532724,-0.222340395191881,0.113657590054075
1492616937.6,40.4656281788279,-79.9293901865184,12.9700002670288,-0.062957763671875,-0.925827026367188,0.242568969726562,0.0191380082255274,-0.0947909579436264,0.0281621295792609
1492616937.8,40.4656281788279,-79.9293901865184,12.9700002670288,-0.100265502929688,-0.986099243164062,0.2906494140625,-0.0461853385724812,-0.135837993508909,0.109697735829236
1492616938.0,40.4656281788279,-79.9293901865184,12.9700002670288,0.0367889404296875,-0.97271728515625,0.178787231445312,-0.123851904390789,0.00717988229885363,-0.0503324130219526
1492616938.2,40.4657365987454,-79.9293269869684,12.9700002670288,-0.0725555419921875,-0.996856689453125,0.179534912109375,-0.0611240743911717,0.111014136356062,-0.0638189270982228
1492616938.4,40.4657365987454,-79.9293269869684,12.9700002670288,0.141830444335938,-1.01066589355469,0.169830322265625,-0.0420142956731991,0.178962028408344,-0.100049902148206
1492616938.6,40.4657365987454,-79.9293269869684,12.9700002670288,0.21234130859375,-0.923629760742188,0.191375732421875,-0.0650509054184935,0.142937714658951,-0.148172424097611
1492616938.8,40.4657365987454,-79.9293269869684,12.9700002670288,0.0807647705078125,-1.0377197265625,0.197341918945312,-0.0442939615663069,0.0353888835132999,-0.0122731778836302
1492616939.0,40.4657365987454,-79.9293269869684,12.9700002670288,-0.023101806640625,-0.909088134765625,0.233123779296875,0.0261330671447295,-0.136319759350104,0.0390030594286465
1492616939.2,40.4658453958486,-79.9292678945511,12.8900003433228,-0.062286376953125,-0.97344970703125,0.22705078125,0.0708936145340183,-0.0185406611930226,0.0231641751615092
1492616939.4,40.4658453958486,-79.9292678945511,12.8900003433228,-0.04852294921875,-1.04083251953125,0.212020874023438,0.010016947808115,-0.122383703681828,0.0569277314615338
1492616939.6,40.4658453958486,-79.9292678945511,12.8900003433228,-0.0596771240234375,-0.960205078125,0.24725341796875,0.0613690852114589,-0.0705937425952754,0.0679819805142347
1492616939.8,40.4658453958486,-79.9292678945511,12.8900003433228,0.0585174560546875,-0.880859375,0.130569458007812,-0.0355103236590076,-0.176357456862246,-0.0692123609378513
1492616940.0,40.4658453958486,-79.9292678945511,12.8900003433228,0.0193328857421875,-1.05479431152344,0.223953247070312,-0.0836187308546349,-0.239846151985299,0.0648018998565711
1492616940.2,40.4659515945618,-79.9291991629451,13.0600004196167,-0.03082275390625,-1.05201721191406,0.26873779296875,-0.00340192197646722,-0.0393364871971244,-0.00633060022722736
1492616940.4,40.4659515945618,-79.9291991629451,13.0600004196167,0.128219604492188,-0.9344482421875,0.226760864257812,-0.0199816976588645,0.0618156973262652,-0.0622045188454168
1492616940.6,40.4659515945618,-79.9291991629451,13.0600004196167,0.183456420898438,-0.956069946289062,0.219039916992188,-0.0569391830542211,0.149272575943922,-0.115053086465276
1492616940.8,40.4659515945618,-79.9291991629451,13.0600004196167,0.1302490234375,-0.9329833984375,0.110092163085938,-0.0434401521208275,-0.0603448334562145,0.0284987531410469
1492616941.0,40.4659515945618,-79.9291991629451,13.0600004196167,0.06182861328125,-0.967910766601562,0.17071533203125,0.0225993186943034,-0.117144200553206,0.0741024573314548
1492616941.2,40.4660518002142,-79.9291374721377,13.1000003814697,0.078582763671875,-0.955291748046875,0.160446166992188,0.0158567274464408,-0.191563041422163,0.0592984774639223
1492616941.4,40.4660518002142,-79.9291374721377,13.1000003814697,-0.00372314453125,-0.975082397460938,0.196609497070312,0.0582521214716302,-0.122701152483766,0.0339656902267616
1492616941.6,40.4660518002142,-79.9291374721377,13.1000003814697,-0.143447875976562,-0.9915771484375,0.138916015625,0.0118806279389525,-0.0628316932821305,0.0312039921763494
1492616941.8,40.4660518002142,-79.9291374721377,13.1000003814697,-0.128036499023438,-0.943939208984375,0.204757690429688,-0.00129962261195867,-0.0286992891711299,0.0789605957919774
1492616942.0,40.4660518002142,-79.9291374721377,13.1000003814697,-0.021881103515625,-0.96905517578125,0.232467651367188,-0.0251807207389172,0.0224994501534254,-0.0152428688151775
1492616942.2,40.4661557358135,-79.9290718418359,12.8400001525879,-0.0997161865234375,-1.0872802734375,0.128997802734375,0.171561636371232,-0.0117554593677188,-0.0142063665189187
1492616942.4,40.4661557358135,-79.9290718418359,12.8400001525879,-0.132781982421875,-0.95166015625,0.22918701171875,0.0123607958834938,-0.107508084780973,0.0494498414367003
1492616942.6,40.4661557358135,-79.9290718418359,12.8400001525879,0.065673828125,-0.9285888671875,0.130996704101562,-0.0445131397240204,0.110911072021876,-0.0327283855843108
1492616942.8,40.4661557358135,-79.9290718418359,12.8400001525879,-0.040679931640625,-0.941802978515625,0.205963134765625,0.0130992904537727,-0.0904880885703853,0.0824661147348486
1492616943.0,40.4661557358135,-79.9290718418359,12.8400001525879,-0.076416015625,-1.03781127929688,0.139205932617188,0.0309371434351235,0.0253295914438526,0.00984730444667699
1492616943.2,40.4662600485985,-79.9290109053998,12.6700000762939,-0.0680389404296875,-0.953231811523438,0.178329467773438,0.0307011873625425,0.113605392096709,-0.0799449001308706
1492616943.4,40.4662600485985,-79.9290109053998,12.6700000762939,-0.201736450195312,-1.00634765625,0.218841552734375,0.0452271332122707,-0.149196409536746,0.114932977900114
1492616943.6,40.4662600485985,-79.9290109053998,12.6700000762939,-0.180770874023438,-0.9583740234375,0.17108154296875,-0.111665811874804,0.0858171703344954,-0.0418808713025861
1492616943.8,40.4662600485985,-79.9290109053998,12.6700000762939,-0.0113525390625,-0.954696655273438,0.165847778320312,-0.0998930419600002,-0.00892691597394561,-0.0201915547527628
1492616944.0,40.4662600485985,-79.9290109053998,12.6700000762939,-0.020355224609375,-0.994979858398438,0.255218505859375,-0.0567548923067877,-0.065571020779386,0.0646271964890619
1492616944.2,40.4663628526409,-79.9289524835347,12.6800003051758,-0.0097808837890625,-0.9791259765625,0.15032958984375,0.0533178166039314,-0.0577935251319186,-0.0366224597302246
1492616944.4,40.4663628526409,-79.9289524835347,12.6800003051758,0.0204925537109375,-0.953826904296875,0.220993041992188,-0.035358523476873,-0.0391284943159892,-0.00559210565694838
1492616944.6,40.4663628526409,-79.9289524835347,12.6800003051758,-0.0216827392578125,-1.02786254882812,0.210220336914062,0.00755432274811877,-0.013879862969275,-0.0148138335635658
1492616944.8,40.4663628526409,-79.9289524835347,12.6800003051758,-0.0130615234375,-1.04518127441406,0.1812744140625,0.0836437645688817,-0.0611757397163192,0.0020804614435699
1492616945.0,40.4663628526409,-79.9289524835347,12.6800003051758,-0.057830810546875,-1.00424194335938,0.193511962890625,0.0313861523949108,-0.120395920244193,0.0528765308113053
1492616945.2,40.4664664110546,-79.9288852606713,12.6000003814697,-0.0957183837890625,-1.07415771484375,0.256500244140625,0.0605546905501127,-0.103569535844855,0.0318074644793614
1492616945.4,40.4664664110546,-79.9288852606713,12.6000003814697,-0.0078582763671875,-1.04888916015625,0.2147216796875,0.0600771857666615,-0.0897437350457082,-0.0034181672591167
1492616945.6,40.4664664110546,-79.9288852606713,12.6000003814697,-0.046630859375,-0.900253295898438,0.215362548828125,-0.049808569235534,-0.051793156879861,0.0316101242425865
1492616945.8,40.4664664110546,-79.9288852606713,12.6000003814697,-0.116302490234375,-0.979339599609375,0.152069091796875,0.0222629614486264,-0.123533390324416,0.0176061579665138
1492616946.0,40.4664664110546,-79.9288852606713,12.6000003814697,-0.10333251953125,-0.826126098632812,0.188201904296875,-0.137902475985938,0.0125927572144397,-0.032364597779406
1492616946.2,40.4665731126819,-79.9288142659514,12.6999998092651,-0.037078857421875,-0.776657104492188,0.265533447265625,-0.000685231348477388,-0.0255314590544806,-0.0415234750842975
1492616946.4,40.4665731126819,-79.9288142659514,12.6999998092651,0.0142974853515625,-1.00076293945312,0.2762451171875,0.0191611777270111,-0.00650743412360862,-0.00298566989808783
1492616946.6,40.4665731126819,-79.9288142659514,12.6999998092651,0.179336547851562,-0.946075439453125,0.0652008056640625,-0.00924196793090198,0.155347779022611,-0.0953885712922401
1492616946.8,40.4665731126819,-79.9288142659514,12.6999998092651,0.14190673828125,-1.01168823242188,0.183059692382812,-0.00215929101183625,-0.122311532016287,0.0130881051771944
1492616947.0,40.4665731126819,-79.9288142659514,12.6999998092651,-0.01959228515625,-0.895904541015625,0.203414916992188,-0.0812264132474168,-0.131368410251429,0.0272289579332972
1492616947.2,40.4666772578288,-79.928754838258,12.8500003814697,-0.0796661376953125,-0.938858032226562,0.170303344726562,0.00817643717876128,-0.117056049921125,0.0387695002010465
1492616947.4,40.4666772578288,-79.928754838258,12.8500003814697,0.03485107421875,-0.983688354492188,0.219100952148438,0.0196647814891451,-0.123511019771259,0.0516983483450542
1492616947.6,40.4666772578288,-79.928754838258,12.8500003814697,0.1109619140625,-1.0687255859375,0.193283081054688,0.0478623311109041,0.0124550717860826,0.0111200291316259
1492616947.8,40.4666772578288,-79.928754838258,12.8500003814697,0.0214385986328125,-0.94451904296875,0.185317993164062,-0.0577160271441972,0.00355691795190983,-0.0603080818331714
1492616948.0,40.4666772578288,-79.928754838258,12.8500003814697,-0.054412841796875,-0.912322998046875,0.21673583984375,0.0505092469183338,-0.0311720342432685,0.0272529263831079
1492616948.2,40.4667790979524,-79.9286883697658,12.789999961853,0.190078735351562,-0.979751586914062,0.172271728515625,0.0275519993735238,-0.0852701570465931,0.0410182734255094
1492616948.4,40.4667790979524,-79.9286883697658,12.789999961853,0.011474609375,-0.968460083007812,0.165557861328125,0.00344799466332559,-0.0670330962178395,0.0225987860620854
1492616948.6,40.4667790979524,-79.9286883697658,12.789999961853,0.078948974609375,-0.898391723632812,0.188446044921875,-0.105940015531134,0.108115285509511,-0.0589392170328706
1492616948.8,40.4667790979524,-79.9286883697658,12.789999961853,0.117340087890625,-0.992416381835938,0.177169799804688,-0.0655268123052906,0.0918958355226012,-0.0638146660404787
1492616949.0,40.4667790979524,-79.9286883697658,12.789999961853,0.189224243164062,-0.977523803710938,0.216094970703125,-0.027460652948134,0.0278350933973992,-0.00141919854490323
1492616949.2,40.4668816086282,-79.9286197219788,12.9200000762939,-0.0061187744140625,-0.949356079101562,0.18505859375,-0.0108409298493856,-0.00948910928006133,0.086276831938643
1492616949.4,40.4668816086282,-79.9286197219788,12.9200000762939,0.130035400390625,-0.986465454101562,0.19134521484375,-0.0222115624395879,0.0490780641485252,0.0156391471853813
1492616949.6,40.4668816086282,-79.9286197219788,12.9200000762939,0.13995361328125,-0.985748291015625,0.142227172851562,0.0048128647219912,0.042514703642025,-0.0171198647514654
1492616949.8,40.4668816086282,-79.9286197219788,12.9200000762939,0.146377563476562,-1.03883361816406,0.19793701171875,0.0626545930696402,0.0687297961483289,-0.027257453756961
1492616950.0,40.4668816086282,-79.9286197219788,12.9200000762939,0.0842132568359375,-1.02525329589844,0.206192016601562,-0.00621954640977105,0.126607210854585,-0.0984820992144762
1492616950.2,40.4669830296565,-79.9285504874586,12.9399995803833,0.246353149414062,-1.00938415527344,0.167877197265625,0.0119815617442665,0.107351490908876,-0.0385380715023186
1492616950.4,40.4669830296565,-79.9285504874586,12.9399995803833,0.0557708740234375,-0.996047973632812,0.129730224609375,0.0795677965205154,0.0367068819367802,-0.0355313626316192
1492616950.6,40.4669830296565,-79.9285504874586,12.9399995803833,0.184112548828125,-1.00221252441406,0.166656494140625,-0.00902332240540647,-0.00739453308271401,-0.0448542906596596
1492616950.8,40.4669830296565,-79.9285504874586,12.9399995803833,0.1209716796875,-0.859268188476562,0.242050170898438,-0.0578707568035309,-0.128315628693871,0.11169111190516
1492616951.0,40.4669830296565,-79.9285504874586,12.9399995803833,-0.020172119140625,-0.968948364257812,0.17041015625,-0.100653374451218,-0.00678546814141289,0.0363044782960692
1492616951.2,40.467093880326,-79.9284882937371,12.9700002670288,0.0472869873046875,-0.995849609375,0.191421508789062,0.0404070779553362,0.060362676635518,-0.0402582072504008
1492616951.4,40.467093880326,-79.9284882937371,12.9700002670288,0.13134765625,-0.94427490234375,0.26971435546875,-0.111600564428098,0.0613483125549563,-0.0599426961316125
1492616951.6,40.467093880326,-79.9284882937371,12.9700002670288,0.1221923828125,-0.912582397460938,0.273818969726562,-0.112260495746219,0.111347031492322,-0.062210910432033
1492616951.8,40.467093880326,-79.9284882937371,12.9700002670288,0.126876831054688,-0.917083740234375,0.27117919921875,0.0243615323876088,0.0583402721037118,-0.0361524117978257
1492616952.0,40.467093880326,-79.9284882937371,12.9700002670288,0.240493774414062,-0.961471557617188,0.236785888671875,-0.0629797650387389,0.0876315819851663,-0.0189965943716442
1492616952.2,40.4672036832575,-79.9284278602152,13.3400001525879,0.307449340820312,-1.05007934570312,0.235382080078125,-0.128875425155005,-0.162951103934787,0.145172373129636
1492616952.4,40.4672036832575,-79.9284278602152,13.3400001525879,0.185897827148438,-1.10993957519531,0.267181396484375,-0.0151523213381148,0.217081717303411,-0.0966746117826394
1492616952.6,40.4672036832575,-79.9284278602152,13.3400001525879,-0.0240631103515625,-0.99725341796875,0.18634033203125,-0.0297666841360337,0.148050451319685,-0.000686829245131436
1492616952.8,40.4672036832575,-79.9284278602152,13.3400001525879,0.11761474609375,-0.789337158203125,0.24884033203125,-0.0503425330340949,-0.0156138471550256,0.0901530629052534
1492616953.0,40.4672036832575,-79.9284278602152,13.3400001525879,0.224517822265625,-1.00407409667969,0.099853515625,-0.0782692391729928,-0.0771304714908749,0.0740326825108947
1492616953.2,40.4673161264886,-79.9283720367401,13.5500001907349,0.098114013671875,-1.02639770507812,0.218460083007812,-0.0426736943591027,-0.0571548991025176,0.0519550770741378
1492616953.4,40.4673161264886,-79.9283720367401,13.5500001907349,0.036407470703125,-1.07901000976562,0.263320922851562,0.0370451033952202,0.0731522414545145,-0.0211337811464328
1492616953.6,40.4673161264886,-79.9283720367401,13.5500001907349,0.032562255859375,-0.977493286132812,0.226119995117188,-0.0317009380357582,0.0225433923114117,-0.00571381211876501
1492616953.8,40.4673161264886,-79.9283720367401,13.5500001907349,0.119415283203125,-0.957473754882812,0.198440551757812,-0.0592004731358074,-0.165537299669363,0.110707340198485
1492616954.0,40.4673161264886,-79.9283720367401,13.5500001907349,-0.073699951171875,-0.860244750976562,0.141143798828125,-0.120567161502285,0.0348165701950419,-0.0418403912540169
1492616954.2,40.4674230795731,-79.9283043109625,13.3100004196167,0.0252532958984375,-1.02978515625,0.156387329101562,0.0177513002459232,-0.196879243590179,0.151026001205631
1492616954.4,40.4674230795731,-79.9283043109625,13.3100004196167,-0.176559448242188,-0.972503662109375,0.1976318359375,-0.0249538194140425,0.120353575982861,-0.0560092072015655
1492616954.6,40.4674230795731,-79.9283043109625,13.3100004196167,-0.103240966796875,-0.964141845703125,0.15521240234375,0.025442775790181,-0.213953035654786,0.124493459897389
1492616954.8,40.4674230795731,-79.9283043109625,13.3100004196167,-0.037811279296875,-0.991836547851562,0.215118408203125,0.0516317693178022,-0.0280010083333111,-0.0527098169270663
1492616955.0,40.4674230795731,-79.9283043109625,13.3100004196167,-0.148208618164062,-0.70355224609375,0.24090576171875,-0.195622231555661,-0.104036121667836,-0.00280058020232733
1492616955.2,40.4675333435093,-79.9282435421645,13.5299997329712,-0.001708984375,-0.877334594726562,0.106033325195312,0.0697836089916733,-0.0791701865697666,-0.00654471837886973
1492616955.4,40.4675333435093,-79.9282435421645,13.5299997329712,-0.0683441162109375,-0.93035888671875,0.203048706054688,0.0254065567993559,-0.08738364168768,0.0410017618267509
1492616955.6,40.4675333435093,-79.9282435421645,13.5299997329712,0.0803375244140625,-1.05850219726562,0.131591796875,-0.0811768784511413,0.10156817028566,-0.0821254964314275
1492616955.8,40.4675333435093,-79.9282435421645,13.5299997329712,0.168289184570312,-0.992874145507812,0.214340209960938,-0.0278318976040911,0.161844826817968,-0.133979373384142
1492616956.0,40.4675333435093,-79.9282435421645,13.5299997329712,0.130859375,-0.7764892578125,0.214279174804688,0.16286188803827,0.029779467309266,-0.0559849724356457
1492616956.2,40.467648846135,-79.9281722121685,13.8299999237061,0.11383056640625,-0.884201049804688,0.1346435546875,-0.102296811159906,0.253791262401281,-0.244799098980629
1492616956.4,40.467648846135,-79.9281722121685,13.8299999237061,0.24261474609375,-0.932464599609375,0.167984008789062,-0.111583520197121,0.167704313848361,-0.158308681522561
1492616956.6,40.467648846135,-79.9281722121685,13.8299999237061,-0.197265625,-0.95697021484375,0.18719482421875,0.0115426727966214,-0.202160025715697,0.134982852482884
1492616956.8,40.467648846135,-79.9281722121685,13.8299999237061,-0.03997802734375,-1.00054931640625,0.164627075195312,-0.0709561988196352,0.0238608581026739,-0.0157150472764486
1492616957.0,40.467648846135,-79.9281722121685,13.8299999237061,0.0927276611328125,-0.993972778320312,0.09783935546875,-0.0632982791051123,-0.142108672611609,0.111671138196985
1492616957.2,40.4677618760992,-79.9281103537231,13.8699998855591,-0.133102416992188,-0.991989135742188,0.225662231445312,0.000180562321907372,-0.125520641129833,-0.0039390815683362
1492616957.4,40.4677618760992,-79.9281103537231,13.8699998855591,-0.438690185546875,-0.975021362304688,0.106155395507812,-0.0293831889390623,-0.302950552963054,0.113499664601433
1492616957.6,40.4677618760992,-79.9281103537231,13.8699998855591,-0.30609130859375,-0.927886962890625,0.24603271484375,0.108882009587345,-0.31662615147672,0.0413817949143052
1492616957.8,40.4677618760992,-79.9281103537231,13.8699998855591,0.02044677734375,-1.0009765625,0.2484130859375,0.118859009979108,0.081132669977046,-0.00325731232927592
1492616958.0,40.4677618760992,-79.9281103537231,13.8699998855591,0.103179931640625,-0.99688720703125,0.144058227539062,-0.00883743376131894,-0.00738547833500774,0.0191204313623329
1492616958.2,40.4677618760992,-79.9281103537231,13.8699998855591,0.0720977783203125,-0.943618774414062,0.196426391601562,-0.0100672815527175,-0.00205649299375919,0.0340210839774352
1492616958.4,40.4678717209403,-79.9280379340797,13.7799997329712,-0.0375518798828125,-0.987258911132812,0.28936767578125,-0.0310255603833141,-0.0891442574843313,0.0393623198596982
1492616958.6,40.4678717209403,-79.9280379340797,13.7799997329712,0.05035400390625,-0.995498657226562,0.176406860351562,0.0303850701411501,0.0253271945988716,-0.0274758329663475
1492616958.8,40.4678717209403,-79.9280379340797,13.7799997329712,0.0603179931640625,-0.937484741210938,0.167572021484375,-0.0400882975728538,0.0438726494818564,-0.00372230025560375
1492616959.0,40.4678717209403,-79.9280379340797,13.7799997329712,-0.04803466796875,-0.924224853515625,0.157516479492188,0.0400371648799242,-0.0832203219555591,0.0635313057004943
1492616959.2,40.467989738137,-79.9279663526266,14.1000003814697,-0.01568603515625,-0.968048095703125,0.232437133789062,-0.0268899375265301,-0.0242896270381767,0.00618465899949102
1492616959.4,40.467989738137,-79.9279663526266,14.1000003814697,-0.109542846679688,-1.01022338867188,0.23199462890625,-0.0697647005479337,-0.0750579995305752,0.0762468346411866
1492616959.6,40.467989738137,-79.9279663526266,14.1000003814697,-0.0742034912109375,-0.971298217773438,0.176345825195312,-0.0481108040406085,0.0630676493547115,-0.029443110063589
1492616959.8,40.467989738137,-79.9279663526266,14.1000003814697,0.117828369140625,-0.916015625,0.20733642578125,-0.00571381211876501,-0.0382555101106612,0.00750372268740726
1492616960.0,40.467989738137,-79.9279663526266,14.1000003814697,-0.07440185546875,-0.948867797851562,0.220169067382812,-0.00932612382134848,-0.0743967366319086,0.0182221471266492
1492616960.2,40.4681063304101,-79.9278979562967,14.25,-0.0278472900390625,-0.927337646484375,0.270736694335938,-0.0363526815117996,-0.0316761706376205,-0.00668773012940698
1492616960.4,40.4681063304101,-79.9278979562967,14.25,0.0750732421875,-1.0059814453125,0.192581176757812,0.00814208240069926,0.0520533477183618,-0.0992088758759588
1492616960.6,40.4681063304101,-79.9278979562967,14.25,0.135238647460938,-0.980880737304688,0.182266235351562,0.00425466615751059,0.083988643930047,-0.108927017009767
1492616960.8,40.4681063304101,-79.9278979562967,14.25,0.036834716796875,-1.00837707519531,0.145904541015625,0.0466218306751452,-0.0343425275210078,-0.00156647135318461
1492616961.0,40.4681063304101,-79.9278979562967,14.25,0.0080718994140625,-0.85076904296875,0.261795043945312,-0.141691088952685,-0.0756596076208241,0.0403269168065249
1492616961.2,40.4682247247924,-79.9278314039856,14.1599998474121,-0.135986328125,-0.925140380859375,0.20989990234375,0.00898417393738231,-0.106420183475675,0.0632732453908656
1492616961.4,40.4682247247924,-79.9278314039856,14.1599998474121,-0.026824951171875,-0.981857299804688,0.153564453125,-0.0161680509778711,0.00117125824741685,0.0147584398128921
1492616961.6,40.4682247247924,-79.9278314039856,14.1599998474121,0.0003204345703125,-1.04536437988281,0.151336669921875,0.0561157336451686,-0.031224232200634,-0.070781229136017
1492616961.8,40.4682247247924,-79.9278314039856,14.1599998474121,-0.063995361328125,-1.04541015625,0.250152587890625,0.024737837049637,-0.000163784407039873,-0.0178719414433038
1492616962.0,40.4682247247924,-79.9278314039856,14.1599998474121,0.284042358398438,-1.27883911132812,0.117919921875,0.0331920419300936,-0.181041158271369,0.04345559845515
1492616962.2,40.468333312348,-79.9277557153999,14.2600002288818,0.0696563720703125,-0.923065185546875,0.29296875,0.0261072344821558,-0.0416276046829196,0.169902753328221
1492616962.4,40.468333312348,-79.9277557153999,14.2600002288818,-0.0024566650390625,-0.92730712890625,0.2198486328125,-0.0119743712093233,-0.04459915982723,-0.00533857272117284
1492616962.6,40.468333312348,-79.9277557153999,14.2600002288818,0.108352661132812,-0.759857177734375,0.183074951171875,-0.0942559288806294,0.0633595318101842,-0.0810945867734578
1492616962.8,40.468333312348,-79.9277557153999,14.2600002288818,0.0081634521484375,-0.927902221679688,0.196334838867188,-0.0783861519448473,-0.155825550122171,0.194716756785035
1492616963.0,40.468333312348,-79.9277557153999,14.2600002288818,0.0589141845703125,-0.93951416015625,0.219635009765625,-0.00432124518476257,0.229774875690947,-0.102993760417179
1492616963.2,40.468447138593,-79.9276789371669,14.210000038147,0.156112670898438,-0.909469604492188,0.180648803710938,-0.0606870496562896,0.00464987926327835,0.0014990933776056
1492616963.4,40.468447138593,-79.9276789371669,14.210000038147,0.098358154296875,-0.978103637695312,0.16180419921875,-0.0304143649131409,-0.0370285917964617,0.0232408742009035
1492616963.6,40.468447138593,-79.9276789371669,14.210000038147,0.043609619140625,-1.04927062988281,0.1531982421875,-0.00270470640308447,-0.0414643529080977,0.0192711662800314
1492616963.8,40.468447138593,-79.9276789371669,14.210000038147,-0.01568603515625,-1.08016967773438,0.219940185546875,-0.121133083233927,-0.0268742248760986,-0.0342234842202813
1492616964.0,40.468447138593,-79.9276789371669,14.210000038147,0.150375366210938,-1.05441284179688,0.21014404296875,-0.032636506526703,0.0299946507253444,-0.0110736901286585
1492616964.2,40.4685529182111,-79.9276038353144,14.0500001907349,0.1507568359375,-0.890777587890625,0.246292114257812,-0.0537990498129087,-0.0719703305627374,0.0785347563336737
1492616964.4,40.4685529182111,-79.9276038353144,14.0500001907349,0.046295166015625,-1.00294494628906,0.223922729492188,-0.0777951964989587,-0.0686285960269059,0.04416160246013
1492616964.6,40.4685529182111,-79.9276038353144,14.0500001907349,0.066131591796875,-0.903457641601562,0.149490356445312,0.0315906831666289,-0.125706263457811,0.112600315101313
1492616964.8,40.4685529182111,-79.9276038353144,14.0500001907349,0.10662841796875,-1.03424072265625,0.167434692382812,0.0439549411595398,0.0592840963940359,0.0109591742017851
1492616965.0,40.4685529182111,-79.9276038353144,14.0500001907349,0.085784912109375,-1.01564025878906,0.243927001953125,0.0130138029827812,0.0392736365953985,0.00429674410273384
1492616965.2,40.4686708934982,-79.9275293201952,13.9899997711182,0.0638275146484375,-0.897232055664062,0.179901123046875,-0.0428971335745603,0.102383630211442,-0.077470823478187
1492616965.4,40.4686708934982,-79.9275293201952,13.9899997711182,0.178604125976562,-0.887710571289062,0.0762939453125,-0.0156561914163578,0.121360250874911,-0.0345923320312572
1492616965.6,40.4686708934982,-79.9275293201952,13.9899997711182,0.0315399169921875,-0.980819702148438,0.1956787109375,-0.0525747946597993,0.0396952149959581,-0.0272960695927672
1492616965.8,40.4686708934982,-79.9275293201952,13.9899997711182,0.118377685546875,-0.949371337890625,0.176162719726562,-0.0408422384774552,0.123647373619071,-0.0604452346293105
1492616966.0,40.4686708934982,-79.9275293201952,13.9899997711182,0.103912353515625,-1.02761840820312,0.167098999023438,0.0539950584691385,0.0134819867024171,0.0303720206518087
1492616966.2,40.4687856836621,-79.9274662044644,13.9799995422363,0.144515991210938,-0.942108154296875,0.195587158203125,-0.0437706504121063,0.11091000675744,-0.00926407216794964
1492616966.4,40.4687856836621,-79.9274662044644,13.9799995422363,0.245223999023438,-0.92547607421875,0.276779174804688,0.0657246851742835,-0.061036456391308,0.14370310715624
1492616966.6,40.4687856836621,-79.9274662044644,13.9799995422363,-0.224044799804688,-0.974212646484375,0.326614379882812,-0.0238126548869435,-0.184918987134633,0.0823318914159087
1492616966.8,40.4687856836621,-79.9274662044644,13.9799995422363,-0.0723114013671875,-1.02561950683594,0.1884765625,-0.00345891362379491,0.175517229538326,-0.117771907622138
1492616967.0,40.4687856836621,-79.9274662044644,13.9799995422363,0.0417633056640625,-1.02276611328125,0.168502807617188,0.036901825328574,0.0359089988741924,-0.108468686986164
1492616967.2,40.468900306188,-79.9274170865118,13.8100004196167,0.0181121826171875,-1.037353515625,0.32244873046875,0.0129885029524255,0.0222531077525931,-0.00312308901033592
1492616967.4,40.468900306188,-79.9274170865118,13.8100004196167,0.048431396484375,-0.978729248046875,0.23187255859375,-0.0437765093665045,-0.0199263039081909,-0.00252920408724825
1492616967.6,40.468900306188,-79.9274170865118,13.8100004196167,0.03948974609375,-1.02619934082031,0.264602661132812,0.0798647389820592,0.0898920731184256,-0.0282020769956121
1492616967.8,40.468900306188,-79.9274170865118,13.8100004196167,-0.049774169921875,-0.9466552734375,0.16192626953125,-0.0451669457716349,0.0375199450175813,-0.0250821837785843
1492616968.0,40.468900306188,-79.9274170865118,13.8100004196167,-0.0423736572265625,-0.904571533203125,0.220077514648438,0.102614259961843,0.12803679572774,-0.0355310963155102
1492616968.2,40.4690223047887,-79.9273580779135,14.1400003433228,0.0781097412109375,-1.03199768066406,0.200042724609375,0.0570859232302845,0.0517478831413297,-0.0187409309069966
1492616968.4,40.4690223047887,-79.9273580779135,14.1400003433228,0.176788330078125,-1.06729125976562,0.153366088867188,0.00187752856850586,0.121240408625857,-0.0706637837319445
1492616968.6,40.4690223047887,-79.9273580779135,14.1400003433228,0.0357666015625,-0.957794189453125,0.223297119140625,0.0104036387983945,-0.0149581768946481,0.00974104431918283
1492616968.8,40.4690223047887,-79.9273580779135,14.1400003433228,0.166107177734375,-1.03547668457031,0.101898193359375,-0.00893703598608791,0.162788917424402,-0.113530290953969
1492616969.0,40.4690223047887,-79.9273580779135,14.1400003433228,0.126815795898438,-0.942611694335938,0.200973510742188,0.0270385419153565,-0.0586779609299339,0.0153552542131789
1492616969.2,40.4691476561506,-79.9273054395615,14.2299995422363,0.126800537109375,-1.00502014160156,0.135894775390625,-0.0550110544250038,-0.0687817277895855,0.0134750624835829
1492616969.4,40.4691476561506,-79.9273054395615,14.2299995422363,0.10382080078125,-0.932830810546875,0.192794799804688,-0.00805979072301581,0.00642993613588731,-0.0299531054123392
1492616969.6,40.4691476561506,-79.9273054395615,14.2299995422363,0.0748748779296875,-1.10171508789062,0.156967163085938,-0.0210474947271142,0.00440167264968297,0.0616135633995282
1492616969.8,40.4691476561506,-79.9273054395615,14.2299995422363,-0.121795654296875,-0.868759155273438,0.197189331054688,0.0361385633601572,0.159300176396398,-0.140781353124314
1492616970.0,40.4691476561506,-79.9273054395615,14.2299995422363,0.0682373046875,-0.757583618164062,0.18359375,0.00814075082015422,0.131839257132155,-0.0557000141990073
1492616970.2,40.4692730075125,-79.9272559025138,14.3000001907349,0.210128784179688,-1.08763122558594,0.006927490234375,-0.00147805440499398,-0.0329512921675504,0.0896318822799249
1492616970.4,40.4692730075125,-79.9272559025138,14.3000001907349,-0.055938720703125,-0.970260620117188,0.370635986328125,0.0673335007888004,-0.202527808262237,0.104634800280886
1492616970.6,40.4692730075125,-79.9272559025138,14.3000001907349,0.0415496826171875,-0.972900390625,0.132217407226562,-0.0281203179501467,-0.0944788354638691,0.0575314700806548
1492616970.8,40.4692730075125,-79.9272559025138,14.3000001907349,-0.0711517333984375,-0.960113525390625,0.241531372070312,-0.0475864276219719,-0.130518329231475,0.059557603037987
1492616971.0,40.4692730075125,-79.9272559025138,14.3000001907349,0.054931640625,-0.965423583984375,0.2027587890625,-0.0299917212481454,0.0225247501837812,-0.0526096820700793
1492616971.2,40.4693934554611,-79.9272087123989,14.289999961853,0.014678955078125,-0.892837524414062,0.156219482421875,-0.0847010395216432,-0.0249737931222181,0.0279850293667707
1492616971.4,40.4693934554611,-79.9272087123989,14.289999961853,0.0640716552734375,-0.950485229492188,0.145095825195312,-0.0883088238503735,-0.0143198171813561,-0.0136617500759975
1492616971.6,40.4693934554611,-79.9272087123989,14.289999961853,-0.039154052734375,-0.968353271484375,0.21478271484375,-0.00960442415526176,-0.0860936064556456,0.0321102658953034
1492616971.8,40.4693934554611,-79.9272087123989,14.289999961853,0.027618408203125,-0.989227294921875,0.127716064453125,-0.0341547746641572,0.0587203051912661,-0.0399511447767147
1492616972.0,40.4693934554611,-79.9272087123989,14.289999961853,0.070556640625,-0.972335815429688,0.168182373046875,-0.078107052662607,0.00369140758695883,-0.0487888448541426
1492616972.2,40.4695147835095,-79.9271543976664,14.0100002288818,-0.018341064453125,-0.990234375,0.167617797851562,-0.0300375276188947,-0.0434183141998888,-0.00765898497895888
1492616972.4,40.4695147835095,-79.9271543976664,14.0100002288818,0.0223388671875,-1.03422546386719,0.166748046875,-0.0305549798186971,0.0235988030514101,-0.0110358732411794
1492616972.6,40.4695147835095,-79.9271543976664,14.0100002288818,0.0033111572265625,-0.996780395507812,0.2156982421875,-0.0451003667443829,0.00347675680309845,-0.0484503570795936
1492616972.8,40.4695147835095,-79.9271543976664,14.0100002288818,-0.041534423828125,-0.959442138671875,0.15704345703125,-0.0237197105648997,-0.0275013993128123,0.00622540536416923
1492616973.0,40.4695147835095,-79.9271543976664,14.0100002288818,0.128936767578125,-0.965896606445312,0.1505126953125,-0.01062228432389,0.107488910021124,-0.0984778381567321
1492616973.2,40.4696394643192,-79.9270974845439,13.5699996948242,0.123077392578125,-0.877914428710938,0.166168212890625,-0.0272760958845916,0.0257165487502412,0.0614947864149107
1492616973.4,40.4696394643192,-79.9270974845439,13.5699996948242,-0.0019073486328125,-0.925537109375,0.197509765625,-0.015661251422429,-0.0828666541627966,0.0096494315776841
1492616973.6,40.4696394643192,-79.9270974845439,13.5699996948242,0.0229644775390625,-0.97186279296875,0.194686889648438,0.0286305796150059,-0.000184823379651499,0.00882331900754152
1492616973.8,40.4696394643192,-79.9270974845439,13.5699996948242,0.0167083740234375,-0.94744873046875,0.220474243164062,-0.0367060829884531,-0.0508059230637687,0.0861186401698923
1492616974.0,40.4696394643192,-79.9270974845439,13.5699996948242,-0.0567169189453125,-0.96136474609375,0.176193237304688,0.0308220948760321,-0.0576332028342958,0.0505763585778038
1492616974.2,40.4697555536781,-79.9270413257926,13.5699996948242,0.021759033203125,-1.01217651367188,0.201629638671875,-0.0196490688387136,-0.075384769396328,0.0714297088614513
1492616974.4,40.4697555536781,-79.9270413257926,13.5699996948242,-0.021148681640625,-0.97845458984375,0.220489501953125,-0.0214323215046307,-0.0721857802949248,0.0479464870013506
1492616974.6,40.4697555536781,-79.9270413257926,13.5699996948242,-0.0942840576171875,-1.04621887207031,0.134445190429688,-0.0477496793967937,-0.0709543346068721,0.026349582141353
1492616974.8,40.4697555536781,-79.9270413257926,13.5699996948242,0.016693115234375,-1.02348327636719,0.283706665039062,0.0145568385183731,-0.118161261773508,0.0388376771249526
1492616975.0,40.4697555536781,-79.9270413257926,13.5699996948242,-0.0005340576171875,-1.051025390625,0.221389770507812,-0.0118545289602697,-0.0637499512259898,-0.0244797767400084
1492616975.2,40.469872774594,-79.9269937165826,12.9799995422363,0.105377197265625,-0.952301025390625,0.141250610351562,0.00317422170326544,0.0148729557397655,0.00959004308537534
1492616975.4,40.469872774594,-79.9269937165826,12.9799995422363,0.0422515869140625,-0.99542236328125,0.142868041992188,-0.0488951049816368,0.0269123080796867,0.00795965586602883
1492616975.6,40.469872774594,-79.9269937165826,12.9799995422363,0.113784790039062,-0.969772338867188,0.14410400390625,0.0125610655974677,0.0414094917896421,0.0384054460800327
1492616975.8,40.469872774594,-79.9269937165826,12.9799995422363,0.0698089599609375,-0.914077758789062,0.134780883789062,-0.0695604360923247,-0.0133730634138329,0.0174479661977631
1492616976.0,40.469872774594,-79.9269937165826,12.9799995422363,0.038726806640625,-0.953521728515625,0.171127319335938,0.00383947934356724,-0.0266153656181429,0.0161012056345101
1492616976.2,40.4699805658688,-79.9269436766207,12.8599996566772,0.119140625,-1.00086975097656,0.118270874023438,0.0280366946919182,-0.0246416969342852,0.0387343464746575
1492616976.4,40.4699805658688,-79.9269436766207,12.8599996566772,-0.0152130126953125,-0.935989379882812,0.146392822265625,-0.00571114895767493,-0.0222983814911245,0.0159922823459258
1492616976.6,40.4699805658688,-79.9269436766207,12.8599996566772,0.052581787109375,-0.958221435546875,0.141220092773438,-0.0714342362353044,-0.0027257453756961,0.00460673605361907
1492616976.8,40.4699805658688,-79.9269436766207,12.8599996566772,0.023406982421875,-0.983169555664062,0.212661743164062,-0.0538858688644453,0.043961865378374,-0.00706243689478113
1492616977.0,40.4699805658688,-79.9269436766207,12.8599996566772,0.093902587890625,-0.92572021484375,0.184326171875,0.0463203608397482,-0.0407074825262972,0.0944061311661099
1492616977.2,40.4700852558394,-79.926904868409,12.5900001525879,0.02093505859375,-1.01405334472656,0.170364379882812,-0.0159070611910433,-0.0264925938918902,-0.0192863462982448
1492616977.4,40.4700852558394,-79.926904868409,12.5900001525879,0.065460205078125,-0.985015869140625,0.112716674804688,-0.0286758533535372,0.0214618825927306,0.00604830515167896
1492616977.6,40.4700852558394,-79.926904868409,12.5900001525879,0.0446929931640625,-0.994384765625,0.076629638671875,-0.0780005262190038,0.0217742713885969,-0.0467019918239565
1492616977.8,40.4700852558394,-79.926904868409,12.5900001525879,0.01483154296875,-1.02903747558594,0.0535736083984375,-0.000127299100105788,0.0350956694772822,-0.049137718956943
1492616978.0,40.4700852558394,-79.926904868409,12.5900001525879,0.0107421875,-0.966293334960938,0.10205078125,-0.0554792381446397,-0.00495694173696449,0.0047758467828391
1492616978.2,40.4701786721502,-79.9268517271429,11.9700002670288,0.07745361328125,-0.961578369140625,0.082672119140625,-0.0311283584013912,0.00125674571840839,-0.0589637181148994
1492616978.4,40.4701786721502,-79.9268517271429,11.9700002670288,0.0831298828125,-0.9840087890625,0.114410400390625,-0.0326604749765138,0.0385055809370197,-0.0046986151112268
1492616978.6,40.4701786721502,-79.9268517271429,11.9700002670288,0.003875732421875,-0.994171142578125,0.10418701171875,-0.0273048580243644,0.0193217663407429,-0.0173888440215634
1492616978.8,40.4701786721502,-79.9268517271429,11.9700002670288,0.07537841796875,-0.984359741210938,0.1119384765625,-0.0401442239557454,0.0364269837062128,-0.0037036581279732
1492616979.0,40.4701786721502,-79.9268517271429,11.9700002670288,-0.0353240966796875,-0.983734130859375,0.14129638671875,-0.0374879870845004,-0.0274127160485126,0.000753141956274409
1492616979.2,40.470277117603,-79.9268119131028,11.0,0.060516357421875,-0.975357055664062,0.1197509765625,-0.00335265349630075,0.00427890092343031,0.0138154144708951
1492616979.4,40.470277117603,-79.9268119131028,11.0,-0.001800537109375,-1.00967407226562,0.115402221679688,-0.0130963609765737,-0.0307616411192873,0.00634258445213271
1492616979.6,40.470277117603,-79.9268119131028,11.0,-0.018310546875,-0.99432373046875,0.14703369140625,0.0304378007307336,-0.0235966725225381,0.0195643803160491
1492616979.8,40.470277117603,-79.9268119131028,11.0,0.054107666015625,-0.97943115234375,0.1083984375,-0.0220744096434488,0.034182205223385,-0.0024466460934558
1492616980.0,40.470277117603,-79.9268119131028,11.0,0.0826263427734375,-0.99957275390625,0.080291748046875,0.0242211837981617,-0.0299411211874339,0.00352389475439285
1492616980.2,40.4703646665816,-79.9267752841859,10.1499996185303,-0.009979248046875,-0.955169677734375,0.129730224609375,0.0160841614035336,0.0169150676636383,0.00118723721395732
1492616980.4,40.4703646665816,-79.9267752841859,10.1499996185303,0.021392822265625,-0.955413818359375,0.110610961914062,-0.0690437828408493,0.0164042733665611,-0.00394786999993346
1492616980.6,40.4703646665816,-79.9267752841859,10.1499996185303,0.0144805908203125,-0.936843872070312,0.0822906494140625,-0.0447786568847013,-0.025239576599008,-0.00998925093277821
1492616980.8,40.4703646665816,-79.9267752841859,10.1499996185303,-0.0025787353515625,-1.02815246582031,0.1351318359375,-0.00935941333497447,-0.0573751425246671,0.0299062337771538
1492616981.0,40.4703646665816,-79.9267752841859,10.1499996185303,-0.0495452880859375,-0.966552734375,0.137680053710938,-0.0324434273476723,0.0342463874056559,-0.0228110400009647
1492616981.2,40.4704492399846,-79.9267409183829,9.10000038146973,0.023834228515625,-1.02706909179688,0.13616943359375,0.0215676100880067,-0.00865394196221249,-0.0242797733421434
1492616981.4,40.4704492399846,-79.9267409183829,9.10000038146973,0.0192413330078125,-0.970443725585938,0.140945434570312,0.00210815831890672,-0.0106515790958809,-0.00421578400559543
1492616981.6,40.4704492399846,-79.9267409183829,9.10000038146973,-0.01885986328125,-1.01840209960938,0.163986206054688,-0.0205654625698099,-0.0328405046662031,0.0062714780510276
1492616981.8,40.4704492399846,-79.9267409183829,9.10000038146973,0.0481719970703125,-0.972549438476562,0.167129516601562,-0.00279338966738411,0.0202259095308248,-0.0182064344762177
1492616982.0,40.4704492399846,-79.9267409183829,9.10000038146973,0.0169830322265625,-1.0426025390625,0.130203247070312,-0.0296194113277523,-0.0189582448519471,-0.0247772518337702
1492616982.2,40.470515163653,-79.9267058820277,8.28999996185303,-0.0367889404296875,-0.8851318359375,0.194808959960938,-0.0307315473989694,0.0618868037273703,-0.054851264759599
1492616982.4,40.470515163653,-79.9267058820277,8.28999996185303,0.07843017578125,-0.98974609375,0.151214599609375,-0.0495294699532937,-0.0900830217685843,0.0679630720704951
1492616982.6,40.470515163653,-79.9267058820277,8.28999996185303,-0.139358520507812,-0.955154418945312,0.131057739257812,-0.0183302714669064,0.0235133155804186,-0.0482279831285719
1492616982.8,40.470515163653,-79.9267058820277,8.28999996185303,0.003997802734375,-0.906753540039062,0.138748168945312,-0.0207979565329738,0.0214056898937299,-0.0247911002714386
1492616983.0,40.470515163653,-79.9267058820277,8.28999996185303,0.107131958007812,-0.968612670898438,0.181625366210938,-0.0396475444124457,0.0576941892232586,-0.0282763791900253
1492616983.2,40.4705873737489,-79.9266748689859,8.14000034332275,0.0482330322265625,-1.02957153320312,0.201400756835938,0.0229159685479138,-0.0118574584374688,-0.0466481959699369
1492616983.4,40.4705873737489,-79.9266748689859,8.14000034332275,0.0261077880859375,-0.928466796875,0.214462280273438,-0.0237029326500322,-0.0519569412869009,0.0691953167068748
1492616983.6,40.4705873737489,-79.9266748689859,8.14000034332275,-0.0702056884765625,-0.974014282226562,0.216506958007812,-0.00965049684212014,-0.0382336721897226,-0.0159933476103619
1492616983.8,40.4705873737489,-79.9266748689859,8.14000034332275,-0.00567626953125,-0.9437255859375,0.201858520507812,-0.0284854373355965,-0.0136473690061111,-0.0269117754474687
1492616984.0,40.4705873737489,-79.9266748689859,8.14000034332275,-0.000946044921875,-1.00975036621094,0.171310424804688,0.00319153225035096,-0.0159779012760394,-0.00845580277711059
1492616984.2,40.4706584103782,-79.9266415090113,8.18000030517578,0.012451171875,-0.937057495117188,0.251235961914062,-0.0101991080266765,-0.0488618154680108,0.0181473123000179
1492616984.4,40.4706584103782,-79.9266415090113,8.18000030517578,0.0326080322265625,-0.95330810546875,0.288253784179688,-0.0012032161804978,0.00107325391930193,0.0106470517220278
1492616984.6,40.4706584103782,-79.9266415090113,8.18000030517578,0.020050048828125,-1.01481628417969,0.259857177734375,0.0125850340472784,-0.025611087571074,0.0001949433917938
1492616984.8,40.4706584103782,-79.9266415090113,8.18000030517578,0.0485992431640625,-0.958938598632812,0.2171630859375,0.00796791166540807,-0.0362149960834425,0.020433103463633
1492616985.0,40.4706584103782,-79.9266415090113,8.18000030517578,0.062286376953125,-0.967056274414062,0.069122314453125,-0.0161427509475153,-0.0286159322290104,-0.00329006921068389
1492616985.2,40.4707284830887,-79.9266043771803,8.21000003814697,0.103363037109375,-1.01420593261719,0.10797119140625,-0.0209529525084164,-0.0551735072514986,0.0223183551993
1492616985.4,40.4707284830887,-79.9266043771803,8.21000003814697,0.0504608154296875,-0.938568115234375,0.0450592041015625,-0.018753714080229,0.013946708312636,-0.022618493454152
1492616985.6,40.4707284830887,-79.9266043771803,8.21000003814697,-0.0061798095703125,-1.01370239257812,-0.0212860107421875,0.0194482664925217,-0.0320317026431461,0.0397317003028922
1492616985.8,40.4707284830887,-79.9266043771803,8.21000003814697,-0.005615234375,-1.00387573242188,-0.053802490234375,-0.0279693167163392,-0.0242824365032335,0.00723980342338041
1492616986.0,40.4707284830887,-79.9266043771803,8.21000003814697,0.0266571044921875,-1.01483154296875,-0.0305023193359375,-0.00718813809823287,0.0021712752367416,-0.0182048365795637
1492616986.2,40.4708001902704,-79.9265783094614,7.30000019073486,0.0326385498046875,-0.983551025390625,-0.03662109375,-0.00347249574535432,-0.0116760971672344,0.0138553618872462
1492616986.4,40.4708001902704,-79.9265783094614,7.30000019073486,0.019500732421875,-1.01023864746094,-0.0328216552734375,-0.0535761432296691,-0.0273067222371275,0.00911786462410429
1492616986.6,40.4708001902704,-79.9265783094614,7.30000019073486,0.0306549072265625,-1.00541687011719,-0.0737152099609375,0.0132308506116227,0.0116105834044185,-0.026549851855327
1492616986.8,40.4708001902704,-79.9265783094614,7.30000019073486,0.0002593994140625,-1.05558776855469,-0.003082275390625,-0.0067252807007771,-0.0350581189059121,0.00535268747495026
1492616987.0,40.4708001902704,-79.9265783094614,7.30000019073486,0.0162353515625,-1.02540588378906,-0.0201416015625,0.0195313571185321,-0.000131293841740906,-0.0264550433205201
1492616987.2,40.4708423931529,-79.9265593663602,4.8600001335144,0.023040771484375,-1.04649353027344,-0.0402984619140625,-0.0247298475663668,-0.0221764087131988,0.00513510721389079
1492616987.4,40.4708423931529,-79.9265593663602,4.8600001335144,0.05322265625,-1.01728820800781,-0.06060791015625,-0.0165776451535252,0.0298891895461773,-0.0173062860277709
1492616987.6,40.4708423931529,-79.9265593663602,4.8600001335144,-0.0075836181640625,-1.02859497070312,-0.0268402099609375,-0.00132971633227656,-0.0138178113158761,0.0117503993616476
1492616987.8,40.4708423931529,-79.9265593663602,4.8600001335144,-0.0009613037109375,-1.00035095214844,0.0381011962890625,-0.0140758716255048,-0.0350115135868357,-0.00218618893884605
1492616988.0,40.4708423931529,-79.9265593663602,4.8600001335144,0.0174407958984375,-0.981964111328125,0.074005126953125,-0.0111892713199679,-0.0350266936050492,0.020233899014095
1492616988.2,40.4708661558483,-79.9265483022481,2.57999992370605,0.023773193359375,-0.994766235351562,0.0649566650390625,-0.0150274190829901,-0.0179856584218501,-0.00117365509239792
1492616988.4,40.4708661558483,-79.9265483022481,2.57999992370605,0.0353546142578125,-0.988967895507812,0.081329345703125,-0.0108310761533523,-0.000991228557727492,0.0126862341687015
1492616988.6,40.4708661558483,-79.9265483022481,2.57999992370605,0.036529541015625,-0.996856689453125,0.093841552734375,-0.00966381264757053,-0.00100001698932475,0.00523470943865975
1492616988.8,40.4708661558483,-79.9265483022481,2.57999992370605,0.0227203369140625,-1.00138854980469,0.0948944091796875,-0.0151632402985842,-0.0126641299316538,0.0116057897144563
1492616989.0,40.4708661558483,-79.9265483022481,2.57999992370605,0.032470703125,-0.987625122070312,0.103500366210938,-0.0148236872595991,0.0032868734173758,-0.00442510846727566
1492616989.2,40.4708822071929,-79.9265391659736,1.46000003814697,0.028411865234375,-0.990859985351562,0.124603271484375,-0.0240813678409325,-0.00410339860759409,-0.0322223849771957
1492616989.4,40.4708822071929,-79.9265391659736,1.46000003814697,0.045989990234375,-0.96820068359375,0.176406860351562,-0.0250648732314988,0.0086677903998809,-0.0311991984863873
1492616989.6,40.4708822071929,-79.9265391659736,1.46000003814697,0.0386962890625,-0.960235595703125,0.229736328125,-0.0183880620625611,-0.0030684942079893,0.0190115080737487
1492616989.8,40.4708822071929,-79.9265391659736,1.46000003814697,0.0197601318359375,-0.958953857421875,0.219879150390625,-0.00241575342481088,-0.00104475809563809,0.0202360295429671
1492616990.0,40.4708822071929,-79.9265391659736,1.46000003814697,0.0603485107421875,-0.962966918945312,0.230606079101562,-0.0117706393859322,0.0117791615014205,0.0105112305064337
1492616990.2,40.4708968336139,-79.9265219830721,0.920000016689301,0.006561279296875,-0.968582153320312,0.224517822265625,-0.0194501307052847,-0.033912160688851,0.00202080663515213
1492616990.4,40.4708968336139,-79.9265219830721,0.920000016689301,0.011199951171875,-0.961822509765625,0.256256103515625,-0.0161307667226099,-0.0211694675050399,-0.000110521185238288
1492616990.6,40.4708968336139,-79.9265219830721,0.920000016689301,0.02410888671875,-0.962615966796875,0.313262939453125,0.00322349018343191,0.0116806245410875,0.00426771564685198
1492616990.8,40.4708968336139,-79.9265219830721,0.920000016689301,0.0181121826171875,-0.92486572265625,0.3681640625,-0.00642833823923327,0.00642514244592517,0.00631488757679589
1492616991.0,40.4708968336139,-79.9265219830721,0.920000016689301,0.0112762451171875,-0.93505859375,0.360946655273438,-0.0311661752888703,-0.0168149328066513,0.0114526579517768
1492616991.2,40.4709025752176,-79.9265172053873,1.55999994277954,-0.0027618408203125,-0.932815551757812,0.370895385742188,-0.0278801008198215,-0.0104545051752151,0.0082712457135681
1492616991.4,40.4709025752176,-79.9265172053873,1.55999994277954,-0.0082855224609375,-0.93841552734375,0.36175537109375,-0.0184905937645292,-0.0147685598250344,0.0201068662300982
1492616991.6,40.4709025752176,-79.9265172053873,1.55999994277954,0.0052337646484375,-0.935333251953125,0.364501953125,0.00902864872758663,-0.0426047184868696,0.0172618112375666
1492616991.8,40.4709025752176,-79.9265172053873,1.55999994277954,0.04345703125,-0.916519165039062,0.342071533203125,-0.0167512832565984,-0.0413706096377269,0.0340541071749522
1492616992.0,40.4709025752176,-79.9265172053873,1.55999994277954,0.0017242431640625,-0.934829711914062,0.428421020507812,-0.0123405558592092,-0.0328905720946966,0.0276800974219566
1492616992.2,40.4709252901752,-79.9265093263983,3.10999989509583,0.0398406982421875,-0.91595458984375,0.404876708984375,0.0266574435633662,0.0785358215981097,-0.0372472373219572
1492616992.4,40.4709252901752,-79.9265093263983,3.10999989509583,0.048004150390625,-0.925796508789062,0.387771606445312,0.0189427985176246,-0.0277796996467255,0.00133184686114863
1492616992.6,40.4709252901752,-79.9265093263983,3.10999989509583,0.00738525390625,-0.913681030273438,0.385009765625,-0.0420007135516397,0.0162234447285447,-0.0345907341346032
1492616992.8,40.4709252901752,-79.9265093263983,3.10999989509583,0.0420074462890625,-0.950973510742188,0.383026123046875,-0.0204229834514907,-0.00412017652246159,0.0115298896233891
1492616993.0,40.4709252901752,-79.9265093263983,3.10999989509583,0.0252227783203125,-0.920989990234375,0.390029907226562,0.00515721145093844,-0.0202440190262373,0.00117125824741685
1492616993.2,40.4709632601966,-79.9264966697245,4.90999984741211,0.0416107177734375,-0.906982421875,0.287246704101562,-0.0601762553592124,-0.0496013753027258,0.0123064673972562
1492616993.4,40.4709632601966,-79.9264966697245,4.90999984741211,-0.00732421875,-0.95758056640625,0.36798095703125,0.014352840378873,0.0445807840157084,-0.0127626668919867
1492616993.6,40.4709632601966,-79.9264966697245,4.90999984741211,0.0012054443359375,-0.91815185546875,0.308074951171875,-0.0205215204118236,0.00226448587489438,0.0221745445004358
1492616993.8,40.4709632601966,-79.9264966697245,4.90999984741211,0.0016632080078125,-0.921844482421875,0.338821411132812,0.0156340871793102,-0.0469054573312386,-0.000785099889355359
1492616994.0,40.4709632601966,-79.9264966697245,4.90999984741211,-0.0559539794921875,-0.982498168945312,0.251327514648438,-0.0835683971100324,-0.0334924465010545,0.0184226831567321
1492616994.2,40.4710141802584,-79.9264754635095,6.40000009536743,0.066986083984375,-0.981109619140625,0.226242065429688,0.012938435523932,0.0637302438339232,-0.0544089137025369
1492616994.4,40.4710141802584,-79.9264754635095,6.40000009536743,0.0535736083984375,-0.918991088867188,0.219619750976562,-0.0482490221011836,-0.0379670897646057,0.0806362567498552
1492616994.6,40.4710141802584,-79.9264754635095,6.40000009536743,0.045745849609375,-1.00015258789062,0.163131713867188,0.0164743145032302,0.00839747954923785,-0.0318394224124423
1492616994.8,40.4710141802584,-79.9264754635095,6.40000009536743,0.00909423828125,-0.966995239257812,0.165512084960938,-0.00831012786548325,-0.00739506571493203,-0.019257850474581
1492616995.0,40.4710141802584,-79.9264754635095,6.40000009536743,0.01812744140625,-0.999496459960938,0.164505004882812,-0.0171701984960679,0.00755991538640793,0.0136654785015236
1492616995.2,40.471064681225,-79.9264544249325,6.80000019073486,-0.00897216796875,-0.951766967773438,0.102493286132812,-0.0286324438277689,-0.0540571101225374,0.0392962734646642
1492616995.4,40.471064681225,-79.9264544249325,6.80000019073486,-0.022705078125,-1.0111083984375,0.11370849609375,-0.0214184730669623,-0.0104973820687653,0.00300644255459045
1492616995.6,40.471064681225,-79.9264544249325,6.80000019073486,-0.0491485595703125,-1.00434875488281,0.0310821533203125,-0.0213612151035256,-0.036029906387682,-0.0150527191133459
1492616995.8,40.471064681225,-79.9264544249325,6.80000019073486,0.0816192626953125,-1.04573059082031,0.049560546875,-0.0325784496149393,-0.0455246083060325,0.021108214799968
1492616996.0,40.471064681225,-79.9264544249325,6.80000019073486,-0.0482330322265625,-0.9813232421875,0.076934814453125,-0.025006816319735,-0.0434476089718797,0.0137168775105621
1492616996.2,40.4711166909341,-79.9264285248517,5.44000005722046,0.090484619140625,-1.03363037109375,0.0972137451171875,-0.0198357564311282,0.0214006298876587,-0.0173177376204583
1492616996.4,40.4711166909341,-79.9264285248517,5.44000005722046,0.0164642333984375,-0.968292236328125,0.1197509765625,-0.0465885411615192,0.00561900358395818,-0.0164847008314815
1492616996.6,40.4711166909341,-79.9264285248517,5.44000005722046,0.0146636962890625,-0.976654052734375,0.0879669189453125,-0.0117120498419505,7.61664071762662e-05,-0.000120108565162574
1492616996.8,40.4711166909341,-79.9264285248517,5.44000005722046,0.0821685791015625,-1.00447082519531,0.100814819335938,-0.0415250729809515,-0.0635462194025987,0.0423874045419192
1492616997.0,40.4711166909341,-79.9264285248517,5.44000005722046,-0.0207977294921875,-0.972030639648438,0.108688354492188,0.0112899388091729,-0.0192171041099028,0.0204232497675997
1492616997.2,40.4711591871832,-79.9264109228551,4.46000003814697,0.0012664794921875,-0.987777709960938,0.130416870117188,-0.0188368047062395,-0.0413575601483855,0.0308340791009374
1492616997.4,40.4711591871832,-79.9264109228551,4.46000003814697,0.069091796875,-0.982940673828125,0.118408203125,-0.0334722064767699,-0.00191694335263904,-0.0451187425559044
1492616997.6,40.4711591871832,-79.9264109228551,4.46000003814697,0.033203125,-0.993240356445312,0.156570434570312,-0.00266742214782337,-0.0404012190009381,0.0171363763502239
1492616997.8,40.4711591871832,-79.9264109228551,4.46000003814697,-0.00799560546875,-0.966705322265625,0.214248657226562,-0.0108457235393477,-0.0477986815608512,-0.0117160445835856
1492616998.0,40.4711591871832,-79.9264109228551,4.46000003814697,0.105850219726562,-0.966934204101562,0.16680908203125,0.00607067570483562,0.0233556564438859,-0.0415804667316252
1492616998.2,40.4711931338911,-79.9263958354294,3.90000009536743,0.0375518798828125,-0.938446044921875,0.244918823242188,0.00400060058951703,-0.0383202249251502,-0.00199257712759729
1492616998.4,40.4711931338911,-79.9263958354294,3.90000009536743,0.06005859375,-0.942474365234375,0.264495849609375,-0.0258313309932236,0.0405836455356085,-0.0355542658169939
1492616998.6,40.4711931338911,-79.9263958354294,3.90000009536743,0.0158233642578125,-0.960494995117188,0.28717041015625,-0.0221369939290657,0.01609854247342,-0.00773168927671804
1492616998.8,40.4711931338911,-79.9263958354294,3.90000009536743,-0.020233154296875,-0.963912963867188,0.319244384765625,-0.0320777753300044,-0.00617267477458566,0.00608479045861304
1492616999.0,40.4711931338911,-79.9263958354294,3.90000009536743,0.0716094970703125,-0.959335327148438,0.250946044921875,-0.0450090203189932,-0.0188525173566709,0.010249974403497
1492616999.2,40.4712277092416,-79.9263831787556,4.38000011444092,0.0545654296875,-0.964126586914062,0.316146850585938,0.0098542286655112,0.000996554879907651,-0.0190935334353231
1492616999.4,40.4712277092416,-79.9263831787556,4.38000011444092,0.042327880859375,-0.983901977539062,0.259506225585938,-0.0216656144161216,0.0320471489774685,-0.0333571579176785
1492616999.6,40.4712277092416,-79.9263831787556,4.38000011444092,0.0076446533203125,-0.971221923828125,0.206161499023438,-0.0297339272546257,-0.00299898570353823,-0.00776018510038189
1492616999.8,40.4712277092416,-79.9263831787556,4.38000011444092,0.0423126220703125,-1.00874328613281,0.247222900390625,-0.00856898712343896,-0.0743980682124536,0.0406203971586516
1492617000.0,40.4712277092416,-79.9263831787556,4.38000011444092,0.030426025390625,-0.924591064453125,0.268768310546875,0.0109376025969554,0.00737216252955735,-0.0169664666726768
1492617000.2,40.4712650506203,-79.9263645709305,4.96999979019165,0.077117919921875,-0.917144775390625,0.27008056640625,-0.0511297634523223,-0.0241348973788431,-0.0121895546254017
1492617000.4,40.4712650506203,-79.9263645709305,4.96999979019165,0.0646209716796875,-0.93011474609375,0.275161743164062,-0.0147917293265181,-0.00416039025492179,-0.0108028466457974
1492617000.6,40.4712650506203,-79.9263645709305,4.96999979019165,0.0671844482421875,-0.94927978515625,0.31182861328125,-0.0110276174418001,0.0287866408548845,-0.0343060422140737
1492617000.8,40.4712650506203,-79.9263645709305,4.96999979019165,0.0500335693359375,-0.95635986328125,0.313720703125,-0.0548605858234143,-0.01559387344685,0.0314649819631772
1492617001.0,40.4712650506203,-79.9263645709305,4.96999979019165,0.0350341796875,-0.9630126953125,0.336166381835938,0.0106369317098855,-0.107489176337233,0.0974117747723733
1492617001.2,40.4713070439552,-79.9263374135643,5.69999980926514,-0.0542449951171875,-0.978729248046875,0.38189697265625,-0.0567375817597021,-0.0964218777951909,0.046581350626576
1492617001.4,40.4713070439552,-79.9263374135643,5.69999980926514,-0.0088958740234375,-0.98382568359375,0.308212280273438,-0.0328255909640987,-0.0146820070896068,-0.0216224712064623
1492617001.6,40.4713070439552,-79.9263374135643,5.69999980926514,0.0965423583984375,-0.908172607421875,0.35589599609375,-0.0883109543792455,0.0569431777958563,-0.052229382666416
1492617001.8,40.4713070439552,-79.9263374135643,5.69999980926514,0.0476531982421875,-0.980697631835938,0.357772827148438,0.0014855112560462,0.0521122035784525,-0.002251702701662
1492617002.0,40.4713070439552,-79.9263374135643,5.69999980926514,0.0324859619140625,-0.989273071289062,0.307113647460938,-0.0431565254647341,-0.0284356362232121,0.0252206681552684
1492617002.2,40.4713637056206,-79.9263010361045,6.67000007629395,0.0297088623046875,-0.936431884765625,0.301483154296875,-0.0179225415040153,-0.0360426895609144,0.0446905062526197
1492617002.4,40.4713637056206,-79.9263010361045,6.67000007629395,0.0098419189453125,-0.922836303710938,0.274658203125,-0.014856177824898,-0.0179763373580349,0.0638671303139533
1492617002.6,40.4713637056206,-79.9263010361045,6.67000007629395,-0.00244140625,-0.988677978515625,0.256423950195312,-0.0142250086465492,-0.00415825972604972,0.0254542273828684
1492617002.8,40.4713637056206,-79.9263010361045,6.67000007629395,0.0305023193359375,-0.945144653320312,0.250656127929688,-0.00391937417626961,0.0393825598839828,-0.00334040295528639
1492617003.0,40.4713637056206,-79.9263010361045,6.67000007629395,0.04827880859375,-0.991729736328125,0.31683349609375,-0.025810558336721,0.0108089719163046,0.024230771178086
1492617003.2,40.4714266537134,-79.9262716994434,7.05000019073486,-0.025970458984375,-0.996841430664062,0.289031982421875,0.0112646387788172,-0.0128337732930918,0.0257375877228528
1492617003.4,40.4714266537134,-79.9262716994434,7.05000019073486,0.0282745361328125,-0.973037719726562,0.264678955078125,0.0238528686194037,0.0530304615223118,-0.00202506769289625
1492617003.6,40.4714266537134,-79.9262716994434,7.05000019073486,0.106170654296875,-1.00656127929688,0.298110961914062,-0.0135219341187683,0.0777424659093751,0.0188527836727799
1492617003.8,40.4714266537134,-79.9262716994434,7.05000019073486,0.0174102783203125,-0.93798828125,0.350204467773438,-0.0415152192849182,0.0502690297880087,0.0261005765794306
1492617004.0,40.4714266537134,-79.9262716994434,7.05000019073486,0.048736572265625,-0.933807373046875,0.35992431640625,0.00457264759166605,-0.00640383715720454,0.0512416162181056
1492617004.2,40.4714818904553,-79.9262481462955,8.01000022888184,-0.0166778564453125,-0.906814575195312,0.386871337890625,-0.073034796050442,-0.0441853045938317,0.0985241771596994
1492617004.4,40.4714818904553,-79.9262481462955,8.01000022888184,-0.0140380859375,-0.932937622070312,0.301284790039062,-0.00309033212892795,0.0255503674982202,0.00629970755858244
1492617004.6,40.4714818904553,-79.9262481462955,8.01000022888184,-0.061614990234375,-0.91058349609375,0.333633422851562,-0.0344903329615072,0.0257482403672131,-0.0334722064767699
1492617004.8,40.4714818904553,-79.9262481462955,8.01000022888184,-0.118576049804688,-0.9879150390625,0.348953247070312,0.0273301580547202,-0.0725128164767865,-0.0133938360703355
1492617005.0,40.4714818904553,-79.9262481462955,8.01000022888184,0.10589599609375,-0.824859619140625,0.292373657226562,-0.110538495785374,0.0336823298867772,-0.0747874223638232
1492617005.2,40.4715683916961,-79.9262236711382,9.35000038146973,0.0912933349609375,-0.889175415039062,0.368118286132812,-0.2175248673088,-0.0294321911031197,0.00424614404202234
1492617005.4,40.4715683916961,-79.9262236711382,9.35000038146973,-0.10302734375,-0.983840942382812,0.398910522460938,0.1195002991696,-0.0220563001480363,-0.0285735879676782
1492617005.6,40.4715683916961,-79.9262236711382,9.35000038146973,-0.19830322265625,-1.11335754394531,0.378921508789062,-0.0430055242309266,-0.0284508162414255,-0.0632735117069746
1492617005.8,40.4715683916961,-79.9262236711382,9.35000038146973,0.12835693359375,-0.933334350585938,0.340713500976562,-0.0411399798873261,0.108746987320078,-0.124382672396042
1492617006.0,40.4715683916961,-79.9262236711382,9.35000038146973,-0.0007171630859375,-0.948394775390625,0.296630859375,0.0186629002870573,0.060496899954458,-0.0852621675633228
1492617006.2,40.4716576589648,-79.9261927419155,10.3900003433228,-0.119766235351562,-0.977493286132812,0.421768188476562,0.00420593030956214,-0.152126952000269,0.0761368460881663
1492617006.4,40.4716576589648,-79.9261927419155,10.3900003433228,-0.072845458984375,-0.954727172851562,0.326690673828125,-0.0297461777956401,0.126761407881701,-0.0912598726542903
1492617006.6,40.4716576589648,-79.9261927419155,10.3900003433228,0.010833740234375,-0.925186157226562,0.23199462890625,-0.0435027364064444,-0.0199188470571387,0.0550491376285919
1492617006.8,40.4716576589648,-79.9261927419155,10.3900003433228,-0.0775909423828125,-0.9083251953125,0.251235961914062,-0.0376909199595644,-0.0986719826001988,0.054245661927715
1492617007.0,40.4716576589648,-79.9261927419155,10.3900003433228,-0.0620880126953125,-0.962417602539062,0.296432495117188,0.0309438013378487,-0.0225420607308667,-0.0166844379132374
1492617007.2,40.4717541765799,-79.9261556939035,11.039999961853,0.0619049072265625,-0.9423828125,0.293731689453125,0.01845011371596,-0.0660679666387947,0.0163526080414135
1492617007.4,40.4717541765799,-79.9261556939035,11.039999961853,-0.0806427001953125,-0.944290161132812,0.318710327148438,-0.0210948989945176,-0.0434814311177237,-0.0384874714416071
1492617007.6,40.4717541765799,-79.9261556939035,11.039999961853,0.0948944091796875,-0.923431396484375,0.263870239257812,-0.03135685762292,0.0501838086331261,-0.0932111707849914
1492617007.8,40.4717541765799,-79.9261556939035,11.039999961853,0.0276336669921875,-0.892074584960938,0.291702270507812,-0.020132698892672,0.015023158025246,0.000821318880180437
1492617008.0,40.4717541765799,-79.9261556939035,11.039999961853,-0.0164642333984375,-0.942779541015625,0.3253173828125,-0.0313041270333364,-0.0221439181478999,-0.0589051285709176
1492617008.2,40.4718625545879,-79.9261218310147,11.960000038147,0.0510711669921875,-0.95440673828125,0.282913208007812,-0.0468149098541759,-0.0401207881381527,-0.0248986919794778
1492617008.4,40.4718625545879,-79.9261218310147,11.960000038147,0.102462768554688,-0.971237182617188,0.308609008789062,-0.11247221705288,0.100712762943527,-0.0525897083619037
1492617008.6,40.4718625545879,-79.9261218310147,11.960000038147,0.060546875,-0.960037231445312,0.260009765625,0.0317803002362426,-0.0640210610249598,0.0548675100422485
1492617008.8,40.4718625545879,-79.9261218310147,11.960000038147,-0.0189056396484375,-0.9029541015625,0.275253295898438,-0.0237391516408573,0.00440087370135594,-0.052498894568732
1492617009.0,40.4718625545879,-79.9261218310147,11.960000038147,-0.0220489501953125,-0.921661376953125,0.230133056640625,-0.13155855995326,-0.0161584635979468,0.0328136067391933
1492617009.2,40.4719649395351,-79.9260769040137,12.8199996948242,-0.0511016845703125,-0.919403076171875,0.18707275390625,-0.0185566401595631,0.0362831730073485,-0.0248065466057611
1492617009.4,40.4719649395351,-79.9260769040137,12.8199996948242,0.0070953369140625,-1.01568603515625,0.17919921875,-0.0310644425352293,0.0331699376930459,-0.0462508523352971
1492617009.6,40.4719649395351,-79.9260769040137,12.8199996948242,0.0832672119140625,-0.907745361328125,0.185989379882812,-0.0517801073905196,-0.0730459813270204,0.0860217011062134
1492617009.8,40.4719649395351,-79.9260769040137,12.8199996948242,0.0327606201171875,-0.942291259765625,0.189666748046875,0.00668693118107996,-0.093637542875513,0.0824085904553029
1492617010.0,40.4719649395351,-79.9260769040137,12.8199996948242,0.0511322021484375,-0.968231201171875,0.136184692382812,-0.0341108325061709,0.0470175764131309,-0.0495164204639523
1492617010.2,40.4720727308099,-79.926035497412,12.5600004196167,0.034515380859375,-0.964447021484375,0.174346923828125,0.0361502812689536,0.0359350978528752,0.0237340916347862
1492617010.4,40.4720727308099,-79.926035497412,12.5600004196167,0.026580810546875,-0.9615478515625,0.185653686523438,-0.00624191696292772,-0.0233649775077012,-0.023460318674726
1492617010.6,40.4720727308099,-79.926035497412,12.5600004196167,-0.044036865234375,-0.982315063476562,0.132156372070312,-0.0687340572060731,-0.0431623844191322,0.0185995170531134
1492617010.8,40.4720727308099,-79.926035497412,12.5600004196167,-0.099395751953125,-0.985061645507812,0.193344116210938,-0.037742318968603,-0.0710243757435412,-0.00446798536082594
1492617011.0,40.4720727308099,-79.926035497412,12.5600004196167,-0.14703369140625,-1.02742004394531,0.134933471679688,0.0260877934061982,-0.150148489626449,0.0347734269853826
1492617011.2,40.4721756186713,-79.9259866309165,11.7399997711182,-0.12451171875,-0.882537841796875,0.140731811523438,-0.0404145348063885,-0.0210139388973792,-0.0152865446570548
1492617011.4,40.4721756186713,-79.9259866309165,11.7399997711182,-0.0402679443359375,-0.967727661132812,0.069854736328125,-0.0416363931145168,-0.0263232168465612,-0.006755640737204
1492617011.6,40.4721756186713,-79.9259866309165,11.7399997711182,-0.0208740234375,-1.06411743164062,0.107574462890625,0.0283296424118269,-0.071454742575698,-0.00805526334916267
1492617011.8,40.4721756186713,-79.9259866309165,11.7399997711182,-0.058197021484375,-1.06509399414062,0.122634887695312,0.0579325421408207,-0.106738164909831,0.065907644341172
1492617012.0,40.4721756186713,-79.9259866309165,11.7399997711182,-0.0048370361328125,-1.00962829589844,0.0741119384765625,-0.0593906228376391,-0.0230203644626449,-0.0304026470043446
1492617012.2,40.4722701665391,-79.9259277899563,10.8500003814697,-0.02398681640625,-0.997406005859375,0.044921875,-0.127551567777127,0.0582603772710094,-0.0632966812084583
1492617012.4,40.4722701665391,-79.9259277899563,10.8500003814697,-0.046966552734375,-0.828048706054688,0.0497283935546875,0.0695449897580022,0.051658134612594,-0.0729900549441287
1492617012.6,40.4722701665391,-79.9259277899563,10.8500003814697,0.123016357421875,-1.04405212402344,0.03509521484375,-0.0536547064818264,-0.0124119285764233,0.0229394043655065
1492617012.8,40.4722701665391,-79.9259277899563,10.8500003814697,0.0684356689453125,-1.01446533203125,0.0828704833984375,-0.0288737262225301,0.0608140824402864,-0.0356376227591133
1492617013.0,40.4722701665391,-79.9259277899563,10.8500003814697,0.117446899414062,-1.02304077148438,0.018829345703125,-0.0675311073416843,0.104673149800583,-0.0660005886632157
1492617013.2,40.4723502556239,-79.9258751516043,8.9399995803833,0.114883422851562,-0.958694458007812,0.120391845703125,-0.0361249812385978,0.0629989397985874,0.0282553402174137
1492617013.4,40.4723502556239,-79.9258751516043,8.9399995803833,0.0377960205078125,-0.931198120117188,0.0496063232421875,-0.0355436131726335,0.00449115486230963,0.0316109231909135
1492617013.6,40.4723502556239,-79.9258751516043,8.9399995803833,0.143386840820312,-1.05447387695312,-0.02032470703125,-0.0497694207675098,0.0269157701891038,-0.00591008709110385
1492617013.8,40.4723502556239,-79.9258751516043,8.9399995803833,0.122573852539062,-0.9993896484375,0.006683349609375,-0.00253985673160857,0.0787185144488892,-0.0823276303581645
1492617014.0,40.4723502556239,-79.9258751516043,8.9399995803833,0.068756103515625,-0.973007202148438,0.03814697265625,0.041102961948174,0.0444052816998722,-0.0220842633394821
1492617014.2,40.4724202445154,-79.9258365948498,7.65999984741211,0.0148468017578125,-0.989120483398438,0.0639190673828125,0.00842650800511972,0.0573796698985202,-0.0395117231968516
1492617014.4,40.4724202445154,-79.9258365948498,7.65999984741211,0.076873779296875,-0.995620727539062,0.049591064453125,0.0104276072482053,-0.0117671772765151,0.00973305483591259
1492617014.6,40.4724202445154,-79.9258365948498,7.65999984741211,0.085052490234375,-1.03216552734375,-0.0007476806640625,-0.0307094431619217,0.0225377996731226,-0.000372576236502085
1492617014.8,40.4724202445154,-79.9258365948498,7.65999984741211,-0.053802490234375,-0.995101928710938,-0.009490966796875,-0.0211273895598166,-0.0647446418931344,0.0298047673396218
1492617015.0,40.4724202445154,-79.9258365948498,7.65999984741211,0.029876708984375,-1.02294921875,-0.01580810546875,-0.00391591206685251,-0.0297528356983652,0.0362879666973107
1492617015.2,40.4724730085958,-79.925818657577,5.63000011444092,0.0546875,-1.01898193359375,-0.0308074951171875,-0.0170716615357349,0.0245791126486683,0.0157549946927998
1492617015.4,40.4724730085958,-79.925818657577,5.63000011444092,0.0685272216796875,-1.01084899902344,-0.0254669189453125,-0.0354139172275467,0.0289440336753082,-0.0420196219953792
1492617015.6,40.4724730085958,-79.925818657577,5.63000011444092,0.0406036376953125,-1.01173400878906,-0.0261993408203125,-0.0126955552325167,0.00114542558484308,-0.00546400760851557
1492617015.8,40.4724730085958,-79.925818657577,5.63000011444092,0.0529632568359375,-1.00471496582031,0.009063720703125,-0.0544850801097131,-0.0241111952451414,-0.000495614278863746
1492617016.0,40.4724730085958,-79.925818657577,5.63000011444092,0.0299835205078125,-0.992080688476562,0.04840087890625,-0.00421099031563329,-0.0169941635480136,-0.0127938258767407
1492617016.2,40.4725093860556,-79.9258003850281,3.63000011444092,0.0606536865234375,-1.00080871582031,0.06756591796875,-0.0258691478807027,-0.0242957523086839,0.0093937681130365
1492617016.4,40.4725093860556,-79.9258003850281,3.63000011444092,0.0133209228515625,-0.97265625,0.0829620361328125,-0.0285120689464973,0.0140122220754519,-0.00992400348607127
1492617016.6,40.4725093860556,-79.9258003850281,3.63000011444092,0.03009033203125,-1.01313781738281,0.0799713134765625,-0.00113131083106566,-0.0127576068859156,-0.00211108779610581
