timestamp,latitude,longitude,speed,accelerometerX,accelerometerY,accelerometerZ,gyroX,gyroY,gyroZ
1492638964.5,40.447444787735,-79.9441886564716,0.0,0.016998291015625,-0.962234497070312,0.203887939453125,-0.0169944298641226,0.019258649422908,0.00723980342338041
1492638964.8,40.447444787735,-79.9441886564716,0.0,0.050750732421875,-0.962997436523438,0.193954467773438,-0.018083130117747,0.0043726441938011,0.000869788412019879
1492638964.9,40.447444787735,-79.9441886564716,0.0,0.03741455078125,-0.959228515625,0.191543579101562,-0.0149927979888191,-0.00947579347461094,0.000937166387598884
1492638965.1,40.4474447940709,-79.9441886568162,0.0,0.0537872314453125,-0.963851928710938,0.277252197265625,-0.0468934731063332,-0.00182213481783221,0.0016570188302473
1492638965.3,40.4474447940709,-79.9441886568162,0.0,0.031646728515625,-0.9530029296875,0.27105712890625,-0.0073705646329033,0.00323840388553635,-0.00434867574399039
1492638965.5,40.4474447940709,-79.9441886568162,0.0,0.0387725830078125,-0.947341918945312,0.283523559570312,-0.0128114027399352,-0.00842677432122873,-0.0022418490056287
1492638965.7,40.4474447940709,-79.9441886568162,0.0,0.0444793701171875,-0.947998046875,0.278518676757812,-0.0170157351528433,-0.00308101106511267,-0.00336490403731512
1492638965.9,40.4474447940709,-79.9441886568162,0.0,0.05328369140625,-0.9471435546875,0.274276733398438,-0.0213372466537149,-0.00943504710993272,-0.00232653752829322
1492638966.1,40.4474447940709,-79.9441886568162,0.0,0.0488739013671875,-0.94635009765625,0.2652587890625,-0.02671816363622,-0.00727176135646136,0.00294385826897359
1492638966.3,40.4474535244086,-79.9441891316783,0.409999996423721,0.0508880615234375,-0.93658447265625,0.295486450195312,-0.0256081580938749,-0.00515188512875829,0.000817324138545318
1492638966.5,40.4474535244086,-79.9441891316783,0.409999996423721,0.036956787109375,-0.932571411132812,0.322357177734375,-0.0264824738797479,0.00655350681046699,-0.00668533328442591
1492638966.7,40.4474535244086,-79.9441891316783,0.409999996423721,0.0538787841796875,-0.9285888671875,0.334365844726562,-0.0169638035115867,-0.00201814347406205,-0.00656575735148135
1492638966.9,40.4474535244086,-79.9441891316783,0.409999996423721,0.0697174072265625,-0.923843383789062,0.325973510742188,-0.0203311043938829,-0.0094409060643309,0.00194863496961098
1492638967.1,40.4474535244086,-79.9441891316783,0.409999996423721,0.0268402099609375,-0.934616088867188,0.354171752929688,-0.0179273351939774,-0.0041406828628552,-0.0150998570646403
1492638967.3,40.4474654602074,-79.9441897808925,1.47000002861023,0.065338134765625,-0.94378662109375,0.332443237304688,-0.027828169178565,-0.0327954972437808,-0.00766377866892102
1492638967.5,40.4474654602074,-79.9441897808925,1.47000002861023,0.120620727539062,-0.899734497070312,0.317001342773438,-0.0534283377891697,-0.0368837158331614,-0.00684911769146578
1492638967.7,40.4474654602074,-79.9441897808925,1.47000002861023,0.0513763427734375,-0.9091796875,0.344772338867188,-0.0295581586226805,-0.00300218149684633,-0.0205529457126865
1492638967.9,40.4474654602074,-79.9441897808925,1.47000002861023,0.108840942382812,-0.875656127929688,0.398834228515625,-0.0136303247751345,-0.0530919805434927,0.0330500954439924
1492638968.1,40.4474870582015,-79.9441909556546,3.05999994277954,0.089599609375,-0.93865966796875,0.342697143554688,-0.0440441570560575,-0.0380062382326298,0.00711064011051157
1492638968.3,40.4474870582015,-79.9441909556546,3.05999994277954,0.0402374267578125,-0.893035888671875,0.395462036132812,0.0223926573937133,-0.0171670027027598,-0.0114547884806488
1492638968.5,40.4474870582015,-79.9441909556546,3.05999994277954,0.0618133544921875,-0.947723388671875,0.404266357421875,-0.0169598087699516,-0.00733727511927731,-0.00975063169910712
1492638968.7,40.4474870582015,-79.9441909556546,3.05999994277954,0.071990966796875,-0.906295776367188,0.350509643554688,-0.0395269032150651,-0.0231452667177697,-0.00354360214645943
1492638968.9,40.4474870582015,-79.9441909556546,3.05999994277954,0.0770721435546875,-0.918655395507812,0.363677978515625,-0.0139653504402665,-0.0222477814304129,-0.00328421025628572
1492638969.1,40.4474870582015,-79.9441909556546,3.05999994277954,0.042266845703125,-0.934371948242188,0.33038330078125,-0.0248643372014158,-0.0147272808281382,0.0189752890829236
1492638969.4,40.4475265260189,-79.9441931023953,4.78999996185303,0.0735015869140625,-0.929916381835938,0.343215942382812,-0.0160269034400969,-0.0190437323229386,-0.00651222781357076
1492638969.5,40.4475265260189,-79.9441931023953,4.78999996185303,0.0333251953125,-0.932235717773438,0.34979248046875,-0.0248443634932402,-0.0296210092244063,0.00941800287895622
1492638969.7,40.4475265260189,-79.9441931023953,4.78999996185303,0.0909576416015625,-0.939727783203125,0.322647094726562,-0.0842091536683055,0.0515992787525033,-0.0436438839442186
1492638969.9,40.4475265260189,-79.9441931023953,4.78999996185303,0.12060546875,-0.916290283203125,0.320571899414062,-0.0405090770250863,-0.0316503379750467,-0.0141938496617953
1492638970.1,40.4475811920784,-79.9441960758017,6.48000001907349,0.0658416748046875,-0.937332153320312,0.236480712890625,-0.0521718583868703,0.000339286722876095,-0.000535029062996919
1492638970.3,40.4475811920784,-79.9441960758017,6.48000001907349,0.06866455078125,-0.988800048828125,0.214096069335938,-0.010554107399984,-0.0148258177884711,-0.0149967927304542
1492638970.6,40.4475811920784,-79.9441960758017,6.48000001907349,0.022216796875,-0.921157836914062,0.310745239257812,-0.00772529769010185,-0.0648266672547088,0.0619286153564846
1492638970.8,40.4475811920784,-79.9441960758017,6.48000001907349,0.055999755859375,-0.981475830078125,0.270980834960938,-0.0630708451480196,-0.0623517916536982,-0.0164780429287563
1492638971.0,40.4475811920784,-79.9441960758017,6.48000001907349,0.115386962890625,-0.970138549804688,0.299453735351562,-0.0233508627539238,-0.0232528584258089,-0.0183047051204416
1492638971.2,40.4475811920784,-79.9441960758017,6.48000001907349,0.08563232421875,-0.896804809570312,0.112136840820312,-0.287364136367256,-0.176828037426863,0.0465600453378553
1492638971.4,40.4476458405538,-79.9441995921734,7.28999996185303,0.093658447265625,-0.908981323242188,0.29986572265625,0.0676967559614872,-0.0344770171560568,0.0146428586215827
1492638971.6,40.4476458405538,-79.9441995921734,7.28999996185303,0.04351806640625,-0.906173706054688,0.2681884765625,-0.0459472519710281,-0.0156564577324668,0.00276862226924638
1492638971.8,40.4476458405538,-79.9441995921734,7.28999996185303,-0.0363922119140625,-0.952133178710938,0.379074096679688,-0.000101732753641027,-0.0967925898189299,0.0322351681504281
1492638972.0,40.4476458405538,-79.9441995921734,7.28999996185303,0.070770263671875,-0.905853271484375,0.271804809570312,-0.0354943446924671,-0.0338069658257929,0.00718733914990585
1492638972.2,40.4476458405538,-79.9441995921734,7.28999996185303,0.00543212890625,-0.986602783203125,0.294540405273438,0.0352168433068808,-0.0980882176892535,0.0187393330103426
1492638972.4,40.4477217774981,-79.9442037225496,8.22999954223633,0.100051879882812,-0.89385986328125,0.233139038085938,-0.0273538601884219,-0.138096620429405,0.0555194518770999
1492638972.6,40.4477217774981,-79.9442037225496,8.22999954223633,0.0904388427734375,-0.964645385742188,0.298248291015625,0.0311954700608612,0.00511247034462511,-0.0199518702546556
1492638972.8,40.4477217774981,-79.9442037225496,8.22999954223633,0.00811767578125,-1.01890563964844,0.337371826171875,0.00423575771377103,-0.0415035013761219,0.0566598174558718
1492638973.0,40.4477217774981,-79.9442037225496,8.22999954223633,0.12213134765625,-1.00016784667969,0.291824340820312,0.0186804771502518,-0.0139453767320909,0.0279488103759456
1492638973.2,40.4477217774981,-79.9442037225496,8.22999954223633,0.103485107421875,-0.944854736328125,0.357315063476562,-0.0100899184219832,-0.0499276125362605,0.00962146838623827
1492638973.4,40.4478022024288,-79.9442080970372,9.56999969482422,0.08355712890625,-0.937637329101562,0.343582153320312,-0.0262100325002328,-0.0189704953929614,0.0370981003009128
1492638973.6,40.4478022024288,-79.9442080970372,9.56999969482422,0.127914428710938,-0.914443969726562,0.248504638671875,-0.038886945605119,-0.0348463975992508,0.0210160694262513
1492638973.8,40.4478022024288,-79.9442080970372,9.56999969482422,0.0909423828125,-0.974761962890625,0.26123046875,-0.0254824568904232,0.0948317043083046,-0.031425833495153
1492638974.0,40.4478022024288,-79.9442080970372,9.56999969482422,0.113739013671875,-0.929489135742188,0.280899047851562,-0.0271384104562345,0.0161273046131928,-0.0312396785349565
1492638974.2,40.4478022024288,-79.9442080970372,9.56999969482422,0.122283935546875,-0.972640991210938,0.224624633789062,0.00184397273877086,-0.0861649791728597,0.0514195153789229
1492638974.4,40.4478944953294,-79.9442131170496,10.7200002670288,0.0450592041015625,-0.954483032226562,0.200149536132812,0.00799054853467375,-0.0234496660303657,0.0257314624523456
1492638974.6,40.4478944953294,-79.9442131170496,10.7200002670288,0.048614501953125,-0.960052490234375,0.228271484375,0.028972263182863,-0.0437948851780261,0.0377271389503895
1492638974.8,40.4478944953294,-79.9442131170496,10.7200002670288,0.042388916015625,-0.956451416015625,0.313812255859375,-0.0809475802812855,-0.0090475571713262,-0.00400406269893413
1492638975.0,40.4478944953294,-79.9442131170496,10.7200002670288,0.071685791015625,-0.936599731445312,0.28662109375,-0.0353265655437921,-0.0114699684988623,0.00713141276701418
1492638975.2,40.4478944953294,-79.9442131170496,10.7200002670288,0.101287841796875,-0.920181274414062,0.223190307617188,-0.00251642091401587,0.0531990396193139,-0.0204211192387276
1492638975.4,40.4479955076571,-79.9442186113307,11.4300003051758,0.0624847412109375,-0.914413452148438,0.211669921875,0.0365319122531619,-0.060866280397652,0.0207891681013765
1492638975.6,40.4479955076571,-79.9442186113307,11.4300003051758,0.102279663085938,-0.99810791015625,0.2220458984375,0.0514474785703687,-0.0694738833568971,0.0156330219148741
1492638975.8,40.4479955076571,-79.9442186113307,11.4300003051758,-0.0075225830078125,-0.874267578125,0.279708862304688,0.0442673299554061,-0.0545370117509697,0.00379260770838184
1492638976.0,40.4479955076571,-79.9442186113307,11.4300003051758,-0.0102081298828125,-0.923934936523438,0.3155517578125,-0.0241364952754971,-0.0147280797764652,0.0435056658836434
1492638976.2,40.4479955076571,-79.9442186113307,11.4300003051758,0.1375732421875,-1.02006530761719,0.224853515625,-0.0378131590535991,0.0938428725955582,-0.0646021627748151
1492638976.4,40.4480997553829,-79.9442242815922,11.9499998092651,0.127960205078125,-0.99072265625,0.16168212890625,0.0908904922110963,-0.0516461503876887,0.0223881300198601
1492638976.6,40.4480997553829,-79.9442242815922,11.9499998092651,0.078125,-0.885116577148438,0.199798583984375,-0.0746156484735131,-0.0686491023672995,0.0452604227258966
1492638976.8,40.4480997553829,-79.9442242815922,11.9499998092651,0.1104736328125,-1.00247192382812,0.156646728515625,0.0274185750029108,0.0732153583723494,-0.0180338616375806
1492638977.0,40.4480997553829,-79.9442242815922,11.9499998092651,0.1201171875,-0.968505859375,0.168167114257812,0.00335664823793587,0.0255077569207789,0.00210096778396351
1492638977.2,40.4482092164729,-79.9442302354199,12.1300001144409,0.086029052734375,-0.88226318359375,0.236358642578125,-0.0706206405222852,0.0100252036074943,-0.0476623277130391
1492638977.4,40.4482092164729,-79.9442302354199,12.1300001144409,0.0380859375,-0.928070068359375,0.182205200195312,-0.0279213798167178,-0.00619850743715943,0.0135909099910014
1492638977.6,40.4482092164729,-79.9442302354199,12.1300001144409,-0.054962158203125,-1.05821228027344,0.174179077148438,0.00850400599284102,-0.0968495814662576,0.0259261395280304
1492638977.8,40.4482092164729,-79.9442302354199,12.1300001144409,-0.0318145751953125,-0.956756591796875,0.162994384765625,0.00465307505658645,-0.0138644166349525,-0.0361678581321481
1492638978.0,40.4482092164729,-79.9442302354199,12.1300001144409,0.0921783447265625,-0.942901611328125,0.169326782226562,0.0111341438854033,-0.0341076367128628,0.0236587241759369
1492638978.2,40.4482092164729,-79.9442302354199,12.1300001144409,0.073455810546875,-0.951431274414062,0.195999145507812,0.0139858567806601,0.0945741766308939,-0.0363521488795816
1492638978.4,40.4483165636199,-79.9442360742656,11.9200000762939,0.085418701171875,-0.9730224609375,0.182388305664062,-0.00105328021112634,-0.0680648048241362,0.0396147875310377
1492638978.6,40.4483165636199,-79.9442360742656,11.9200000762939,0.09393310546875,-0.947174072265625,0.176803588867188,-0.0105612979349272,-0.065876219040309,0.0352469370271987
1492638978.8,40.4483165636199,-79.9442360742656,11.9200000762939,0.08489990234375,-1.09620666503906,0.195205688476562,0.0730502423847645,0.0176021632248787,-0.0366150028791724
1492638979.0,40.4483165636199,-79.9442360742656,11.9200000762939,0.0871734619140625,-0.928970336914062,0.191604614257812,-0.0445083460340583,-0.00290444348484042,-0.0175076210061809
1492638979.2,40.4483165636199,-79.9442360742656,11.9200000762939,0.048065185546875,-0.960525512695312,0.216323852539062,-0.0408086826477202,-0.0305810787973799,0.00819081824864771
1492638979.4,40.4483816183094,-79.9442396127322,11.710000038147,0.157745361328125,-1.01716613769531,0.125885009765625,0.0115261611978629,0.0701263578239665,-0.0256521002518612
1492638979.6,40.4483816183094,-79.9442396127322,11.710000038147,0.167800903320312,-1.01300048828125,0.125106811523438,-0.13728462261304,0.122154139195864,-0.0177140159906621
1492638979.7,40.4483816183094,-79.9442396127322,11.710000038147,0.091522216796875,-0.891693115234375,0.192901611328125,-0.0770388587493762,0.0164625965944338,0.0354200424980539
1492638979.9,40.4483816183094,-79.9442396127322,11.710000038147,0.168777465820312,-0.944671630859375,0.105331420898438,-0.0195209707902808,0.11925315782044,-0.0644804563129985
1492638980.1,40.4483816183094,-79.9442396127322,11.710000038147,0.148529052734375,-0.921600341796875,0.21478271484375,0.0462702934112547,0.0124715833848411,0.0494873920080704
1492638980.3,40.4485237540522,-79.9442580174709,11.2200002670288,0.119003295898438,-0.9361572265625,0.171295166015625,-0.0248110739796142,0.0235689756472013,0.0359364294334202
1492638980.5,40.4485237540522,-79.9442580174709,11.2200002670288,0.15380859375,-0.982223510742188,0.147674560546875,0.0121043334705191,0.0137586891396764,0.056597765802473
1492638980.7,40.4485237540522,-79.9442580174709,11.2200002670288,0.11700439453125,-0.9417724609375,0.183746337890625,0.00523843786418586,0.0159241054220198,0.0149395347670175
1492638980.9,40.4485237540522,-79.9442580174709,11.2200002670288,0.04083251953125,-0.979568481445312,0.18695068359375,0.0301312708892655,0.127445307649633,-0.0309406055445406
1492638981.1,40.4485237540522,-79.9442580174709,11.2200002670288,0.089324951171875,-0.952346801757812,0.161331176757812,-0.0239135886922575,0.111849037357802,0.0186583729132042
1492638981.3,40.4486223748314,-79.9442727212118,10.9099998474121,0.122894287109375,-0.950958251953125,0.178207397460938,-0.0408321184653129,0.100255764500469,0.00358807693666376
1492638981.5,40.4486223748314,-79.9442727212118,10.9099998474121,0.11273193359375,-0.979385375976562,0.152252197265625,-0.05159208821756,0.10031462036056,-0.0658261516118156
1492638981.7,40.4486223748314,-79.9442727212118,10.9099998474121,0.0737152099609375,-1.00279235839844,0.193023681640625,0.00890161594358985,0.228619862726179,-0.135908034645578
1492638981.9,40.4486223748314,-79.9442727212118,10.9099998474121,0.1282958984375,-1.03179931640625,0.170562744140625,-0.0341622315152094,0.133174832418829,-0.076394640081686
1492638982.1,40.4486223748314,-79.9442727212118,10.9099998474121,0.0844268798828125,-1.08479309082031,0.16888427734375,0.0618170289068103,0.00598012822777293,-0.000448742643678352
1492638982.3,40.4487055575243,-79.9442936279338,10.5600004196167,0.14166259765625,-0.957809448242188,0.170196533203125,0.0253943062583416,0.1008864010466,-0.0106624980563502
1492638982.5,40.4487055575243,-79.9442936279338,10.5600004196167,0.169967651367188,-0.925308227539062,0.16754150390625,-0.0717407660767725,0.136614304966667,-0.0522653353411321
1492638982.7,40.4487055575243,-79.9442936279338,10.5600004196167,0.138641357421875,-0.936737060546875,0.255996704101562,-0.00977779594222592,0.0670735762664087,-0.0269285533623362
1492638983.0,40.4487055575243,-79.9442936279338,10.5600004196167,0.12567138671875,-0.928634643554688,0.221237182617188,0.0448540243435506,-0.0460247499587494,0.0432265666014031
1492638983.1,40.4487055575243,-79.9442936279338,10.5600004196167,-0.0088348388671875,-1.17503356933594,0.10260009765625,0.133115976558739,0.0661417362009899,-0.0414563634248275
1492638983.3,40.4488068975034,-79.9443344618325,10.4499998092651,0.0462188720703125,-0.842971801757812,0.348358154296875,-0.155976817672088,-0.04365959659465,0.0123765085339252
1492638983.5,40.4488068975034,-79.9443344618325,10.4499998092651,0.253555297851562,-1.084228515625,0.305450439453125,-0.222279941435137,0.398182264067088,-0.192023235658528
1492638983.7,40.4488068975034,-79.9443344618325,10.4499998092651,0.215072631835938,-0.900863647460938,0.24359130859375,-0.158050887529042,0.238213634237081,-0.14830425057157
1492638983.9,40.4488068975034,-79.9443344618325,10.4499998092651,0.0773468017578125,-0.933807373046875,0.276458740234375,-0.115491176464594,0.0369140758695883,-0.0226019818553935
1492638984.1,40.4488068975034,-79.9443344618325,10.4499998092651,0.1243896484375,-0.97222900390625,0.242401123046875,-0.0920825231150158,0.0984506739136132,-0.065169682403111
1492638984.3,40.448897325708,-79.9443717737897,10.9399995803833,0.09326171875,-0.821044921875,0.237457275390625,-0.113729495403507,0.160284214419182,-0.0836765214502897
1492638984.5,40.448897325708,-79.9443717737897,10.9399995803833,0.124908447265625,-0.8739013671875,0.343856811523438,0.00924649530475512,-0.108552576560502,0.0430233674102301
1492638984.7,40.448897325708,-79.9443717737897,10.9399995803833,0.003143310546875,-1.06161499023438,0.26373291015625,-0.0101815311634819,-0.12330409215456,0.131358290239286
1492638984.9,40.448897325708,-79.9443717737897,10.9399995803833,0.0116424560546875,-0.974578857421875,0.201889038085938,-0.107264938173448,0.0155877481763428,-0.0128667964906088
1492638985.1,40.448897325708,-79.9443717737897,10.9399995803833,-0.0009765625,-0.913421630859375,0.201797485351562,0.0228288831802682,-0.00333294610423417,0.0418246786035854
1492638985.3,40.4489954136115,-79.9444122462471,11.4099998474121,-0.0036163330078125,-0.920196533203125,0.344863891601562,-0.109679360017714,-0.00673327018404734,-0.00430420095378607
1492638985.5,40.4489954136115,-79.9444122462471,11.4099998474121,0.125396728515625,-0.959197998046875,0.235519409179688,0.0449770623859122,-0.00880600846045601,-0.0229734928274595
1492638985.7,40.4489954136115,-79.9444122462471,11.4099998474121,0.034698486328125,-0.949493408203125,0.222824096679688,-0.0627928111302153,0.0631480768196319,-0.123420472294196
1492638985.9,40.4489954136115,-79.9444122462471,11.4099998474121,0.018402099609375,-0.981399536132812,0.20135498046875,-0.014621287016753,-0.000972053797878922,-0.0214714699726548
1492638986.1,40.4490947752844,-79.9444537892614,11.8400001525879,0.12408447265625,-0.863555908203125,0.202728271484375,0.0324727221196632,-0.0225449902080658,0.0270459987664087
1492638986.3,40.4490947752844,-79.9444537892614,11.8400001525879,0.0794677734375,-0.974441528320312,0.274246215820312,-0.00260643575886055,0.136165562322988,-0.0462252859888324
1492638986.5,40.4490947752844,-79.9444537892614,11.8400001525879,0.0679473876953125,-0.935577392578125,0.192230224609375,-0.0179566299659683,0.0426675690885955,0.0125006118407229
1492638986.7,40.4490947752844,-79.9444537892614,11.8400001525879,-0.0425262451171875,-0.992843627929688,0.285858154296875,0.0234001312340902,0.0434643868867472,0.0257165487502412
1492638986.9,40.4490947752844,-79.9444537892614,11.8400001525879,-0.104904174804688,-0.893112182617188,0.312393188476562,0.0192863462982448,-0.00544589811310303,-0.0115168401340477
1492638987.1,40.4490947752844,-79.9444537892614,11.8400001525879,0.096923828125,-0.987396240234375,0.204879760742188,0.025476331619916,0.00515428197373936,0.00877724632068315
1492638987.3,40.4491986437395,-79.9444973386857,12.2399997711182,0.061859130859375,-0.934768676757812,0.289657592773438,-0.00263626316306944,0.025542111698841,-0.0267482573565379
1492638987.5,40.4491986437395,-79.9444973386857,12.2399997711182,0.130783081054688,-0.951187133789062,0.186813354492188,0.012770922691366,-0.0373039626531759,0.0578025798796248
1492638987.7,40.4491986437395,-79.9444973386857,12.2399997711182,0.037200927734375,-0.94805908203125,0.28009033203125,-0.0605685389877811,0.0184772779590788,0.000398408899075854
1492638987.9,40.4491986437395,-79.9444973386857,12.2399997711182,-0.0050811767578125,-0.877090454101562,0.194976806640625,-0.0373636174615937,0.0704432739936859,-0.0325507527396025
1492638988.1,40.4491986437395,-79.9444973386857,12.2399997711182,-0.06231689453125,-1.02424621582031,0.165603637695312,0.00757243224353131,-0.083015524867732,0.0237484727046726
1492638988.3,40.4493065270671,-79.944542571445,12.460000038147,-0.0939178466796875,-0.871261596679688,0.24798583984375,-0.0702121116110671,-0.0878156064164908,0.101864313798877
1492638988.5,40.4493065270671,-79.944542571445,12.460000038147,-0.134674072265625,-0.952926635742188,0.223480224609375,-0.0713588687764552,-0.0622881421036453,0.0442111372564054
1492638988.7,40.4493065270671,-79.944542571445,12.460000038147,-0.135345458984375,-0.990646362304688,0.220611572265625,-0.0145901280319991,0.0532693470720919,-0.071723189213578
1492638988.9,40.4493065270671,-79.944542571445,12.460000038147,-0.133102416992188,-1.01411437988281,0.1566162109375,0.0339869955154822,-0.0927592323480049,0.0336399856254449
1492638989.1,40.4493065270671,-79.944542571445,12.460000038147,-0.154586791992188,-0.874160766601562,0.220382690429688,0.134722395328274,-0.111494304300603,0.0549777649113778
1492638989.3,40.449408681765,-79.9445854023342,12.3599996566772,-0.0439453125,-0.98980712890625,0.212814331054688,-0.0278934166252719,-0.0200285692940499,0.00403096062594393
1492638989.5,40.449408681765,-79.9445854023342,12.3599996566772,-0.149749755859375,-0.976348876953125,0.220413208007812,-0.0767171488896946,-0.117571105275946,0.0165773788374162
1492638989.7,40.449408681765,-79.9445854023342,12.3599996566772,-0.165008544921875,-1.0341796875,0.149063110351562,0.0864478068806261,-0.0994866435776541,0.00967153581473176
1492638989.9,40.449408681765,-79.9445854023342,12.3599996566772,-0.0659942626953125,-0.967742919921875,0.234024047851562,-0.0241093310323783,-0.0604849157295526,-0.0608649488171069
1492638990.2,40.4495115838199,-79.9446285465714,12.1700000762939,0.0423126220703125,-0.971786499023438,0.194488525390625,-0.0425554500067032,0.0353697087534514,-0.0613011746036619
1492638990.3,40.4495115838199,-79.9446285465714,12.1700000762939,0.0647430419921875,-0.89288330078125,0.217864990234375,-0.0806985747193631,0.0260537049442452,-0.00302588363054803
1492638990.5,40.4495115838199,-79.9446285465714,12.1700000762939,0.130233764648438,-0.919891357421875,0.260528564453125,0.0138753355954218,-0.000103064334186067,-0.079823726301272
1492638990.7,40.4495115838199,-79.9446285465714,12.1700000762939,0.2694091796875,-1.06512451171875,0.268661499023438,0.0849210166276837,0.144079411818268,-0.211678962399967
1492638990.9,40.4495115838199,-79.9446285465714,12.1700000762939,0.312026977539062,-0.924026489257812,0.326324462890625,0.0561306473472731,-0.0514120585278707,0.0721437023497015
1492638991.1,40.4495115838199,-79.9446285465714,12.1700000762939,0.0851593017578125,-1.02902221679688,0.290023803710938,-0.118987108027541,0.120969032510778,-0.0324506178826155
1492638991.3,40.4496182633568,-79.9446732746114,12.1400003433228,0.0758819580078125,-1.03836059570312,0.225784301757812,0.0622985284318966,-0.0599725235358214,0.0061236726105282
1492638991.5,40.4496182633568,-79.9446732746114,12.1400003433228,-0.007537841796875,-0.947540283203125,0.3577880859375,0.102746885384129,0.0312399448510655,-0.0203529423148216
1492638991.7,40.4496182633568,-79.9446732746114,12.1400003433228,0.221893310546875,-0.849807739257812,0.243743896484375,-0.139065212117867,0.129608327086995,-0.0390757637264056
1492638991.9,40.4496182633568,-79.9446732746114,12.1400003433228,0.02044677734375,-1.0196533203125,0.297927856445312,-0.0159802981210205,-0.0264912623113452,-0.0139560293764512
1492638992.1,40.4496182633568,-79.9446732746114,12.1400003433228,-0.0149078369140625,-0.949081420898438,0.315643310546875,0.00357236428623229,0.00741903416474274,-0.0234392797021144
1492638992.3,40.4497272925644,-79.9447189878092,12.7399997711182,0.0935516357421875,-0.957321166992188,0.246383666992188,-0.0363787804904824,0.00129003523203438,-0.0643486298390396
1492638992.5,40.4497272925644,-79.9447189878092,12.7399997711182,0.0091094970703125,-1.05123901367188,0.204025268554688,-0.0089940276334156,0.00430686411487614,-0.0406193318942156
1492638992.7,40.4497272925644,-79.9447189878092,12.7399997711182,0.0855865478515625,-0.985336303710938,0.169754028320312,-0.0427157723043259,-0.0146140964818098,0.000666589220846833
1492638992.9,40.4497272925644,-79.9447189878092,12.7399997711182,0.142471313476562,-0.993850708007812,0.188018798828125,-0.05569122576741,0.121615648023449,-0.0659230906754944
1492638993.1,40.4497272925644,-79.9447189878092,12.7399997711182,0.16650390625,-0.828720092773438,0.25225830078125,-0.00318301013486271,0.0340501124333171,-0.0598284465208481
1492638993.3,40.449836364057,-79.9447647187361,12.6300001144409,0.147750854492188,-0.934921264648438,0.198318481445312,-0.0863351551665158,-0.00582033856236818,0.00232973332160132
1492638993.5,40.449836364057,-79.9447647187361,12.6300001144409,0.0658416748046875,-0.946395874023438,0.153518676757812,0.00349779577571007,0.0169946961802316,-0.0128026143083379
1492638993.7,40.449836364057,-79.9447647187361,12.6300001144409,0.140487670898438,-0.907135009765625,0.239288330078125,-0.0730078981234322,0.094072437081523,-0.060698234932868
1492638993.9,40.449836364057,-79.9447647187361,12.6300001144409,0.0879364013671875,-0.9600830078125,0.20623779296875,0.04473338314617,0.0114108463226625,0.00575961848951437
1492638994.1,40.449836364057,-79.9447647187361,12.6300001144409,0.0659942626953125,-0.984161376953125,0.17462158203125,-0.10128081520404,0.0527745317415552,-0.0406230603197417
1492638994.3,40.4499386068649,-79.9448075865676,12.210000038147,0.0955047607421875,-1.02592468261719,0.139419555664062,-0.0462982566027005,0.0364642679614739,-0.0208261860405286
1492638994.5,40.4499386068649,-79.9448075865676,12.210000038147,0.0303192138671875,-0.88714599609375,0.1610107421875,-0.0515931534819961,-0.0507217671733221,0.00706616532030724
1492638994.7,40.4499386068649,-79.9448075865676,12.210000038147,0.118423461914062,-1.01243591308594,0.139022827148438,-0.0551010692698484,0.0375886545737054,0.000405066801801052
1492638994.9,40.4499386068649,-79.9448075865676,12.210000038147,0.0350494384765625,-0.966522216796875,0.230545043945312,-0.0161400877864252,-0.03606266326909,-0.00753568062048821
1492638995.1,40.4499386068649,-79.9448075865676,12.210000038147,0.125625610351562,-1.03756713867188,0.145553588867188,0.0168458254752962,0.0637089385452026,-0.0287797166360503
1492638995.3,40.4500352291631,-79.9448480978611,11.6899995803833,0.074432373046875,-1.04583740234375,0.11224365234375,0.0877482284409118,-0.0505625101401354,0.0191545198242859
1492638995.5,40.4500352291631,-79.9448480978611,11.6899995803833,0.035675048828125,-0.906280517578125,0.0504608154296875,-0.0493137539049973,-0.0496620953755796,0.0742582522552244
1492638995.8,40.4500352291631,-79.9448480978611,11.6899995803833,0.110443115234375,-1.00871276855469,0.035064697265625,-0.0188700942198654,-0.0360378958709522,0.0361510802172806
1492638995.9,40.4500352291631,-79.9448480978611,11.6899995803833,0.0350494384765625,-0.905075073242188,0.0391693115234375,-0.031626902157454,-0.0391466038114017,0.0328298520218428
1492638996.1,40.4500352291631,-79.9448480978611,11.6899995803833,0.0842437744140625,-0.952011108398438,0.0064697265625,-0.0934761553134542,0.0527196706230996,-0.0661321488210657
1492638996.3,40.4501334446522,-79.9448892771394,10.3800001144409,0.2232666015625,-1.0179443359375,0.0782470703125,0.0597472201076007,-0.181200681620664,0.125826372022974
1492638996.5,40.4501334446522,-79.9448892771394,10.3800001144409,0.15802001953125,-1.03974914550781,0.0534515380859375,-0.113551862558799,0.214522952128063,-0.1445888745348
1492638996.7,40.4501334446522,-79.9448892771394,10.3800001144409,-0.0657196044921875,-1.01611328125,0.1380615234375,0.0219947811268554,-0.158621869266755,0.0955275883011423
1492638996.9,40.4501334446522,-79.9448892771394,10.3800001144409,0.103286743164062,-0.983749389648438,0.07373046875,-0.0768830638256065,-0.0154545901218388,0.00671622595307083
1492638997.1,40.4501334446522,-79.9448892771394,10.3800001144409,-0.0194854736328125,-0.938827514648438,0.077178955078125,-0.00820679721518818,-0.0456817348103472,0.0298878579656323
1492638997.3,40.4502126801874,-79.9449224986015,8.78999996185303,0.122970581054688,-1.00759887695312,0.00244140625,-0.0358040703272433,0.060865481449325,0.00374120869934331
1492638997.5,40.4502126801874,-79.9449224986015,8.78999996185303,0.103927612304688,-0.904525756835938,0.0421600341796875,-0.0336985751694266,0.0225548439040991,-0.0153302204989321
1492638997.7,40.4502126801874,-79.9449224986015,8.78999996185303,0.0783843994140625,-0.99462890625,0.0212249755859375,-0.0075689701341142,0.013880129285384,0.0158798969479245
1492638997.9,40.4502126801874,-79.9449224986015,8.78999996185303,0.0206298828125,-0.973052978515625,0.0225372314453125,-0.0294023636989108,0.0469941405955382,-0.00468716351853946
1492638998.1,40.4502783869879,-79.9449500478063,7.09000015258789,0.0637054443359375,-0.956878662109375,0.015289306640625,-0.00377343294853327,-0.0244363672142401,0.0288122072013493
1492638998.3,40.4502783869879,-79.9449500478063,7.09000015258789,0.0466156005859375,-0.947982788085938,0.117355346679688,-0.0808730117707633,-0.00692128935700693,-0.00827364255854917
1492638998.5,40.4502783869879,-79.9449500478063,7.09000015258789,0.104263305664062,-0.997589111328125,0.0044708251953125,-0.0363122014632304,0.0608622856560169,-0.0367801188667573
1492638998.7,40.4502783869879,-79.9449500478063,7.09000015258789,0.0570526123046875,-0.986968994140625,0.03790283203125,-0.0145618985244443,-0.0392579239449671,0.0308724286206346
1492638998.9,40.4502783869879,-79.9449500478063,7.09000015258789,0.0806427001953125,-1.00306701660156,-0.0235595703125,-0.01152962330728,-0.000990962241618485,-0.0139762694007358
1492638999.1,40.4502783869879,-79.9449500478063,7.09000015258789,0.0037841796875,-1.00762939453125,-0.0274505615234375,-0.0174791251825171,-0.0413698106893999,0.00952373037423236
1492638999.3,40.4503305018491,-79.9449718982536,5.26999998092651,0.06591796875,-1.03413391113281,-0.0416412353515625,-0.0351614495562072,0.00661183003833972,0.0049540122597654
1492638999.5,40.4503305018491,-79.9449718982536,5.26999998092651,0.00927734375,-0.989883422851562,0.009857177734375,-0.0396640560112041,-0.0199513376224376,0.00817510559821624
1492638999.7,40.4503305018491,-79.9449718982536,5.26999998092651,0.032806396484375,-1.03297424316406,-0.0291900634765625,-0.0151765561040346,-0.0105362642206805,0.0137325901609936
1492638999.9,40.4503305018491,-79.9449718982536,5.26999998092651,0.0436553955078125,-1.00077819824219,0.0113983154296875,-0.0244076050744672,0.00122159199201935,-0.00558411617367815
1492639000.1,40.4503305018491,-79.9449718982536,5.26999998092651,0.0283355712890625,-1.01445007324219,0.0542449951171875,0.00333267978812516,-0.0127890321867785,-0.0169922993352506
1492639000.3,40.4503588166809,-79.9449837699487,2.91000008583069,0.049835205078125,-0.999237060546875,0.084075927734375,-0.00848456491688344,-0.00526427052675963,-0.0054043528000978
1492639000.5,40.4503588166809,-79.9449837699487,2.91000008583069,0.071136474609375,-0.963516235351562,0.127273559570312,-0.0212387096933819,-0.00411777967748052,-0.0066041068711785
1492639000.7,40.4503588166809,-79.9449837699487,2.91000008583069,0.0561981201171875,-0.983245849609375,0.15045166015625,-0.0232776258239466,0.000149669653262453,-0.0109008509739123
1492639000.9,40.4503588166809,-79.9449837699487,2.91000008583069,0.078857421875,-0.982391357421875,0.136703491210938,-0.00239844287772536,-0.0201936852816348,0.00855726921464261
1492639001.1,40.4503588166809,-79.9449837699487,2.91000008583069,0.0608978271484375,-0.984130859375,0.12200927734375,-0.00324745863324262,-0.0148716241592205,-0.00425972616358174
1492639001.3,40.4503787414209,-79.9449921238898,1.36000001430511,0.070068359375,-0.979476928710938,0.127349853515625,-0.0161054666922542,-0.0158508684920426,0.000942226393670035
1492639001.5,40.4503787414209,-79.9449921238898,1.36000001430511,0.07073974609375,-0.984893798828125,0.128189086914062,-0.00960522310358879,-0.00100108225376079,0.000970455901224874
1492639001.7,40.4503787414209,-79.9449921238898,1.36000001430511,0.0606842041015625,-0.978744506835938,0.124893188476562,-0.0191438671799256,-0.000939563232579955,-0.00232600489607521
1492639001.9,40.4503787414209,-79.9449921238898,1.36000001430511,0.0701446533203125,-0.9781494140625,0.132049560546875,-0.0106739496490376,-0.00737695621951949,-0.00222267424578013
1492639002.1,40.4503787414209,-79.9449921238898,1.36000001430511,0.072784423828125,-0.976211547851562,0.150604248046875,-0.0180551669263012,0.00224451216671878,-0.00232307541887612
1492639002.3,40.4503843067339,-79.9449944572852,0.419999986886978,0.0833282470703125,-0.952499389648438,0.2322998046875,-0.00538491172414022,-0.00421951243112154,0.00208818461073113
1492639002.5,40.4503843067339,-79.9449944572852,0.419999986886978,0.0733489990234375,-0.961074829101562,0.247726440429688,-0.0127488184543183,-0.00204504140107185,-0.0033238913565279
1492639002.7,40.4503843067339,-79.9449944572852,0.419999986886978,0.088043212890625,-0.9500732421875,0.25103759765625,-0.010688597035033,-0.00737668990341048,-0.00115661086142141
1492639002.9,40.4503843067339,-79.9449944572852,0.419999986886978,0.0841217041015625,-0.954147338867188,0.241470336914062,-0.0191824830157317,-0.00413029653460389,-0.00125195202844625
1492639003.1,40.4503843067339,-79.9449944572852,0.419999986886978,0.0836334228515625,-0.950454711914062,0.247970581054688,-0.0159283664797639,-0.00202453506067824,-0.00442271162229459
1492639003.3,40.4503851216472,-79.9449947989578,0.159999996423721,0.0699615478515625,-0.9525146484375,0.242568969726562,-0.0160402192455473,-0.00521393678215713,0.00198165816712796
1492639003.5,40.4503851216472,-79.9449947989578,0.159999996423721,0.0791015625,-0.949172973632812,0.230316162109375,-0.0181869934002601,-0.00945502081810832,0.000904409506190909
1492639003.7,40.4503851216472,-79.9449947989578,0.159999996423721,0.087310791015625,-0.93341064453125,0.316787719726562,-0.00730398560565132,0.00430100516047797,-0.00861559244251534
1492639003.9,40.4503851216472,-79.9449947989578,0.159999996423721,0.0816650390625,-0.916763305664062,0.363189697265625,0.00967047055029573,-6.39158661619017e-05,-0.00629810966192839
1492639004.1,40.4503851216472,-79.9449947989578,0.159999996423721,0.0949249267578125,-0.92095947265625,0.352005004882812,-0.0170223930555685,-0.00201707820962602,-0.00230150381404648
1492639004.3,40.4503887565397,-79.9449963229766,0.449999988079071,0.093841552734375,-0.906082153320312,0.373367309570312,-0.0267168320556749,-0.00514416196159706,0.00400459533115215
1492639004.5,40.4503887565397,-79.9449963229766,0.449999988079071,0.07940673828125,-0.8812255859375,0.444091796875,-0.00978498647716914,0.00432124518476257,0.0169480908611553
1492639004.7,40.4503887565397,-79.9449963229766,0.449999988079071,0.146759033203125,-0.821807861328125,0.43017578125,0.0190634397150052,-0.0735133660983293,0.0451658805071988
1492639004.9,40.4503887565397,-79.9449963229766,0.449999988079071,0.185714721679688,-0.89691162109375,0.510513305664062,0.00143890593696981,0.0244539440774346,-0.0139091577412658
1492639005.1,40.4503887565397,-79.9449963229766,0.449999988079071,0.129135131835938,-0.833724975585938,0.533721923828125,-0.0639190619552098,-0.0485068160947032,0.0527814559603894
1492639005.3,40.4504020356953,-79.9450018905918,2.22000002861023,-0.070068359375,-0.977249145507812,0.472625732421875,-0.0270257587421241,-0.0657758178672131,-0.00650423833030052
1492639005.5,40.4504020356953,-79.9450018905918,2.22000002861023,0.01446533203125,-0.833633422851562,0.503341674804688,0.0464066472590668,-0.0109471899768797,-0.0506748955381368
1492639005.7,40.4504020356953,-79.9450018905918,2.22000002861023,0.10015869140625,-0.890869140625,0.452682495117188,-0.0153576510581599,-0.042447325666446,0.00954823145626109
1492639005.9,40.4504020356953,-79.9450018905918,2.22000002861023,-0.0290069580078125,-0.917129516601562,0.417129516601562,-0.0316900190752889,-0.0742388111792669,0.0958263949754492
1492639006.1,40.4504020356953,-79.9450018905918,2.22000002861023,0.0927886962890625,-0.978775024414062,0.292327880859375,0.0205659952020279,0.038147119454295,-0.0809201497220576
1492639006.3,40.4504409574045,-79.9450182094831,4.76000022888184,0.210586547851562,-0.838226318359375,0.394882202148438,0.129960130666995,-0.0965640905974011,0.0996714669573056
1492639006.5,40.4504409574045,-79.9450182094831,4.76000022888184,0.244369506835938,-0.885040283203125,0.302322387695312,-0.00810373288100211,0.053238454403447,-0.00128657312261728
1492639006.7,40.4504409574045,-79.9450182094831,4.76000022888184,0.0948944091796875,-0.882476806640625,0.402816772460938,-0.0611429828349112,-0.0729876580991476,0.0699324796966087
1492639006.9,40.4504409574045,-79.9450182094831,4.76000022888184,0.111114501953125,-0.821121215820312,0.466140747070312,-0.0843007664098042,-0.0334791306956041,0.0717258523746681
1492639007.1,40.4504381710974,-79.9450170412548,6.69000005722046,0.0527496337890625,-0.858383178710938,0.424774169921875,-0.105560248759689,0.00387969307602743,0.0117037940425712
1492639007.3,40.4504381710974,-79.9450170412548,6.69000005722046,0.0169525146484375,-0.91766357421875,0.354568481445312,-0.0573514403909654,-0.0942830931237482,0.0924167498318207
1492639007.5,40.4504381710974,-79.9450170412548,6.69000005722046,-0.0841064453125,-0.929718017578125,0.310775756835938,-0.0199089933611054,0.033103891298012,-0.00562033516450322
1492639007.7,40.4504381710974,-79.9450170412548,6.69000005722046,-0.0643157958984375,-1.18617248535156,0.166000366210938,-0.00552472768136938,-0.063790431274559,-0.0201500094397575
1492639007.9,40.4504381710974,-79.9450170412548,6.69000005722046,-0.0087127685546875,-1.04437255859375,0.191207885742188,0.0880065550666495,-0.0707796312393629,-0.0106446548770467
1492639008.1,40.4504381710974,-79.9450170412548,6.69000005722046,0.0232086181640625,-0.987823486328125,0.236114501953125,-0.0122366925766961,-0.0424667667424035,0.0149113052594627
1492639008.3,40.4504425814358,-79.9450188903985,7.92999982833862,0.138504028320312,-1.02325439453125,0.170974731445312,0.0589749033914777,0.0698107732347921,-0.0688802647499184
1492639008.5,40.4504425814358,-79.9450188903985,7.92999982833862,0.113555908203125,-0.958953857421875,0.193374633789062,-0.0324128009951364,0.00126766467887772,-0.0429836863099879
1492639008.8,40.4504425814358,-79.9450188903985,7.92999982833862,0.104217529296875,-1.02751159667969,0.215988159179688,0.0202584000961238,0.0732585015820087,-0.0394315620480402
1492639008.9,40.4504425814358,-79.9450188903985,7.92999982833862,0.247711181640625,-0.884628295898438,0.378021240234375,-0.0145736164332406,0.177722593237021,-0.0827063318651738
1492639009.1,40.4504425814358,-79.9450188903985,7.92999982833862,0.170761108398438,-0.951492309570312,0.358688354492188,-0.0312069216535485,0.109766978017578,0.00579450589979441
1492639009.4,40.450625080217,-79.9450974369781,7.80000019073486,0.0767669677734375,-0.911788940429688,0.402633666992188,-0.0256853897654872,0.0118705079268102,0.0156996009421261
1492639009.5,40.450625080217,-79.9450974369781,7.80000019073486,0.189346313476562,-0.896484375,0.383102416992188,-0.00382270142869974,-0.0212440360155621,0.0341345346398726
1492639009.8,40.450625080217,-79.9450974369781,7.80000019073486,0.127716064453125,-0.913681030273438,0.3966064453125,0.0253370482949049,0.0679092762164755,-0.0244387640592211
1492639010.0,40.450625080217,-79.9450974369781,7.80000019073486,0.175308227539062,-0.86297607421875,0.407440185546875,-0.0465667032405805,0.0917749280091116,-0.0486932373710088
1492639010.1,40.4506969997767,-79.9451283922711,8.92000007629395,0.0953369140625,-0.924087524414062,0.487228393554688,-0.0651659539775849,0.106782639700035,-0.081975027829838
1492639010.4,40.4506969997767,-79.9451283922711,8.92000007629395,0.241165161132812,-0.812576293945312,0.392959594726562,-0.0757813140826408,0.15791426736512,-0.0566265279422458
1492639010.6,40.4506969997767,-79.9451283922711,8.92000007629395,0.0078887939453125,-1.01193237304688,0.445465087890625,0.120701118505116,-0.0709761725278108,0.0899147099876913
1492639010.8,40.4506969997767,-79.9451283922711,8.92000007629395,-0.15484619140625,-0.892684936523438,0.381790161132812,-0.0751757112507567,-0.0112055166026174,0.0397753761447695
1492639011.0,40.4506969997767,-79.9451283922711,8.92000007629395,-0.08392333984375,-0.936767578125,0.409683227539062,-0.04745806325743,-0.0496834006643002,0.0167017484603229
1492639011.2,40.4506969997767,-79.9451283922711,8.92000007629395,-0.0684967041015625,-0.936599731445312,0.3653564453125,0.0263421252903008,-0.106536829931421,0.039994554302483
1492639011.4,40.450784826961,-79.9451661944522,10.3500003814697,-0.12347412109375,-0.876251220703125,0.357223510742188,0.00347622417088043,-0.182964226894515,0.112460232827975
1492639011.6,40.450784826961,-79.9451661944522,10.3500003814697,-0.072601318359375,-0.93011474609375,0.390365600585938,-0.0996911743493721,-0.100405966785949,-0.007158843326242
1492639011.8,40.450784826961,-79.9451661944522,10.3500003814697,0.013275146484375,-0.879318237304688,0.333709716796875,-0.0117099193130784,-0.129696477719077,0.00661209635444873
1492639012.0,40.450784826961,-79.9451661944522,10.3500003814697,0.054840087890625,-0.99859619140625,0.363983154296875,-0.0240259740902589,-0.0604739967690833,0.0105722168953966
1492639012.2,40.450784826961,-79.9451661944522,10.3500003814697,-0.0066375732421875,-0.979721069335938,0.370513916015625,-0.0195561245166699,0.0352250991062601,-0.0301451193269339
1492639012.3,40.4508858516938,-79.9452096770628,11.8999996185303,-0.0605621337890625,-0.863616943359375,0.425277709960938,-0.0875924335171422,0.0420491830834791,-0.0351241653009461
1492639012.6,40.4508858516938,-79.9452096770628,11.8999996185303,0.107147216796875,-1.04658508300781,0.322601318359375,-0.0238589938899109,0.0118497352703076,-0.039724776084058
1492639012.7,40.4508858516938,-79.9452096770628,11.8999996185303,0.175033569335938,-0.88909912109375,0.245574951171875,-0.0919826545741378,0.0941936109111216,-0.0747536002179792
1492639012.9,40.4508858516938,-79.9452096770628,11.8999996185303,0.121337890625,-0.917373657226562,0.265960693359375,0.0168966918521167,-0.0745626515678205,0.0472788325160677
1492639013.1,40.4508858516938,-79.9452096770628,11.8999996185303,0.0771026611328125,-0.921615600585938,0.216629028320312,-0.0609986395038289,-0.00172732628302539,0.020704213262603
1492639013.3,40.4509908055816,-79.9452548508425,12.6300001144409,0.0621185302734375,-0.974090576171875,0.1917724609375,-0.046181077514737,0.0247602076027937,-0.0357217786495598
1492639013.5,40.4509908055816,-79.9452548508425,12.6300001144409,0.0384674072265625,-0.99542236328125,0.105545043945312,0.0316530011361368,-0.052329251207294,-0.0070043799830174
1492639013.7,40.4509908055816,-79.9452548508425,12.6300001144409,0.0426483154296875,-0.961395263671875,0.173797607421875,0.0340509113816441,-0.0725479702031755,0.0399857658708857
1492639013.9,40.4509908055816,-79.9452548508425,12.6300001144409,0.0877227783203125,-1.00570678710938,0.176864624023438,-0.0329433026842802,-0.043390351008443,0.0488205364711146
1492639014.1,40.4509908055816,-79.9452548508425,12.6300001144409,0.084564208984375,-0.913726806640625,0.110748291015625,0.0176357190546137,-0.00542832124990851,0.0311147762798318
1492639014.3,40.4510955467592,-79.9452999330685,12.1300001144409,0.053619384765625,-1.07435607910156,0.0902862548828125,-0.0953696628485006,-0.0121384219324722,0.0363723889038662
1492639014.5,40.4510955467592,-79.9452999330685,12.1300001144409,-0.03173828125,-1.01448059082031,0.0636138916015625,-0.000284958236638478,-0.0106329369682504,0.0149515189919229
1492639014.7,40.4510955467592,-79.9452999330685,12.1300001144409,0.065643310546875,-0.976699829101562,0.0559539794921875,-0.07864581015113,0.0483688643502371,-0.0627704405770586
1492639014.9,40.4510955467592,-79.9452999330685,12.1300001144409,0.1029052734375,-1.1641845703125,0.023834228515625,-0.00469382142126466,0.0117250993312919,-0.0395282347956101
1492639015.1,40.4510955467592,-79.9452999330685,12.1300001144409,0.0749053955078125,-0.909927368164062,-0.10101318359375,0.048363804344166,-0.0332855188843554,0.0272364147843494
1492639015.3,40.4511881203787,-79.9453397781889,10.3800001144409,0.077606201171875,-1.04483032226562,-0.048614501953125,0.0146918607856401,-0.0383902660618192,-0.00508157767598019
1492639015.5,40.4511881203787,-79.9453397781889,10.3800001144409,0.101394653320312,-1.02633666992188,-0.136032104492188,-0.0142716139656256,-0.0201145893972595,0.0201638578774259
1492639015.7,40.4511881203787,-79.9453397781889,10.3800001144409,-0.0135345458984375,-1.00294494628906,-0.0440521240234375,-0.0217708092791798,0.027793814400503,-0.0280161883515246
1492639015.9,40.4511881203787,-79.9453397781889,10.3800001144409,0.0584259033203125,-1.04362487792969,-0.0705718994140625,0.015058045435526,0.0201127251844964,0.000102265385859043
1492639016.1,40.4511881203787,-79.9453397781889,10.3800001144409,-0.0152740478515625,-1.00263977050781,-0.0629425048828125,-0.0480114681319485,-0.00500567758491294,0.00378621612176565
1492639016.3,40.4512582350036,-79.94536995661,7.80000019073486,0.02227783203125,-1.02168273925781,-0.120223999023438,-0.0462037143840027,0.0353987372093332,-0.0282859665699496
1492639016.5,40.4512582350036,-79.94536995661,7.80000019073486,0.0530242919921875,-1.05442810058594,-0.131973266601562,-0.0159802981210205,0.00861452717807931,0.00514522722603309
1492639016.7,40.4512582350036,-79.94536995661,7.80000019073486,0.0250396728515625,-1.04426574707031,-0.17431640625,-0.0184386621232726,-0.0137056922339838,0.016906012915932
1492639016.9,40.4512582350036,-79.94536995661,7.80000019073486,0.0359954833984375,-1.01951599121094,-0.144134521484375,-0.0319366277922302,-0.014685735515133,-0.00881879163368839
1492639017.1,40.4512582350036,-79.94536995661,7.80000019073486,0.026214599609375,-1.05097961425781,-0.138137817382812,0.00954130723742689,0.00419367976854778,0.0054179349216572
1492639017.3,40.4513059637219,-79.94539049979,5.01000022888184,0.0153961181640625,-1.01126098632812,-0.089080810546875,-0.0278894218836368,-0.0253477009392652,0.000846086278318174
1492639017.5,40.4513059637219,-79.94539049979,5.01000022888184,0.0448760986328125,-0.995834350585938,-0.073486328125,0.00729066980020092,-0.0138750692793128,0.00437530735489118
1492639017.7,40.4513059637219,-79.94539049979,5.01000022888184,0.104766845703125,-0.993896484375,0.0673065185546875,-0.0407429025687952,0.0438721168496383,-0.0335829939781172
1492639017.9,40.4513059637219,-79.94539049979,5.01000022888184,0.0691070556640625,-0.953445434570312,0.145187377929688,-0.0125983498527288,0.00433509362243098,-0.0108023140135794
1492639018.1,40.4513059637219,-79.94539049979,5.01000022888184,0.07464599609375,-0.962753295898438,0.1578369140625,-0.00343920623172833,-0.0169957614446677,0.00853836077090305
1492639018.3,40.4513207435429,-79.945396861254,1.1599999666214,0.0686187744140625,-0.963150024414062,0.249954223632812,-0.00861639139084237,-0.00526187368177856,0.00419021765913067
1492639018.5,40.4513207435429,-79.945396861254,1.1599999666214,0.0612945556640625,-0.946502685546875,0.264022827148438,-0.0116907445532298,-0.000988032764419397,-0.00224957217278993
1492639018.7,40.4513207435429,-79.945396861254,1.1599999666214,0.081512451171875,-0.923080444335938,0.404937744140625,0.0234201049422658,-0.00653513099894544,-0.00294199405621053
1492639018.9,40.4513207435429,-79.945396861254,1.1599999666214,0.0985260009765625,-0.903717041015625,0.4544677734375,-0.0148942610284862,-0.00415852604215873,-0.00334040295528639
1492639019.1,40.4513207435429,-79.945396861254,1.1599999666214,0.0533599853515625,-0.923919677734375,0.473037719726562,-0.0119237711486118,-0.0105581021416191,0.00950109350496669
1492639019.3,40.4513248306478,-79.9453986204073,0.550000011920929,0.026885986328125,-0.875473022460938,0.618545532226562,0.0237396842730753,0.0243096007463523,-0.00941560603397515
1492639019.5,40.4513248306478,-79.9453986204073,0.550000011920929,0.041900634765625,-0.84332275390625,0.59625244140625,0.0535090315701991,-0.0492740728047551,0.0315952105404821
1492639019.7,40.4513248306478,-79.9453986204073,0.550000011920929,0.0731658935546875,-0.85748291015625,0.550048828125,-0.0367521556753115,-0.0380517782872702,0.0189137700617427
1492639019.9,40.4513248306478,-79.9453986204073,0.550000011920929,0.135467529296875,-0.966323852539062,0.527755737304688,-0.077201311575871,-0.00906593298284774,0.0333518315954983
1492639020.1,40.4513248306478,-79.9453986204073,0.550000011920929,0.0945587158203125,-0.82440185546875,0.53704833984375,-0.022452045886022,-0.00305677629919295,-0.0727245377834478
1492639020.3,40.4513441712078,-79.945406944884,3.28999996185303,0.109329223632812,-0.765274047851562,0.490631103515625,-0.0540962585905616,0.0120513365648266,-0.00911466883079619
1492639020.5,40.4513441712078,-79.945406944884,3.28999996185303,0.227142333984375,-0.816497802734375,0.537185668945312,0.0457850654606423,-0.0768673511751751,0.11368581956163
1492639020.7,40.4513441712078,-79.945406944884,3.28999996185303,0.0825042724609375,-0.855758666992188,0.613006591796875,0.0509108516107178,-0.0609536320814066,0.059320315384861
1492639020.9,40.4513441712078,-79.945406944884,3.28999996185303,0.122482299804688,-0.916091918945312,0.524856567382812,-0.0463320787485445,0.0247753876210072,0.0527724012126832
1492639021.1,40.4513806681984,-79.9454226537544,5.23999977111816,0.112380981445312,-0.906051635742188,0.566253662109375,0.0156567240485758,0.0243695218708791,0.0363486867701645
1492639021.3,40.4513806681984,-79.9454226537544,5.23999977111816,0.079742431640625,-0.8988037109375,0.507247924804688,-0.0433477404310017,0.0449584202582817,0.00157259662369179
1492639021.5,40.4513806681984,-79.9454226537544,5.23999977111816,0.101119995117188,-0.914306640625,0.55712890625,-0.0121895546254017,0.037305826865939,-0.0226115692353178
1492639021.7,40.4513806681984,-79.9454226537544,5.23999977111816,0.0523529052734375,-0.72613525390625,0.5242919921875,-0.00904036663638298,-0.125452464205927,0.0471446091971277
1492639021.9,40.4513806681984,-79.9454226537544,5.23999977111816,0.0011444091796875,-0.736923217773438,0.457626342773438,-0.300315088748311,-0.00869681885576276,-0.0819521246444634
1492639022.1,40.4513806681984,-79.9454226537544,5.23999977111816,0.0857086181640625,-0.957855224609375,0.40435791015625,0.0221393907740467,0.11366158479571,-0.0768340616615491
1492639022.3,40.4513740999004,-79.9454198266571,9.11999988555908,0.017730712890625,-0.926849365234375,0.562576293945312,-0.12694676389357,-0.0842765316438845,-0.0298700147863287
1492639022.5,40.4513740999004,-79.9454198266571,9.11999988555908,-0.003570556640625,-0.889175415039062,0.482681274414062,0.00659878054899834,-0.0149387358186905,-0.0233505964378148
1492639022.7,40.4513740999004,-79.9454198266571,9.11999988555908,-0.0249481201171875,-0.945632934570312,0.474639892578125,0.0978850184980804,-0.180395075390915,0.0633081328011456
1492639022.9,40.4513740999004,-79.9454198266571,9.11999988555908,0.0364532470703125,-0.914749145507812,0.396148681640625,-0.072160480264569,-0.0909964860224815,0.0869255779801863
1492639023.1,40.4513740999004,-79.9454198266571,9.11999988555908,0.0905609130859375,-0.920318603515625,0.387924194335938,-0.0259881911814292,-0.0902374851118089,0.0596747821259505
1492639023.3,40.4515598467726,-79.9455006347358,11.8000001907349,0.111648559570312,-0.977493286132812,0.384185791015625,0.037608628281881,-0.076830599552132,0.0112454640189686
1492639023.5,40.4515598467726,-79.9455006347358,11.8000001907349,0.0583343505859375,-0.841476440429688,0.381378173828125,-0.036232040314419,-0.100813696748841,0.0244121324483203
1492639023.7,40.4515598467726,-79.9455006347358,11.8000001907349,0.0851593017578125,-0.955734252929688,0.383468627929688,0.076158151376887,-0.0823904809598904,0.0702962675015136
1492639023.9,40.4515598467726,-79.9455006347358,11.8000001907349,0.0714874267578125,-0.953842163085938,0.392715454101562,-0.0277501385586257,-0.0529969056925768,0.0531633532607068
1492639024.1,40.4516711278124,-79.9455490664588,13.789999961853,0.118667602539062,-0.974960327148438,0.345230102539062,-0.0606590864648438,0.0142236770660042,0.00467331508087105
1492639024.3,40.4516711278124,-79.9455490664588,13.789999961853,0.096954345703125,-0.866729736328125,0.283294677734375,-0.100793989356774,0.0187361372170345,-0.017073525748498
1492639024.5,40.4516711278124,-79.9455490664588,13.789999961853,0.0614013671875,-0.967422485351562,0.27056884765625,-0.00917112784590587,0.0372882500027445,-0.00978605174160517
1492639024.7,40.4516711278124,-79.9455490664588,13.789999961853,0.0315704345703125,-0.953338623046875,0.216064453125,-0.062445534924069,-0.00384107724022129,0.0473502052332818
1492639024.9,40.4516711278124,-79.9455490664588,13.789999961853,-0.02130126953125,-0.876480102539062,0.23443603515625,-0.0195665108449212,-0.0721948350426311,0.0671574658407462
1492639025.1,40.4516711278124,-79.9455490664588,13.789999961853,0.069488525390625,-0.969696044921875,0.202468872070312,-0.0360232484849568,0.0544741611492438,-0.0612835977404674
1492639025.3,40.4517936164392,-79.9456023759468,14.4399995803833,-0.0379638671875,-0.9625244140625,0.19671630859375,-0.0127693247947119,-0.086073366431361,0.029945382245178
1492639025.5,40.4517936164392,-79.9456023759468,14.4399995803833,0.0191650390625,-0.95361328125,0.193084716796875,-0.0340913914302133,-0.0199904860904618,-0.00989337713353536
1492639025.7,40.4517936164392,-79.9456023759468,14.4399995803833,0.121368408203125,-0.936965942382812,0.179962158203125,0.031862059281708,-0.0108443919588027,0.000354200424980539
1492639025.9,40.4517936164392,-79.9456023759468,14.4399995803833,0.0233917236328125,-0.9354248046875,0.124435424804688,0.00960389152304375,-0.036232306630528,-0.0211324495658878
1492639026.1,40.4517936164392,-79.9456023759468,14.4399995803833,0.0919952392578125,-0.973251342773438,0.118988037109375,-0.045138183631862,-0.0379987813815776,0.00923184791875968
1492639026.3,40.4519139435367,-79.9456547446942,14.1400003433228,0.03875732421875,-1.01492309570312,0.068267822265625,-0.0172394406844099,-0.00945981450807046,0.00944383554152999
1492639026.5,40.4519139435367,-79.9456547446942,14.1400003433228,0.0028533935546875,-0.9669189453125,0.100692749023438,-0.0356767712271375,-0.0327398371769981,0.0210434999854791
1492639026.7,40.4519139435367,-79.9456547446942,14.1400003433228,0.0928192138671875,-0.970611572265625,0.071929931640625,-0.0172588817603675,0.0341443883359059,-0.0429133788572098
1492639026.9,40.4519139435367,-79.9456547446942,14.1400003433228,0.139450073242188,-0.973388671875,0.05621337890625,-0.0494916530658145,-0.0252036239242919,0.0230150381404648
1492639027.1,40.4519139435367,-79.9456547446942,14.1400003433228,0.0662841796875,-1.033935546875,0.02587890625,0.0328602120582697,-0.0119139174525785,0.00463203608397482
1492639027.3,40.4520288851281,-79.9457047695621,13.0,0.122146606445312,-1.01211547851562,0.022796630859375,0.035493013111922,0.0550832260905449,0.00448609485623848
1492639027.5,40.4520288851281,-79.9457047695621,13.0,0.0882415771484375,-1.03056335449219,0.011138916015625,0.00358834325277277,0.0446521567329226,-0.00434334942181023
1492639027.7,40.4520288851281,-79.9457047695621,13.0,0.03662109375,-0.935455322265625,0.072418212890625,-0.0713556729831471,0.0174852504530242,0.00988645291470116
1492639027.9,40.4520288851281,-79.9457047695621,13.0,0.0108795166015625,-0.964797973632812,0.0955963134765625,-0.00897325497691298,-0.0137658796746196,0.0255327906350257
1492639028.1,40.4520288851281,-79.9457047695621,13.0,-0.040283203125,-1.00265502929688,0.0530548095703125,-0.0188602405238322,0.00756577434080611,-0.0183382609501766
1492639028.3,40.4521320847115,-79.9457496840745,11.3199996948242,-0.0990142822265625,-0.978530883789062,0.121871948242188,-0.0658170968641093,0.107858290464318,-0.0340048386947858
1492639028.5,40.4521320847115,-79.9457496840745,11.3199996948242,0.07489013671875,-0.94915771484375,0.051422119140625,0.00563791202769775,0.0457035727312858,0.00207220564419066
1492639028.7,40.4521320847115,-79.9457496840745,11.3199996948242,0.0526580810546875,-1.02015686035156,0.0707244873046875,-0.02302169604319,-0.103019859395862,0.0693340673996679
1492639028.9,40.4521320847115,-79.9457496840745,11.3199996948242,-0.0409698486328125,-0.979385375976562,0.147247314453125,-0.0113149725234197,-0.123308353212304,0.0588441421819548
1492639029.1,40.4521320847115,-79.9457496840745,11.3199996948242,-0.142349243164062,-0.97393798828125,0.224868774414062,-0.0443022173656861,-0.201803694761844,0.0917616122036612
1492639029.3,40.4522237828661,-79.9457895929362,10.1199998855591,-0.06280517578125,-1.01776123046875,0.08551025390625,-0.0302559068282812,-0.0763925095528139,-0.00970855375388386
1492639029.5,40.4522237828661,-79.9457895929362,10.1199998855591,0.0180816650390625,-0.9703369140625,0.0320587158203125,-0.0402699251591972,-0.06355660573085,0.0285394995057251
1492639029.7,40.4522237828661,-79.9457895929362,10.1199998855591,-0.0173797607421875,-1.03036499023438,0.0695953369140625,-0.0306367388641625,-0.0880875151637879,0.0116420087052814
1492639029.9,40.4522237828661,-79.9457895929362,10.1199998855591,-0.0202178955078125,-1.01397705078125,0.0559539794921875,0.0578997852594127,-0.0727080261846893,0.00931014485480801
1492639030.1,40.4522237828661,-79.9457895929362,10.1199998855591,0.1319580078125,-0.770645141601562,0.046356201171875,0.20132698892672,0.141190680983859,-0.237135053995599
1492639030.3,40.4523027758946,-79.9458239722742,8.89000034332275,0.132293701171875,-1.03150939941406,-0.026580810546875,0.0978016615559609,-0.110194415372536,0.0300734802936108
1492639030.5,40.4523027758946,-79.9458239722742,8.89000034332275,-0.20989990234375,-0.983001708984375,-0.1219482421875,0.0117232351185288,-0.257469087866681,0.169246284119517
1492639030.7,40.4523027758946,-79.9458239722742,8.89000034332275,-0.0766143798828125,-1.05036926269531,0.08526611328125,0.00878470317173538,-0.00220030369262347,-0.0979960723155367
1492639030.9,40.4523027758946,-79.9458239722742,8.89000034332275,0.073760986328125,-0.960922241210938,0.156646728515625,-0.00414574286892635,-0.0414630213275527,-0.0308556507057671
1492639031.1,40.4523027758946,-79.9458239722742,8.89000034332275,0.0836029052734375,-0.979095458984375,0.177017211914062,-0.00941880182728324,-0.019089272377579,-0.0224376648161356
1492639031.3,40.4523689274525,-79.9458527627486,6.96000003814697,0.149032592773438,-0.956329345703125,0.193710327148438,-0.0208445618520502,0.00544936022252014,-0.030081469776881
1492639031.5,40.4523689274525,-79.9458527627486,6.96000003814697,0.169219970703125,-0.951400756835938,0.262176513671875,-0.00210016883563649,0.0234171754650667,0.0105802063786668
1492639031.7,40.4523689274525,-79.9458527627486,6.96000003814697,0.146881103515625,-0.982009887695312,0.222824096679688,-0.00745924789720294,0.111736385643692,-0.0163579343635937
1492639031.9,40.4523689274525,-79.9458527627486,6.96000003814697,0.11138916015625,-0.960708618164062,0.278961181640625,0.0176943085985955,-0.00542938651434454,0.0268505227423969
1492639032.1,40.4523689274525,-79.9458527627486,6.96000003814697,0.206924438476562,-0.894073486328125,0.356399536132812,-0.0519862360588918,0.0907474804605591,-0.042348788706113
1492639032.3,40.4524248231262,-79.9458770896582,6.65000009536743,0.12469482421875,-0.904815673828125,0.343780517578125,0.0116428076536084,0.0414137528473862,0.0277338932759762
1492639032.5,40.4524248231262,-79.9458770896582,6.65000009536743,0.120437622070312,-0.909912109375,0.330474853515625,-0.0959443730117397,0.0336035003185108,0.0255863201729363
1492639032.7,40.4524248231262,-79.9458770896582,6.65000009536743,0.12933349609375,-0.899566650390625,0.365753173828125,-0.0101333279477515,0.0723990994982401,0.0018418422098988
1492639032.9,40.4524248231262,-79.9458770896582,6.65000009536743,0.071502685546875,-0.901443481445312,0.225250244140625,-0.0249615425812037,0.0405927002833148,0.0561490231587946
1492639033.1,40.4524248231262,-79.9458770896582,6.65000009536743,-0.0580596923828125,-0.952606201171875,0.233108520507812,-0.0337395878502139,-0.0986940868372465,0.0766766688411254
1492639033.3,40.4524865714032,-79.9459039637371,8.10999965667725,-0.0357818603515625,-1.00985717773438,0.0583648681640625,-0.0857625755321487,-0.00370312549575518,-0.0381860016062102
1492639033.5,40.4524865714032,-79.9459039637371,8.10999965667725,-0.121185302734375,-1.02548217773438,0.075103759765625,-0.0270683693195654,-0.0636474195240217,-0.00224531111504581
1492639033.7,40.4524865714032,-79.9459039637371,8.10999965667725,-0.0434112548828125,-1.00151062011719,0.03302001953125,-0.0291243296811066,-0.1891398311463,0.0790897591048462
1492639033.9,40.4524865714032,-79.9459039637371,8.10999965667725,0.02362060546875,-1.00010681152344,0.1029052734375,-0.0175078873222899,-0.0126588036094736,-0.0502586434597574
1492639034.1,40.4524865714032,-79.9459039637371,8.10999965667725,-0.02716064453125,-0.97955322265625,0.0337677001953125,-0.0244933588615678,-0.105145594577963,0.0202786401204084
1492639034.3,40.4524810264469,-79.9459015504618,7.21000003814697,0.043365478515625,-1.00674438476562,0.0509490966796875,-0.0179739405130538,-0.00839508270425678,-0.0140231410359212
1492639034.5,40.4524810264469,-79.9459015504618,7.21000003814697,0.0671539306640625,-1.00497436523438,0.0330352783203125,-0.0494298677285247,0.0311648437083253,-0.0283080708069973
1492639034.7,40.4524810264469,-79.9459015504618,7.21000003814697,0.025115966796875,-0.979904174804688,0.10675048828125,0.00328341130795869,-0.00959670098810054,-0.0116699718967272
1492639034.9,40.4524810264469,-79.9459015504618,7.21000003814697,0.0917205810546875,-0.984237670898438,0.103530883789062,-0.0305097060801658,0.00232174383833108,-0.0259074974003998
1492639035.1,40.4524810264469,-79.9459015504618,7.21000003814697,0.07830810546875,-0.981735229492188,0.167465209960938,-0.00771411241352352,-0.0307973274778943,0.00213292571704446
1492639035.3,40.4524810264469,-79.9459015504618,5.8600001335144,0.09490966796875,-0.952163696289062,0.186569213867188,-0.030012227588539,-0.0263977853570834,-0.000239151865889116
1492639035.5,40.4524810264469,-79.9459015504618,5.8600001335144,0.103607177734375,-0.948501586914062,0.20458984375,-0.0030317425849462,0.013847372403976,-0.00433163151301388
1492639035.7,40.4524810264469,-79.9459015504618,5.8600001335144,0.0169525146484375,-0.99566650390625,0.217544555664062,-0.049945189399455,0.0152170361526038,0.000515587987039341
1492639035.9,40.4524810264469,-79.9459015504618,5.8600001335144,0.103790283203125,-0.93182373046875,0.199249267578125,-0.00133903739609184,-0.0287110070799262,0.00432523992639769
1492639036.1,40.4524810264469,-79.9459015504618,5.8600001335144,0.0887603759765625,-0.936737060546875,0.211380004882812,0.00218405840997398,-0.00639771188669735,-0.00742462680303191
1492639036.3,40.4526508653087,-79.945979706984,5.59000015258789,0.112533569335938,-0.942733764648438,0.313674926757812,-0.0101040331757606,0.0372927773765976,-0.019391541161303
1492639036.5,40.4526508653087,-79.945979706984,5.59000015258789,0.0257720947265625,-0.94580078125,0.281234741210938,-0.0475107938470136,0.0460481857763421,-0.0048701226854279
1492639036.7,40.4526508653087,-79.945979706984,5.59000015258789,0.0220489501953125,-0.950637817382812,0.310211181640625,0.02937573208801,-0.0310364793437834,0.0153078499457755
1492639036.9,40.4526508653087,-79.945979706984,5.59000015258789,0.0091400146484375,-0.919509887695312,0.3564453125,-0.0106332032843594,-0.0637472880648997,0.0416379910111709
1492639037.1,40.4527066323552,-79.9460054230079,6.44999980926514,0.034149169921875,-0.906967163085938,0.402175903320312,-0.00611062312118681,-0.0286739891407741,0.0415937825370756
1492639037.3,40.4527066323552,-79.9460054230079,6.44999980926514,0.093048095703125,-0.957977294921875,0.264007568359375,-0.0466138411918749,0.000300404570960938,-0.0175374484103898
1492639037.5,40.4527066323552,-79.9460054230079,6.44999980926514,0.037261962890625,-1.01860046386719,0.17572021484375,-0.0296886535160943,0.0225316744026154,0.0028365328770434
1492639037.7,40.4527066323552,-79.9460054230079,6.44999980926514,0.038604736328125,-0.916046142578125,0.224319458007812,-0.029844981072082,-0.0444731923076692,0.0552523368197649
1492639037.9,40.4527066323552,-79.9460054230079,6.44999980926514,0.081329345703125,-0.980224609375,0.282958984375,-0.00586028597871936,-0.0499547767793793,0.011797270996833
1492639038.1,40.4527066323552,-79.9460054230079,6.44999980926514,0.0990447998046875,-0.994735717773438,0.415817260742188,0.0532293996557408,-0.0748004718531646,0.0380555067127963
1492639038.3,40.4527652227902,-79.9460324409894,7.30999994277954,0.0818023681640625,-0.955398559570312,0.381973266601562,0.0526725326718052,0.0390126468085708,-0.0144883952783581
1492639038.5,40.4527652227902,-79.9460324409894,7.30999994277954,0.139846801757812,-0.931289672851562,0.36480712890625,0.0215076889634799,0.0594311028862083,0.0171262563380816
1492639038.7,40.4527652227902,-79.9460324409894,7.30999994277954,0.207962036132812,-0.891494750976562,0.455108642578125,0.00712954855425113,-0.00217020997230557,0.0224690901169985
1492639038.9,40.4527652227902,-79.9460324409894,7.30999994277954,0.09088134765625,-0.934539794921875,0.414535522460938,-0.0256054949327849,0.0342091031503948,0.0220400548653868
1492639039.1,40.4527652227902,-79.9460324409894,7.30999994277954,0.0711669921875,-0.888351440429688,0.4180908203125,-0.0384688293139766,0.0130175314083073,0.0166319736397629
1492639039.3,40.4528367799553,-79.9460654383577,9.40999984741211,0.0387420654296875,-0.906143188476562,0.364364624023438,-0.0114915401036919,-0.038212633217111,0.0404970928001809
1492639039.5,40.4528367799553,-79.9460654383577,9.40999984741211,-0.029052734375,-0.898300170898438,0.332626342773438,-0.0722752625075514,0.0270638419457122,0.00452124858262752
1492639039.7,40.4528367799553,-79.9460654383577,9.40999984741211,-0.01129150390625,-1.05458068847656,0.364501953125,0.128977157908647,-0.101890146461451,0.0133118107087611
1492639039.9,40.4528367799553,-79.9460654383577,9.40999984741211,-0.116043090820312,-0.917755126953125,0.37420654296875,-0.0371915772551746,-0.0731495782934245,0.03179441499002
1492639040.1,40.4528367799553,-79.9460654383577,9.40999984741211,-0.102081298828125,-0.964691162109375,0.33172607421875,0.074748540211908,-0.141950747158968,0.0629720418715776
1492639040.3,40.4529271132491,-79.946107094018,11.0299997329712,0.0059814453125,-0.956710815429688,0.241592407226562,-0.00142479118319239,-0.0999724041604845,0.0492892528229685
1492639040.5,40.4529271132491,-79.946107094018,11.0299997329712,-0.0317535400390625,-0.929428100585938,0.242233276367188,-0.00289911716266026,-0.0712475486428899,0.0172136080218362
1492639040.7,40.4529271132491,-79.946107094018,11.0299997329712,0.0522308349609375,-0.984298706054688,0.227828979492188,-0.0644831194740886,-0.0793595373232712,-0.00045540054640355
1492639040.9,40.4529271132491,-79.946107094018,11.0299997329712,0.085479736328125,-0.95892333984375,0.17193603515625,-0.0356104585159945,0.0821257627475365,-0.0762777273098315
1492639041.1,40.4529271132491,-79.946107094018,11.0299997329712,-0.0146636962890625,-0.974563598632812,0.187530517578125,0.0238368896528632,-0.0193084505352925,-0.0402222545756847
1492639041.3,40.453024664848,-79.9461520782768,11.7299995422363,-0.0183563232421875,-1.02751159667969,0.20819091796875,0.0363460236090744,0.00933624383349079,-0.00498304071564726
1492639041.5,40.453024664848,-79.9461520782768,11.7299995422363,0.0887451171875,-0.984130859375,0.171600341796875,0.0164503460534195,0.0403122694205294,-0.0127301763266878
1492639041.7,40.453024664848,-79.9461520782768,11.7299995422363,0.01641845703125,-0.942779541015625,0.162078857421875,-0.0660794182314821,0.0514810344001037,-0.0455903883849575
1492639041.9,40.453024664848,-79.9461520782768,11.7299995422363,0.017181396484375,-0.960235595703125,0.159912109375,-0.0197910153248149,-0.0636926932625531,0.0106238822205441
1492639042.1,40.453024664848,-79.9461520782768,11.7299995422363,0.113113403320312,-0.938095092773438,0.0961761474609375,-0.0339955176309705,-0.00722648761793001,-0.00992533506661631
1492639042.3,40.4531243313937,-79.9461980378073,11.5699996948242,0.0154266357421875,-0.971176147460938,0.0254364013671875,-0.00378808033452871,-0.0361380307279392,0.0235111850515465
1492639042.5,40.4531243313937,-79.9461980378073,11.5699996948242,0.0586700439453125,-0.9468994140625,0.0632476806640625,-0.0236917473734539,-0.0179276015100864,0.00939962706743467
1492639042.7,40.4531243313937,-79.9461980378073,11.5699996948242,0.0096588134765625,-0.999496459960938,0.02545166015625,-0.0435408196100325,0.029004753748162,0.00694286096183657
1492639042.9,40.4531243313937,-79.9461980378073,11.5699996948242,0.0800933837890625,-1.02302551269531,0.0493316650390625,-0.0277575954096779,-0.0253500977842463,-0.0087484841809103
1492639043.1,40.4532179548745,-79.9462412106814,10.6999998092651,0.0120697021484375,-0.983428955078125,0.101119995117188,-0.0227109051439777,-0.03495398930729,0.00625496645226911
1492639043.3,40.4532179548745,-79.9462412106814,10.6999998092651,0.016632080078125,-0.99981689453125,0.0430450439453125,-0.0602383070126113,0.0312370153738664,-0.0166905631837446
1492639043.5,40.4532179548745,-79.9462412106814,10.6999998092651,0.0726318359375,-0.969863891601562,0.0275421142578125,-0.0175012294195647,0.0447869126840806,-0.0194866160122188
1492639043.7,40.4532179548745,-79.9462412106814,10.6999998092651,0.047637939453125,-1.01658630371094,0.0308990478515625,0.00336463772120611,0.0148694936303484,-0.00426878091128801
1492639043.9,40.4532179548745,-79.9462412106814,10.6999998092651,0.07598876953125,-0.975479125976562,0.0348052978515625,0.0234334207477162,-0.0320668563695351,-0.0178029655710707
1492639044.1,40.4533042208276,-79.9462809907568,9.52000045776367,0.047607421875,-0.962127685546875,0.001190185546875,-0.019022693350327,0.00544110442314089,-0.00767230078440928
1492639044.3,40.4533042208276,-79.9462809907568,9.52000045776367,0.003692626953125,-0.96429443359375,0.09039306640625,0.0187004508584274,-0.0171371752985509,0.0247586097061397
1492639044.5,40.4533042208276,-79.9462809907568,9.52000045776367,0.0342559814453125,-1.04144287109375,0.007232666015625,-0.0671606616340543,-0.00275370856714193,0.00358434851113765
1492639044.7,40.4533042208276,-79.9462809907568,9.52000045776367,-0.015960693359375,-1.01556396484375,0.048187255859375,-0.0171901722042435,-0.0243540755365566,-0.00224557743115481
1492639044.9,40.4533042208276,-79.9462809907568,9.52000045776367,0.044586181640625,-1.00814819335938,0.029541015625,-0.040497891748508,0.0374847912911923,-0.0548882826987511
1492639045.1,40.4533042208276,-79.9462809907568,9.52000045776367,0.037750244140625,-0.996200561523438,-0.01800537109375,-0.0366610755660308,0.0417200163727453,-0.0218072945861138
1492639045.3,40.4533776144297,-79.9463148349668,8.05000019073486,-0.0062713623046875,-1.01258850097656,-0.027557373046875,-0.0212373781128369,-0.0136921101124244,-0.0119104553431614
1492639045.5,40.4533776144297,-79.9463148349668,8.05000019073486,0.0015411376953125,-1.00741577148438,-0.0459442138671875,0.0188788826514627,-0.0245871021319385,0.0077202376840307
1492639045.7,40.4533776144297,-79.9463148349668,8.05000019073486,0.0311279296875,-1.01423645019531,-0.0157318115234375,-0.0214277941307776,-0.0253905778328155,-0.00441871688065947
1492639045.9,40.4533776144297,-79.9463148349668,8.05000019073486,0.0512542724609375,-0.996002197265625,-0.0313568115234375,-0.00739053834107889,-0.00527172737781185,-0.00752556060834591
1492639046.1,40.4533776144297,-79.9463148349668,8.05000019073486,0.05364990234375,-1.01840209960938,-0.0323333740234375,-0.00760891755046539,-0.0148420630711206,0.00315904168505199
1492639046.3,40.4534362505578,-79.9463418740188,6.15000009536743,0.058349609375,-1.02529907226562,-0.05902099609375,-0.041977277734047,-0.0326998897606469,0.0145816059165109
1492639046.5,40.4534362505578,-79.9463418740188,6.15000009536743,0.0634765625,-0.988418579101562,-0.0338287353515625,-0.0279866272634247,-0.0402392988066613,-0.000182692850779436
1492639046.7,40.4534362505578,-79.9463418740188,6.15000009536743,0.0308074951171875,-1.02508544921875,-0.0330963134765625,-0.00566188047750846,-0.00208685303018609,0.0234041259757254
1492639046.9,40.4534362505578,-79.9463418740188,6.15000009536743,0.0140533447265625,-1.01533508300781,-0.009185791015625,-0.0367929020399897,0.01831855355811,-0.0249468951952083
1492639047.1,40.4534362505578,-79.9463418740188,6.15000009536743,-0.000396728515625,-1.01765441894531,-0.0128021240234375,-0.0134074181918949,0.0149754874417336,-0.0236326251972542
1492639047.3,40.4534732498084,-79.9463589355933,3.76999998092651,0.061492919921875,-1.00238037109375,-0.0214691162109375,-0.026181536676569,0.0310157066872808,-0.0152750930643675
1492639047.5,40.4534732498084,-79.9463589355933,3.76999998092651,0.0581207275390625,-0.993911743164062,-0.0107879638671875,-0.0253125472128761,0.0225018469984065,-0.00564829835594906
1492639047.7,40.4534732498084,-79.9463589355933,3.76999998092651,0.052825927734375,-1.01313781738281,-0.011138916015625,-0.0223473836551819,0.0192938031492971,0.00931733538975122
1492639048.0,40.4534732498084,-79.9463589355933,3.76999998092651,0.0152130126953125,-1.00550842285156,0.0016632080078125,-0.0246938948916507,-0.0115389443710953,0.00830666575606615
1492639048.1,40.4534732498084,-79.9463589355933,3.76999998092651,0.0067901611328125,-1.00984191894531,-0.0065155029296875,-0.0176703401487848,0.0320242457920938,-0.0141243411573442
1492639048.3,40.4534954080606,-79.946369153494,1.9099999666214,0.021942138671875,-0.996414184570312,0.0176239013671875,-0.0193289568756861,-0.00412763337351381,0.00940868181514094
1492639048.5,40.4534954080606,-79.946369153494,1.9099999666214,0.0422821044921875,-1.00071716308594,0.08575439453125,-0.00451325909935728,-0.0201801031600754,0.00746936790934524
1492639048.7,40.4534954080606,-79.946369153494,1.9099999666214,0.037811279296875,-0.984573364257812,0.112991333007812,-0.0127235184239626,0.0032735576119254,-0.00227114377761957
1492639048.9,40.4534954080606,-79.946369153494,1.9099999666214,0.0451202392578125,-0.98101806640625,0.114151000976562,-0.0211375095719589,0.0054546865447003,-0.00876020208970665
1492639049.2,40.4535040713969,-79.9463731484441,0.610000014305115,0.0458221435546875,-0.986770629882812,0.0743408203125,-0.0212866465930034,0.00120215091606177,-0.000221042370476577
1492639049.3,40.4535040713969,-79.9463731484441,0.610000014305115,0.0296478271484375,-0.996673583984375,0.1072998046875,-0.000123836990688685,-0.0106358664454495,0.00322482176397695
1492639049.5,40.4535040713969,-79.9463731484441,0.610000014305115,0.034698486328125,-0.994949340820312,0.10284423828125,-0.011729360389036,-0.00417876606644333,-0.00117551930516098
1492639049.7,40.4535040713969,-79.9463731484441,0.610000014305115,0.026275634765625,-0.977340698242188,0.108306884765625,-0.0171542195295274,-0.0137166111944531,0.000925981111020551
1492639050.0,40.4535040713969,-79.9463731484441,0.610000014305115,0.040863037109375,-0.964080810546875,0.213119506835938,-0.0117067235197703,-0.00311536584317469,-0.00224424585060977
1492639050.1,40.4535040713969,-79.9463731484441,0.610000014305115,0.041595458984375,-0.955032348632812,0.21246337890625,-0.00751703849285766,-0.00846086278318174,-5.51274345646402e-05
1492639050.3,40.4535040624832,-79.9463731443336,0.0,0.04736328125,-0.9698486328125,0.2122802734375,-0.0212200675657514,0.00226475219100338,-0.00448795906900153
1492639050.5,40.4535040624832,-79.9463731443336,0.0,0.040069580078125,-0.970291137695312,0.184219360351562,-0.0171515563684373,-0.00946141240472451,0.00304745523537767
1492639050.7,40.4535040624832,-79.9463731443336,0.0,0.0361328125,-0.975006103515625,0.129013061523438,-0.0160189139568266,-0.0062781359537528,-0.000147805440499398
1492639050.9,40.4535040624832,-79.9463731443336,0.0,0.0429229736328125,-0.981185913085938,0.128585815429688,-0.0191385408577454,-0.00413109548293091,-0.00445014218152241
1492639051.1,40.4535040624832,-79.9463731443336,0.0,0.042633056640625,-0.975143432617188,0.12847900390625,-0.0212347149517468,0.00226501850711239,-0.00342189568464281
1492639051.3,40.4535079597826,-79.9463749415069,0.150000005960464,0.0459747314453125,-0.975189208984375,0.128890991210938,-0.02117479382722,0.00439155263754066,-0.00662541215989913
1492639051.5,40.4535079597826,-79.9463749415069,0.150000005960464,0.0547027587890625,-0.95404052734375,0.190322875976562,-0.0159789665404754,-0.000959803256864557,-0.000161121245949794
1492639051.7,40.4535079597826,-79.9463749415069,0.150000005960464,0.0483551025390625,-0.978790283203125,0.167861938476562,-0.012838034350836,-0.0041710428992821,0.00201175188744586
1492639051.9,40.4535079597826,-79.9463749415069,0.150000005960464,0.04461669921875,-0.970870971679688,0.159820556640625,-0.0149688295390084,-0.00628479385647799,0.000929176904328646
1492639052.1,40.4535079597826,-79.9463749415069,0.150000005960464,0.04644775390625,-0.958419799804688,0.177078247070312,-0.0138961082519245,-0.00522805153593455,0.000937432703707892
1492639052.3,40.4535083230886,-79.9463751090393,0.0,0.0436248779296875,-0.973159790039062,0.161834716796875,-0.0159962770875609,-0.00521473573048416,-0.0012165319859482
1492639052.5,40.4535083230886,-79.9463751090393,0.0,0.048309326171875,-0.967514038085938,0.16961669921875,-0.0149927979888191,-0.00947579347461094,0.000937166387598884
1492639052.7,40.4535083230886,-79.9463751090393,0.0,0.04193115234375,-0.96533203125,0.170913696289062,-0.0170450299248341,-0.00308047843289465,-0.00123277726859768
1492639052.9,40.4535083230886,-79.9463751090393,0.0,0.04296875,-0.973358154296875,0.163711547851562,-0.0128779817671872,-0.00948937559617034,0.00202506769289625
1492639053.1,40.4535083230886,-79.9463751090393,0.0,0.0453948974609375,-0.967178344726562,0.16845703125,-0.0149302137032022,-0.00309406055445406,-0.000144875963300311
1492639053.3,40.4535083678856,-79.9463751296966,0.0,0.0466156005859375,-0.969985961914062,0.16815185546875,-0.0138894503491993,-0.00629198439142121,-0.000125967519560748
1492639053.5,40.4535083678856,-79.9463751296966,0.0,0.0457763671875,-0.969970703125,0.166748046875,-0.0159962770875609,-0.00521473573048416,-0.0012165319859482
1492639053.7,40.4535083678856,-79.9463751296966,0.0,0.0450592041015625,-0.971649169921875,0.166763305664062,-0.0148942610284862,-0.00415852604215873,-0.00334040295528639
1492639053.9,40.4535083678856,-79.9463751296966,0.0,0.050018310546875,-0.9732666015625,0.171524047851562,-0.0128473554146513,-0.00736230883352405,0.000953677986357375
1492639054.1,40.4535083678856,-79.9463751296966,0.0,0.041900634765625,-0.967071533203125,0.173171997070312,-0.0170903036633655,-0.00520727887943193,0.000904675822299917
1492639054.3,40.4535084125641,-79.9463751502993,0.0,0.04876708984375,-0.971054077148438,0.165481567382812,-0.0159576612517548,-0.00202400242846022,-0.00229058485357715
1492639054.5,40.4535084125641,-79.9463751502993,0.0,0.0386505126953125,-0.969940185546875,0.169967651367188,-0.0191451987604706,-0.00306716262744426,-0.00338674195825377
1492639054.7,40.4535084125641,-79.9463751502993,0.0,0.054046630859375,-0.96722412109375,0.182235717773438,-0.011729360389036,-0.00417876606644333,-0.00117551930516098
1492639054.9,40.4535084125641,-79.9463751502993,0.0,0.040313720703125,-0.961074829101562,0.245941162109375,-0.00540754859340589,-0.00528291265439019,0.00315691115617993
1492639055.1,40.4535084125641,-79.9463751502993,0.0,0.0532684326171875,-0.954635620117188,0.255233764648438,-0.0139280661850054,-0.00948271769344514,0.000948085348068209
1492639055.3,40.4535084572226,-79.9463751708929,0.0,0.073211669921875,-0.9254150390625,0.318405151367188,-0.00195902129786229,0.00320218489471128,-0.0106904612477961
1492639055.5,40.4535084572226,-79.9463751708929,0.0,0.0919189453125,-0.926483154296875,0.3441162109375,-0.0103117597407868,0.0213393771825869,-0.0129552134387995
1492639055.7,40.4535084572226,-79.9463751708929,0.0,0.091949462890625,-0.922286987304688,0.361160278320312,-0.0123586653546217,0.0479470196335686,-0.00451512331212034
1492639055.9,40.4535084572226,-79.9463751708929,0.0,0.0755157470703125,-0.947128295898438,0.36785888671875,-0.0153318183955862,0.0617933267731086,-0.0131110083625691
1492639056.2,40.4535213003103,-79.9463810932641,1.38999998569489,0.113113403320312,-0.90484619140625,0.339752197265625,-0.0099855225072521,0.0745240357320143,-0.00775805457150983
1492639056.3,40.4535213003103,-79.9463810932641,1.38999998569489,0.096954345703125,-0.943588256835938,0.346710205078125,-0.022149777102298,0.117148461610951,-0.0293168762279193
1492639056.5,40.4535213003103,-79.9463810932641,1.38999998569489,0.122909545898438,-0.908203125,0.33453369140625,-0.0345430635510908,0.144883686467472,-0.0423099065541979
1492639056.7,40.4535213003103,-79.9463810932641,1.38999998569489,0.210723876953125,-0.967849731445312,0.32806396484375,-0.00504163025962901,0.202128866730943,-0.0656122997762822
1492639056.9,40.4535213003103,-79.9463810932641,1.38999998569489,0.061126708984375,-1.14328002929688,0.270095825195312,-0.0159366222791432,0.239436025177427,-0.0274364181822143
1492639057.1,40.4535213003103,-79.9463810932641,1.38999998569489,0.1632080078125,-0.964752197265625,0.262054443359375,0.0649568958320137,0.295279850075299,-0.0715333058278554
1492639057.3,40.4535414123663,-79.9463903675963,3.08999991416931,0.385101318359375,-0.979949951171875,0.283050537109375,0.0742031248206598,0.30053027216439,-0.121564249014411
1492639057.5,40.4535414123663,-79.9463903675963,3.08999991416931,0.295089721679688,-0.846542358398438,0.381912231445312,0.0663207006262433,0.265493192231089,-0.0319925541751219
1492639057.7,40.4535414123663,-79.9463903675963,3.08999991416931,0.259536743164062,-1.12908935546875,0.23089599609375,0.0701868115807113,0.398449112808314,0.0689942480445738
1492639057.9,40.4535414123663,-79.9463903675963,3.08999991416931,-0.0550689697265625,-1.02607727050781,0.263641357421875,-0.0623395411126838,0.335463222499068,-0.0857348786568119
1492639058.2,40.4535688201597,-79.9464030062335,4.30999994277954,0.183761596679688,-0.932144165039062,0.285507202148438,-0.00112651714110352,0.305272296801385,-0.139407162001833
1492639058.3,40.4535688201597,-79.9464030062335,4.30999994277954,0.171310424804688,-1.13352966308594,0.297805786132812,0.125155788060492,0.334242695771485,-0.0912755853047218
1492639058.5,40.4535688201597,-79.9464030062335,4.30999994277954,0.021881103515625,-0.825286865234375,0.405120849609375,-0.225092505862369,0.406719026941337,-0.137697146265893
1492639058.7,40.4535688201597,-79.9464030062335,4.30999994277954,0.143417358398438,-0.904327392578125,0.4136962890625,-0.073838804383537,0.38019074669084,-0.232039361565841
1492639058.9,40.4535688201597,-79.9464030062335,4.30999994277954,0.451873779296875,-0.90118408203125,0.150436401367188,-0.136349054122095,0.499740580656715,-0.190339318901271
1492639059.1,40.4535688201597,-79.9464030062335,4.30999994277954,0.351043701171875,-0.833831787109375,0.252914428710938,-0.0690259396615458,0.563128608290563,-0.172754199907369
1492639059.3,40.4535524302712,-79.9464637512025,5.40999984741211,0.449066162109375,-0.903167724609375,0.247634887695312,-0.122703283012638,0.479441700512022,-0.186948582201382
1492639059.5,40.4535524302712,-79.9464637512025,5.40999984741211,0.25,-0.990753173828125,0.387908935546875,-0.0316719095798763,0.323576735605718,0.000973119062314954
1492639059.7,40.4535524302712,-79.9464637512025,5.40999984741211,0.313644409179688,-0.882095336914062,0.204940795898438,-0.0131288515418726,0.43833021644836,-0.046046587879688
1492639059.9,40.4535524302712,-79.9464637512025,5.40999984741211,0.286270141601562,-0.925811767578125,0.251495361328125,-0.106395149761429,0.388932572969025,-0.105515773969484
1492639060.1,40.4535287034413,-79.9465348219007,6.38000011444092,0.2210693359375,-0.902450561523438,0.234024047851562,-0.0472487387957498,0.309843879128615,-0.0354021993187503
1492639060.3,40.4535287034413,-79.9465348219007,6.38000011444092,0.243377685546875,-0.961318969726562,0.15570068359375,-0.0589083243642257,0.304587598085126,-0.119738918403271
1492639060.5,40.4535287034413,-79.9465348219007,6.38000011444092,0.159652709960938,-0.854400634765625,0.26434326171875,-0.103685649668382,0.386792989349255,-0.0713636624664173
1492639060.8,40.4535287034413,-79.9465348219007,6.38000011444092,-0.0328216552734375,-1.0194091796875,0.307571411132812,-0.00575216163846215,0.264894247301931,-0.0572518381661964
1492639061.0,40.4535287034413,-79.9465348219007,6.38000011444092,-0.0830535888671875,-0.988983154296875,0.207077026367188,0.0401841713720966,0.0625067876291408,0.0546270265958143
1492639061.1,40.4535287034413,-79.9465348219007,6.38000011444092,-0.136871337890625,-0.76312255859375,0.305160522460938,-0.0457501780503622,0.00668000696224575,0.000580569117637274
1492639061.3,40.453504097065,-79.9466085271682,7.09999990463257,-0.099090576171875,-1.16673278808594,0.098358154296875,0.0331220007934245,0.15505003761274,-0.233561890761039
1492639061.5,40.453504097065,-79.9466085271682,7.09999990463257,-0.108901977539062,-0.672622680664062,0.206146240234375,-0.0606628148903699,0.138652422148904,-0.159844792839319
1492639061.7,40.453504097065,-79.9466085271682,7.09999990463257,-0.102951049804688,-0.79693603515625,0.0933837890625,0.0230200981465359,-0.0650250727559197,0.0718398356693235
1492639061.9,40.453504097065,-79.9466085271682,7.09999990463257,-0.0612945556640625,-1.04289245605469,0.610992431640625,-0.207961189518217,-0.248602093017262,0.118994564878594
1492639062.1,40.453504097065,-79.9466085271682,7.09999990463257,0.0817413330078125,-0.883682250976562,0.29486083984375,0.0408041552738671,-0.0747237728137703,0.0123389579625551
1492639062.3,40.4534766798794,-79.9466906518567,7.98000001907349,0.0236053466796875,-0.928314208984375,0.317352294921875,-0.116358834347742,0.0475555349533269,-0.0311680395016334
1492639062.5,40.4534766798794,-79.9466906518567,7.98000001907349,0.01708984375,-1.03742980957031,0.26727294921875,0.170730730111127,-0.134078709292802,-0.0202964832997119
1492639062.7,40.4534766798794,-79.9466906518567,7.98000001907349,0.111541748046875,-0.970687866210938,0.146133422851562,0.0854081087910592,0.0196418783037704,-0.0823409461636149
1492639062.9,40.4534766798794,-79.9466906518567,7.98000001907349,0.119125366210938,-1.06449890136719,0.485519409179688,-0.195084805647683,-0.0221199496980891,0.080158219334186
1492639063.1,40.4534766798794,-79.9466906518567,7.98000001907349,0.0755462646484375,-0.990890502929688,0.128097534179688,-0.0323960230802689,-0.0114859474654027,0.0263533105668791
1492639063.3,40.4534478645646,-79.9467786170378,8.40999984741211,0.0923614501953125,-0.986129760742188,0.119552612304688,-0.0167779148674992,-0.0371148782157803,0.0383077080680268
1492639063.5,40.4534478645646,-79.9467786170378,8.40999984741211,0.14727783203125,-0.81951904296875,0.218185424804688,-0.184956537706003,0.0862917456407475,-0.0554270401872741
1492639063.7,40.4534478645646,-79.9467786170378,8.40999984741211,0.22845458984375,-0.92138671875,0.117706298828125,-0.0669223087164922,-0.0197790310999095,-0.0230246255203891
1492639063.9,40.4534478645646,-79.9467786170378,8.40999984741211,0.0413360595703125,-0.970932006835938,0.1138916015625,-0.223777170599979,0.259926386604497,-0.080795513783042
1492639064.1,40.4534478645646,-79.9467786170378,8.40999984741211,0.237838745117188,-1.08734130859375,0.185562133789062,0.104723749861295,0.107810886196915,-0.0450532287930885
1492639064.3,40.4534197925868,-79.9468669059121,7.8899998664856,-0.0740814208984375,-0.912155151367188,0.07025146484375,-0.0688006362333251,-0.0325230558642657,0.0292335192857998
1492639064.5,40.4534197925868,-79.9468669059121,7.8899998664856,-0.0819854736328125,-1.03260803222656,0.0569610595703125,-0.0142814676616589,-0.0403143999494015,0.0873873701132061
1492639064.7,40.4534197925868,-79.9468669059121,7.8899998664856,-0.0363922119140625,-1.02818298339844,0.0574951171875,0.0348085807117717,-0.0438388273360124,0.00046951530018097
1492639064.9,40.4534197925868,-79.9468669059121,7.8899998664856,-0.228759765625,-1.110595703125,-0.144607543945312,0.0290313853590628,-0.143806704122644,-0.0984895560655284
1492639065.1,40.4534197925868,-79.9468669059121,7.8899998664856,0.232879638671875,-0.932159423828125,-0.099151611328125,0.0955992273344654,-0.515404495240234,0.357358135085046
1492639065.3,40.4533953856059,-79.9469436680444,6.5,0.0282745361328125,-0.956161499023438,-0.0101470947265625,-0.084326865388487,-0.0356187143153738,-0.00503630393744885
1492639065.5,40.4533953856059,-79.9469436680444,6.5,0.371368408203125,-0.759963989257812,-0.019989013671875,-0.232756817163508,0.00470021300788085,-0.0311829532037378
1492639065.7,40.4533953856059,-79.9469436680444,6.5,0.104537963867188,-0.996841430664062,-0.00360107421875,0.072461417467748,-0.187665505166832,0.127039441899505
1492639065.9,40.4533953856059,-79.9469436680444,6.5,-0.001068115234375,-1.00830078125,-0.0499267578125,-0.0186104360135827,-0.0424254877455073,0.013779728112288
1492639066.1,40.4533953856059,-79.9469436680444,6.5,0.021942138671875,-1.05784606933594,-0.126373291015625,0.00315957431727001,-0.0436364270931663,-0.0211793212010732
1492639066.3,40.4533770608382,-79.9470013010732,4.44000005722046,0.007598876953125,-1.06147766113281,-0.145858764648438,0.0235892156714859,-0.00547439393676688,-0.0146713544452465
1492639066.5,40.4533770608382,-79.9470013010732,4.44000005722046,0.022735595703125,-1.03237915039062,-0.1549072265625,-0.0275197751243338,-0.0476820351051057,0.0392912134585931
1492639066.7,40.4533770608382,-79.9470013010732,4.44000005722046,0.029296875,-1.05226135253906,-0.129241943359375,-0.0174138777358101,-0.00732901931989806,0.0232973332160132
1492639066.9,40.4533770608382,-79.9470013010732,4.44000005722046,0.0315704345703125,-1.03675842285156,-0.106491088867188,-0.0236504683765577,-0.0338855290779502,-0.00228712274416005
1492639067.1,40.4533770608382,-79.9470013010732,4.44000005722046,0.05072021484375,-1.01455688476562,-0.003448486328125,-0.0051825114812942,0.00322349018343191,-0.00859109136048661
1492639067.3,40.4533698505228,-79.9470239781584,1.73000001907349,0.043914794921875,-1.01258850097656,0.0611114501953125,-0.017172861657158,-0.00839721323312885,0.00517691884300503
1492639067.5,40.4533698505228,-79.9470239781584,1.73000001907349,0.040863037109375,-0.92938232421875,0.265167236328125,0.00545681707357236,0.0020905814557122,-0.00847923859470329
1492639067.7,40.4533698505228,-79.9470239781584,1.73000001907349,0.0533905029296875,-0.956192016601562,0.172286987304688,-0.0200235092879788,0.00225543112718811,-0.0140716105677607
1492639067.9,40.4533698505228,-79.9470239781584,1.73000001907349,0.0608062744140625,-0.96600341796875,0.200271606445312,-0.005444832848667,-0.00634604656154982,0.00529170108598745
1492639068.1,40.4533698505228,-79.9470239781584,1.73000001907349,0.0501556396484375,-0.965408325195312,0.213851928710938,-0.0116547918785138,-0.00205249825212407,-0.00544509916477601
1492639068.3,40.4533685415287,-79.9470280950616,0.0,0.06317138671875,-0.964935302734375,0.193344116210938,-0.0159816297015655,-0.00521500204659316,-0.00228259537030692
1492639068.5,40.4533685415287,-79.9470280950616,0.0,0.058929443359375,-0.960861206054688,0.201828002929688,-0.0149461926697427,-0.00522139363320935,-0.000139549641120152
1492639068.7,40.4533685415287,-79.9470280950616,0.0,0.0599517822265625,-0.962417602539062,0.203659057617188,-0.0160335613428221,-0.00627786963764379,0.000918257943859321
1492639068.9,40.4533685415287,-79.9470280950616,0.0,0.05694580078125,-0.9627685546875,0.1964111328125,-0.0170676667940998,-0.00414387865616329,-0.000164050723148881
1492639069.1,40.4533685397315,-79.9470281007139,0.0,0.0627593994140625,-0.957778930664062,0.208541870117188,-0.0149315452837473,-0.00522165994931836,-0.00120561302547887
1492639069.3,40.4533685397315,-79.9470281007139,0.0,0.05767822265625,-0.963104248046875,0.198715209960938,-0.0149315452837473,-0.00522165994931836,-0.00120561302547887
1492639069.5,40.4533685397315,-79.9470281007139,0.0,0.060760498046875,-0.963638305664062,0.200332641601562,-0.0149315452837473,-0.00522165994931836,-0.00120561302547887
1492639069.7,40.4533685397315,-79.9470281007139,0.0,0.0618438720703125,-0.961929321289062,0.20367431640625,-0.0149315452837473,-0.00522165994931836,-0.00120561302547887
1492639069.9,40.4533685397315,-79.9470281007139,0.0,0.0583343505859375,-0.9615478515625,0.199798583984375,-0.0149315452837473,-0.00522165994931836,-0.00120561302547887
1492639070.1,40.4533685397315,-79.9470281007139,0.0,0.0595550537109375,-0.964248657226562,0.202880859375,-0.0149315452837473,-0.00522165994931836,-0.00120561302547887
1492639070.3,40.4533685379395,-79.9470281063501,0.0,0.05853271484375,-0.962051391601562,0.199874877929688,-0.0138348555468526,-0.000973918010641977,-0.00120534670936986
1492639070.5,40.4533685379395,-79.9470281063501,0.0,0.058074951171875,-0.962814331054688,0.202377319335938,-0.0170516878275593,-0.002016545577408,-0.00016937704532904
1492639070.7,40.4533685379395,-79.9470281063501,0.0,0.05987548828125,-0.964797973632812,0.20025634765625,-0.0138734713826588,-0.00416465131266591,-0.000131293841740906
1492639070.9,40.4533685379395,-79.9470281063501,0.0,0.058807373046875,-0.963409423828125,0.2021484375,-0.0149395347670175,-0.00628532648869601,-0.00120294986438879
1492639071.1,40.4533685379395,-79.9470281063501,0.0,0.0590362548828125,-0.962860107421875,0.199722290039062,-0.0181323985979135,-0.00413695443732909,-0.000174969683618206
1492639071.3,40.4533685360752,-79.9470281122134,0.0,0.0599365234375,-0.96148681640625,0.202499389648438,-0.0160042665708312,-0.0062784022698618,-0.00121386882485812
1492639071.5,40.4533685360752,-79.9470281122134,0.0,0.059539794921875,-0.963623046875,0.20379638671875,-0.013881460865929,-0.00522831785204356,-0.000128630680650827
1492639071.7,40.4533685360752,-79.9470281122134,0.0,0.0601806640625,-0.961013793945312,0.197525024414062,-0.0138907819297443,-0.00841958378628551,-0.00118670458173931
1492639071.9,40.4533685360752,-79.9470281122134,0.0,0.0577239990234375,-0.962127685546875,0.199905395507812,-0.0160109244735564,-0.00521446941437515,-0.000150468601589477
1492639072.1,40.4533685360752,-79.9470281122134,0.0,0.059814453125,-0.96185302734375,0.199752807617188,-0.0149461926697427,-0.00522139363320935,-0.000139549641120152
1492639072.3,40.45336853427,-79.9470281178909,0.0,0.056915283203125,-0.96258544921875,0.202957153320312,-0.0149382031864725,-0.00415772709383171,-0.000142212802210231
1492639072.5,40.45336853427,-79.9470281178909,0.0,0.057708740234375,-0.961105346679688,0.20281982421875,-0.0160042665708312,-0.0062784022698618,-0.00121386882485812
1492639072.7,40.45336853427,-79.9470281178909,0.0,0.059539794921875,-0.963058471679688,0.199081420898438,-0.0106712864879475,-0.00312175742979088,-0.000101200121423011
1492639072.9,40.45336853427,-79.9470281178909,0.0,0.0568389892578125,-0.9615478515625,0.203262329101562,-0.0149461926697427,-0.00522139363320935,-0.000139549641120152
1492639073.1,40.45336853427,-79.9470281178909,0.0,0.06060791015625,-0.965042114257812,0.198272705078125,-0.0117613183221169,-0.00843343222395392,-0.00116486666080066
1492639073.3,40.4533686346164,-79.9470278022925,0.0,0.05926513671875,-0.964828491210938,0.201675415039062,-0.0149461926697427,-0.00522139363320935,-0.000139549641120152
1492639073.5,40.4533686346164,-79.9470278022925,0.0,0.0584716796875,-0.964569091796875,0.200531005859375,-0.0170823141800953,-0.00414361234005429,0.000902012661209838
1492639073.7,40.4533686346164,-79.9470278022925,0.0,0.05926513671875,-0.965072631835938,0.200927734375,-0.0127781132263092,-0.00204450876885383,-0.00119176458781046
1492639073.9,40.4533686346164,-79.9470278022925,0.0,0.057037353515625,-0.967483520507812,0.203460693359375,-0.0170450299248341,-0.00308047843289465,-0.00123277726859768
1492639074.1,40.4533686346164,-79.9470278022925,0.0,0.059600830078125,-0.961944580078125,0.203521728515625,-0.0149688295390084,-0.00628479385647799,0.000929176904328646
1492639074.3,40.453368632721,-79.9470278082537,0.0,0.05908203125,-0.966659545898438,0.202911376953125,-0.0191758251130065,-0.00519422939009055,-0.00231535225171489
1492639074.5,40.453368632721,-79.9470278082537,0.0,0.058807373046875,-0.963790893554688,0.202804565429688,-0.0149382031864725,-0.00415772709383171,-0.000142212802210231
1492639074.7,40.453368632721,-79.9470278082537,0.0,0.0581207275390625,-0.962875366210938,0.203628540039062,-0.0149315452837473,-0.00522165994931836,-0.00120561302547887
1492639075.0,40.453368632721,-79.9470278082537,0.0,0.0592803955078125,-0.963287353515625,0.203033447265625,-0.011797270996833,-0.00736896673624925,0.00203066033118542
1492639075.1,40.453368632721,-79.9470278082537,0.0,0.0583953857421875,-0.96148681640625,0.203903198242188,-0.0159802981210205,-0.00308740265172886,-0.00122185830812835
1492639075.3,40.4533686309045,-79.9470278139668,0.0,0.0598297119140625,-0.962356567382812,0.201309204101562,-0.0170610088913746,-0.00520781151164995,-0.00122745094641752
1492639075.5,40.4533686309045,-79.9470278139668,0.0,0.0573883056640625,-0.961456298828125,0.20794677734375,-0.0149768190222786,-0.00734846039585564,0.000931840065418725
1492639075.7,40.4533686309045,-79.9470278139668,0.0,0.0596160888671875,-0.962188720703125,0.199447631835938,-0.0138668134799336,-0.00522858416815257,-0.00119469406500955
1492639075.9,40.4533686309045,-79.9470278139668,0.0,0.060272216796875,-0.96441650390625,0.201431274414062,-0.0149528505724679,-0.0041574607777227,0.000923850582148488
1492639076.1,40.4533686309045,-79.9470278139668,0.0,0.059844970703125,-0.963287353515625,0.204803466796875,-0.014923555800477,-0.00415799340994071,-0.00120827618656895
1492639076.3,40.4533692021986,-79.9470260171958,0.0,0.056793212890625,-0.959197998046875,0.20025634765625,-0.0149608400557381,-0.00522112731710035,0.000926513743238567
1492639076.6,40.4533692021986,-79.9470260171958,0.0,0.0583343505859375,-0.961090087890625,0.200164794921875,-0.013881460865929,-0.00522831785204356,-0.000128630680650827
1492639076.7,40.4533692021986,-79.9470260171958,0.0,0.05841064453125,-0.96380615234375,0.202438354492188,-0.0128460238341062,-0.00523470943865975,0.00201441504853594
1492639076.9,40.4533692021986,-79.9470260171958,0.0,0.058990478515625,-0.961990356445312,0.20135498046875,-0.0117599867415719,-0.00630583282908962,-0.000104129598622098
1492639077.1,40.4533692021986,-79.9470260171958,0.0,0.058929443359375,-0.96099853515625,0.20208740234375,-0.0139040977351947,-0.0062917180753122,0.000940095864797971
1492639077.3,40.4533692003245,-79.9470260230902,0.0,0.0568389892578125,-0.96484375,0.199188232421875,-0.0138668134799336,-0.00522858416815257,-0.00119469406500955
1492639077.5,40.4533692003245,-79.9470260230902,0.0,0.06036376953125,-0.963760375976562,0.1968994140625,-0.0160242402790068,-0.00308660370340184,0.0019763318449478
1492639077.7,40.4533692003245,-79.9470260230902,0.0,0.0569915771484375,-0.961380004882812,0.199539184570312,-0.0170610088913746,-0.00520781151164995,-0.00122745094641752
1492639077.9,40.4533692003245,-79.9470260230902,0.0,0.058502197265625,-0.9637451171875,0.198165893554688,-0.0171142721131762,-0.00839827849756488,0.000912665305570155
1492639078.1,40.4533691984573,-79.9470260289627,0.0,0.0578460693359375,-0.959976196289062,0.198516845703125,-0.014923555800477,-0.00415799340994071,-0.00120827618656895
1492639078.3,40.4533691984573,-79.9470260289627,0.0,0.0589752197265625,-0.964935302734375,0.203994750976562,-0.0149461926697427,-0.00522139363320935,-0.000139549641120152
1492639078.5,40.4533691984573,-79.9470260289627,0.0,0.0574798583984375,-0.96624755859375,0.200637817382812,-0.0106646285852223,-0.00418569028527754,-0.00116460034469165
1492639078.7,40.4533691984573,-79.9470260289627,0.0,0.061920166015625,-0.961639404296875,0.195404052734375,-0.0159962770875609,-0.00521473573048416,-0.0012165319859482
1492639078.9,40.4533691984573,-79.9470260289627,0.0,0.0576629638671875,-0.96160888671875,0.206329345703125,-0.0171275879186266,-0.00627041278659157,0.00303946575210743
1492639079.2,40.4533686689121,-79.9470276944294,0.0,0.0600433349609375,-0.96514892578125,0.197189331054688,-0.0138668134799336,-0.00522858416815257,-0.00119469406500955
1492639079.3,40.4533686689121,-79.9470276944294,0.0,0.0569000244140625,-0.966796875,0.20068359375,-0.0149541821530129,-0.006285060172587,-0.000136886480030073
1492639079.5,40.4533686689121,-79.9470276944294,0.0,0.0604095458984375,-0.959060668945312,0.207122802734375,-0.018148377564454,-0.00626428751608438,-0.000169643361438047
1492639079.7,40.4533686689121,-79.9470276944294,0.0,0.0545501708984375,-0.962203979492188,0.2086181640625,-0.0160588613731778,-0.011596468650641,-0.000134489635049002
1492639079.9,40.4533686689121,-79.9470276944294,0.0,0.061370849609375,-0.962387084960938,0.202850341796875,-0.0149062452533915,9.69390636788843e-05,-0.000152865446570548
1492639080.1,40.4533686689121,-79.9470276944294,0.0,0.057952880859375,-0.963088989257812,0.20379638671875,-0.0128327080286558,-0.00736257514963306,-0.000112385398001344
1492639080.3,40.4533686670231,-79.9470277003706,0.0,0.063018798828125,-0.96551513671875,0.194992065429688,-0.0106499811992269,-0.00418595660138655,-0.00223066372905037
1492639080.6,40.4533686670231,-79.9470277003706,0.0,0.0563507080078125,-0.963134765625,0.205429077148438,-0.0181630249504494,-0.00626402119997538,0.000896420022920672
1492639080.7,40.4533686670231,-79.9470277003706,0.0,0.060943603515625,-0.962814331054688,0.202117919921875,-0.0149075768339366,-0.00203066033118542,-0.00121360250874911
1492639080.9,40.4533686670231,-79.9470277003706,0.0,0.061370849609375,-0.96234130859375,0.201416015625,-0.0149475242502877,-0.00734899302807366,-0.00120028670329871
1492639081.1,40.453368665126,-79.9470277063372,0.0,0.0553436279296875,-0.962921142578125,0.205581665039062,-0.0160109244735564,-0.00521446941437515,-0.000150468601589477
1492639081.3,40.453368665126,-79.9470277063372,0.0,0.062408447265625,-0.963211059570312,0.199493408203125,-0.0128313764481108,-0.00523497575476876,0.000948351664177217
1492639081.5,40.453368665126,-79.9470277063372,0.0,0.0552978515625,-0.962966918945312,0.203659057617188,-0.0182003092057105,-0.00732715510713501,0.00303120995272819
1492639081.7,40.453368665126,-79.9470277063372,0.0,0.067657470703125,-0.9649658203125,0.235092163085938,-0.0192677041706143,-0.0115754296780294,0.000898816867901743
1492639081.9,40.453368665126,-79.9470277063372,0.0,0.074493408203125,-0.92889404296875,0.399551391601562,0.0308599117635112,-0.00445573481981157,-0.000738760886387981
1492639082.1,40.4533670563566,-79.9470327660606,0.189999997615814,0.0666656494140625,-0.901275634765625,0.415267944335938,-0.00336730088229619,-0.019124692420077,0.00214730678693089
1492639082.3,40.4533670563566,-79.9470327660606,0.189999997615814,0.08221435546875,-0.922088623046875,0.405914306640625,-0.0244542103935436,-0.00303280784938224,-0.00450740014495911
1492639082.5,40.4533670563566,-79.9470327660606,0.189999997615814,0.0399169921875,-0.916595458984375,0.42376708984375,-0.0110214921712929,-0.0243916261079267,0.0138108870970419
1492639082.7,40.4533670563566,-79.9470327660606,0.189999997615814,0.158615112304688,-0.832077026367188,0.423690795898438,-0.0961129511087417,0.096359027193465,-0.00549756343825057
1492639082.9,40.4533670563566,-79.9470327660606,0.189999997615814,0.0819549560546875,-0.8662109375,0.41583251953125,-0.0687756025190783,0.0865985417983246,-0.0627680437320776
1492639083.2,40.4533614634284,-79.9470503563184,2.04999995231628,0.139297485351562,-0.882293701171875,0.384750366210938,-0.0330128111887312,0.0650948475764798,-0.0420883315515033
1492639083.3,40.4533614634284,-79.9470503563184,2.04999995231628,0.047943115234375,-0.914520263671875,0.472259521484375,-0.0340993809134836,-0.00935222280003126,-0.00352362843828384
1492639083.5,40.4533614634284,-79.9470503563184,2.04999995231628,0.0924224853515625,-0.911239624023438,0.348251342773438,-0.0209183314142454,-0.0700675019638757,0.011695005610974
1492639083.7,40.4533614634284,-79.9470503563184,2.04999995231628,-0.07843017578125,-0.936233520507812,0.425369262695312,-0.0456790716492571,-0.24858638036683,0.166503228196735
1492639083.9,40.4533614634284,-79.9470503563184,2.04999995231628,0.0798187255859375,-0.904922485351562,0.35382080078125,0.0335739392304109,0.0401998840225281,-0.0189518532653309
1492639084.1,40.4533614634284,-79.9470503563184,2.04999995231628,0.071990966796875,-0.980560302734375,0.303085327148438,-0.0378389917161728,-0.0103977798439964,-0.0419429229559849
1492639084.3,40.4533503004208,-79.9470854649732,4.19000005722046,0.108917236328125,-0.951553344726562,0.25311279296875,-0.0427711660549996,0.0768622911691039,-0.0230267560492611
1492639084.5,40.4533503004208,-79.9470854649732,4.19000005722046,0.0993499755859375,-0.863418579101562,0.299774169921875,-0.015358450006487,0.0426451985354388,-0.0215915785378174
1492639084.7,40.4533503004208,-79.9470854649732,4.19000005722046,0.0602569580078125,-1.01390075683594,0.253677368164062,-0.0328583478455066,0.112963570274,-0.0272832864195348
1492639084.9,40.4533503004208,-79.9470854649732,4.19000005722046,0.093658447265625,-0.963531494140625,0.341949462890625,-0.0699500565598033,0.0238549991482758,-0.0114398747785444
1492639085.1,40.4533341991403,-79.9471361049367,5.05000019073486,-0.0227508544921875,-0.85980224609375,0.289215087890625,-0.0414499718382113,0.0609059614978942,0.0271400083528885
1492639085.3,40.4533341991403,-79.9471361049367,5.05000019073486,0.054290771484375,-0.921844482421875,0.32440185546875,-0.0368048862648951,0.0108720888341395,-0.0281264432206539
1492639085.5,40.4533341991403,-79.9471361049367,5.05000019073486,0.221099853515625,-0.882080078125,0.240631103515625,-0.141392548594487,0.0753589367337542,-0.131720213831428
1492639085.7,40.4533341991403,-79.9471361049367,5.05000019073486,0.115768432617188,-0.95782470703125,0.26702880859375,-0.00513377563334575,-0.0637851049523788,0.0288998252012129
1492639085.9,40.4533341991403,-79.9471361049367,5.05000019073486,0.0919342041015625,-0.900894165039062,0.308685302734375,0.0289629421190477,-0.0352842212824598,0.0430361505834625
1492639086.1,40.4533341991403,-79.9471361049367,5.05000019073486,0.04156494140625,-0.971328735351562,0.34478759765625,-0.057271811874372,0.0184546410898131,-0.0070312779100272
1492639086.3,40.4533117449266,-79.9472067254416,6.42999982833862,0.159393310546875,-1.01356506347656,0.340179443359375,-0.0923640192422372,-0.00472151829660148,-0.023323964826914
1492639086.5,40.4533117449266,-79.9472067254416,6.42999982833862,0.0104217529296875,-0.955459594726562,0.356307983398438,-0.0155573881399159,-0.0222312698316545,0.0350831526201588
1492639086.7,40.4533117449266,-79.9472067254416,6.42999982833862,-0.1912841796875,-0.870330810546875,0.359344482421875,0.0374182122639403,-0.111932926932139,0.00600303141314761
1492639086.9,40.4533117449266,-79.9472067254416,6.42999982833862,0.007598876953125,-0.85736083984375,0.305130004882812,-0.0397767077253145,0.0385479251983519,-0.0292945056747626
1492639087.1,40.4533117449266,-79.9472067254416,6.42999982833862,0.0189971923828125,-0.955810546875,0.360443115234375,-0.168105119592418,-0.0255034958630348,-0.0251120111827932
1492639087.3,40.4532872952571,-79.9472836218334,7.73000001907349,0.0164947509765625,-0.996200561523438,0.359451293945312,-0.103957558415679,0.0091820468063752,-0.0245447578706063
1492639087.5,40.4532872952571,-79.9472836218334,7.73000001907349,-0.0432281494140625,-0.953094482421875,0.146286010742188,0.143474341618602,0.0256528992001883,-0.0423120370830699
1492639087.7,40.4532872952571,-79.9472836218334,7.73000001907349,0.051300048828125,-1.10102844238281,0.253143310546875,-0.0769975797524799,-0.0346011204628545,0.00463203608397482
1492639087.9,40.4532872952571,-79.9472836218334,7.73000001907349,0.0614471435546875,-0.778900146484375,0.326309204101562,-0.238325487002864,-0.0239836298289266,-0.0290335158879348
1492639088.1,40.4532872952571,-79.9472836218334,7.73000001907349,0.02142333984375,-0.940689086914062,0.2969970703125,-0.136760246194403,-0.106537628879748,0.0521854405084297
1492639088.3,40.4532587098142,-79.947373525601,8.5600004196167,-0.033721923828125,-0.805496215820312,0.286590576171875,-0.0519508160163937,-0.00923903845370289,-0.0218323283003606
1492639088.5,40.4532587098142,-79.947373525601,8.5600004196167,-0.013214111328125,-0.960830688476562,0.232879638671875,0.000408262595109147,-0.0542493903532411,0.0182698177101616
1492639088.7,40.4532587098142,-79.947373525601,8.5600004196167,-0.003326416015625,-0.849563598632812,0.235671997070312,-0.149545283639547,0.0179867236862862,-0.0346301489187364
1492639088.9,40.4532587098142,-79.947373525601,8.5600004196167,-0.026031494140625,-0.934661865234375,0.30841064453125,-0.0432832919326218,0.128985946340244,-0.0348948671310902
1492639089.1,40.4532587098142,-79.947373525601,8.5600004196167,-0.0694732666015625,-1.056396484375,0.1939697265625,-0.0766255361481959,0.0611227428106266,-0.0478556732081789
1492639089.3,40.4532264383079,-79.947481059461,8.96000003814697,-0.188262939453125,-0.931640625,0.350601196289062,-6.81769239060285e-05,0.0872089383201708,-0.102582302028762
1492639089.5,40.4532264383079,-79.947481059461,8.96000003814697,-0.064544677734375,-0.964187622070312,0.223342895507812,-0.112140387181057,0.0134990309333936,0.0308034527484015
1492639089.7,40.4532264383079,-79.947481059461,8.96000003814697,-0.0212554931640625,-1.03385925292969,0.14990234375,0.0896457307175933,-0.061235128208628,-0.12473740545324
1492639089.9,40.4532264383079,-79.947481059461,8.96000003814697,-0.008697509765625,-1.00814819335938,0.265945434570312,0.151899518043177,0.0457991802144197,-0.101985753944584
1492639090.1,40.4532264383079,-79.947481059461,8.96000003814697,0.008575439453125,-0.947479248046875,0.200469970703125,-0.0196786299268135,0.0735245513749076,-0.00039121836413264
1492639090.3,40.4531974456379,-79.9475791078329,9.39000034332275,0.103225708007812,-1.13302612304688,0.089508056640625,-0.0130638704112747,-0.487025584348241,0.453197845865945
1492639090.5,40.4531974456379,-79.9475791078329,9.39000034332275,0.0410308837890625,-0.868804931640625,0.225616455078125,0.0243141281202054,0.17428418595362,-0.0471142491607008
1492639090.7,40.4531974456379,-79.9475791078329,9.39000034332275,-0.8782958984375,-0.998733520507812,0.222579956054688,0.0720848464896108,0.987629561830359,-0.60102299375741
1492639090.9,40.4531974456379,-79.9475791078329,9.39000034332275,-0.262191772460938,-1.13006591796875,0.390457153320312,-0.0636311742413722,0.0971928629307688,-0.121384485640831
1492639091.1,40.4531974456379,-79.9475791078329,9.39000034332275,0.03302001953125,-0.94525146484375,0.126434326171875,-0.0449573549938456,0.107715278713781,-0.0796381039732935
1492639091.3,40.4531656275439,-79.9476862571454,9.88000011444092,-0.159194946289062,-0.715789794921875,0.3179931640625,-0.0168652665512538,-0.00840280587141801,-0.0172104122285281
1492639091.5,40.4531656275439,-79.9476862571454,9.88000011444092,0.745254516601562,-0.933380126953125,0.0956878662109375,-0.217267605947498,0.603369504993878,-0.677628822513539
1492639091.7,40.4531656275439,-79.9476862571454,9.88000011444092,-0.0306549072265625,-0.967758178710938,0.429443359375,0.154206614495512,-0.447714663497581,0.314068717881917
1492639091.9,40.4531656275439,-79.9476862571454,9.88000011444092,-0.0516815185546875,-1.10580444335938,0.296417236328125,-0.0023358585921085,-0.0255138821912861,0.00110814132958197
1492639092.1,40.4531656275439,-79.9476862571454,9.88000011444092,0.086517333984375,-0.932632446289062,0.3289794921875,-0.154129915456118,0.0637518154387528,-0.0635829710256418
1492639092.3,40.4531314178242,-79.9478018685605,10.7700004577637,0.120941162109375,-0.849029541015625,0.258895874023438,-0.306148210483912,0.0945243755185094,-0.0662850142676362
1492639092.5,40.4531314178242,-79.9478018685605,10.7700004577637,0.079559326171875,-0.970169067382812,0.182083129882812,-0.147206495570239,-0.0660471939822921,0.0594374944728245
1492639092.7,40.4531314178242,-79.9478018685605,10.7700004577637,0.0439910888671875,-0.906478881835938,0.233810424804688,-0.121278225513336,0.057169546488513,0.0220674854246146
1492639092.9,40.4531314178242,-79.9478018685605,10.7700004577637,-0.013214111328125,-0.842803955078125,0.253036499023438,0.0756148665145108,-0.107912086318338,0.0959457045922847
1492639093.1,40.4531314178242,-79.9478018685605,10.7700004577637,-0.0330047607421875,-0.94012451171875,0.385177612304688,0.0860691053736169,-0.112233065186991,0.107792244069284
1492639093.3,40.4530958206784,-79.9479246677893,11.210000038147,-0.0904083251953125,-0.881317138671875,0.235107421875,-0.0733756806699722,-0.190985135465615,0.043456397403477
1492639093.5,40.4530958206784,-79.9479246677893,11.210000038147,0.0286102294921875,-1.17243957519531,0.194320678710938,0.0687353887866181,-0.00151773550523616,-0.0430071221275806
1492639093.7,40.4530958206784,-79.9479246677893,11.210000038147,0.0250091552734375,-0.934402465820312,0.425872802734375,-0.109385879665588,0.0336738077712889,-0.0811728837095062
1492639093.9,40.4530958206784,-79.9479246677893,11.210000038147,0.260269165039062,-1.28334045410156,0.0384674072265625,0.197484313789845,0.134840373364565,-0.193443233151759
1492639094.2,40.4530594782913,-79.9480500378722,11.5500001907349,0.303558349609375,-0.717193603515625,0.165054321289062,-0.250173890692627,0.0463190292592031,0.0964770052297555
1492639094.3,40.4530594782913,-79.9480500378722,11.5500001907349,0.170394897460938,-0.9139404296875,0.40838623046875,0.04943918879234,0.0890457205239984,0.0930370000497002
1492639094.5,40.4530594782913,-79.9480500378722,11.5500001907349,-0.265121459960938,-1.09457397460938,-0.017425537109375,-0.0223524436612531,0.153296878667141,-0.149894424058456
1492639094.7,40.4530594782913,-79.9480500378722,11.5500001907349,-0.0210723876953125,-1.15255737304688,0.06884765625,0.456806961775221,-0.1210169694104,0.170252426379349
1492639094.9,40.4530594782913,-79.9480500378722,11.5500001907349,0.629791259765625,-0.844863891601562,0.343765258789062,-0.082309787178861,-0.743992400033332,0.470211450489916
1492639095.1,40.4530594782913,-79.9480500378722,11.5500001907349,0.49212646484375,-0.785629272460938,0.152908325195312,-0.0914300486479464,-0.215323498351741,0.104108559649487
1492639095.3,40.4530228914142,-79.9481762513704,11.7700004577637,0.21435546875,-1.01860046386719,0.0633087158203125,0.115703696719583,-0.181583910501527,0.00591807657437408
1492639095.5,40.4530228914142,-79.9481762513704,11.7700004577637,0.029022216796875,-0.623916625976562,0.385894775390625,-0.248521665552341,-0.112181666177953,0.122492094338195
1492639095.7,40.4530228914142,-79.9481762513704,11.7700004577637,-0.09588623046875,-1.23255920410156,0.280487060546875,0.362769678420087,-0.267207469024773,0.114223778101826
1492639095.9,40.4530228914142,-79.9481762513704,11.7700004577637,-0.0551605224609375,-1.3365478515625,0.251510620117188,-0.434569832989168,-0.0248435645449132,-0.0854174298548745
1492639096.1,40.4530228914142,-79.9481762513704,11.7700004577637,0.72607421875,-1.38766479492188,0.1241455078125,0.191096455599181,0.677351321127952,-0.363370487562009
1492639096.3,40.4529843903814,-79.9483097018394,12.1599998474121,0.0673675537109375,-1.03321838378906,0.18304443359375,-0.211229154491853,-0.00927206165121988,-0.0554494107404308
1492639096.5,40.4529843903814,-79.9483097018394,12.1599998474121,0.111923217773438,-1.095458984375,0.185928344726562,0.00362429592748884,0.00848190175579337,-0.0266401330162806
1492639096.7,40.4529843903814,-79.9483097018394,12.1599998474121,-0.170455932617188,-1.21084594726562,-0.030517578125,0.187217028839262,-0.106532835189786,-0.0425892721525472
1492639096.9,40.4529843903814,-79.9483097018394,12.1599998474121,0.2193603515625,-0.951507568359375,-0.17132568359375,0.0556946878768271,-0.284366482244263,0.0546147760548
1492639097.1,40.4529843903814,-79.9483097018394,12.1599998474121,0.277633666992188,-0.863082885742188,0.294296264648438,0.143685796609154,-0.164735954497358,0.0712001443754865
1492639097.3,40.452946830253,-79.9484440073485,12.0100002288818,0.0973052978515625,-0.701370239257812,0.21441650390625,-0.282737160289352,0.00610076942515352,0.0418704849743348
1492639097.5,40.452946830253,-79.9484440073485,12.0100002288818,0.09832763671875,-1.18038940429688,0.355819702148438,0.0836834456691239,0.0813494512897784,-0.0782529938903433
1492639097.7,40.452946830253,-79.9484440073485,12.0100002288818,-0.0400238037109375,-1.0428466796875,0.281173706054688,-0.0100760699843148,0.0585685050091316,-0.00985023392387608
1492639097.9,40.452946830253,-79.9484440073485,12.0100002288818,0.207672119140625,-0.956192016601562,-0.0154266357421875,0.0172133417057272,0.0775318098671498,-0.0480034786486783
1492639098.1,40.452946830253,-79.9484440073485,12.0100002288818,-0.108642578125,-0.470993041992188,0.307769775390625,0.0496474479895842,0.145411524995525,0.0310532572586509
1492639098.3,40.4529087004402,-79.948580349905,12.2600002288818,-0.0120086669921875,-1.60560607910156,0.385498046875,-0.305257116783171,-0.105463576012119,-0.0849516429802196
1492639098.5,40.4529087004402,-79.948580349905,12.2600002288818,0.0708160400390625,-0.804031372070312,0.122756958007812,0.0651039023241861,-0.0727519683426756,0.0275096551121915
1492639098.7,40.4529087004402,-79.948580349905,12.2600002288818,0.0313568115234375,-1.2596435546875,0.2532958984375,0.0430835548508659,-0.0736641010160278,0.0795310448974723
1492639098.9,40.4529087004402,-79.948580349905,12.2600002288818,-0.0389862060546875,-0.890228271484375,0.171417236328125,0.100560163813065,0.0684882474374588,0.00405146696633754
1492639099.1,40.4529087004402,-79.948580349905,12.2600002288818,0.0439910888671875,-1.12623596191406,0.135971069335938,0.177708478483243,-0.0511412150450096,0.0595269766854511
1492639099.3,40.4528706280346,-79.9487164871878,12.2399997711182,-0.127288818359375,-0.884384155273438,0.2740478515625,-0.0498224176732024,-0.136885414765637,0.0638159976210237
1492639099.5,40.4528706280346,-79.9487164871878,12.2399997711182,-0.10821533203125,-1.00616455078125,0.239334106445312,0.0222302045672184,-0.0543974621098495,-0.0198900849173658
1492639099.7,40.4528706280346,-79.9487164871878,12.2399997711182,-0.0451202392578125,-1.000732421875,0.224960327148438,-0.0308692328273265,-0.0689471100932794,-0.0385218262196692
