,timestamp,latitude,longitude,speed,accelerometerX,accelerometerY,accelerometerZ,gyroX,gyroY,gyroZ,potholes
0,1492637815.8,40.446398145,-79.9487552678,0.0,0.116546630859,-0.960144042969,0.184112548828,-0.0242771101811,-0.0126103340776,-0.0226065092292,False
1,1492637816.0,40.446398145,-79.9487552678,0.0,0.07958984375,-0.954772949219,0.198104858398,-0.0138787977048,-0.0126750488921,-0.00437424209046,False
2,1492637816.2,40.446398146,-79.9487552553,0.0,0.0689697265625,-0.962203979492,0.18766784668,-0.0160175823763,-0.00415053655889,0.000912931621679,False
3,1492637816.4,40.446398146,-79.9487552553,0.0,0.0706176757812,-0.964950561523,0.195770263672,-0.0181244091146,-0.00307328789795,-0.000177632844708,False
4,1492637816.6,40.446398146,-79.9487552553,0.0,0.0754852294922,-0.963241577148,0.201171875,-0.0138441766107,-0.00416518394488,-0.00226342061046,False
5,1492637816.8,40.446398146,-79.9487552553,0.0,0.0707397460938,-0.963088989258,0.199676513672,-0.0149608400557,-0.0052211273171,0.000926513743239,False
6,1492637817.0,40.446398146,-79.9487552553,0.0,0.0720672607422,-0.963302612305,0.192337036133,-0.0149009189312,-0.00309459318667,-0.00227700273202,False
7,1492637817.2,40.4463981471,-79.9487552428,0.0,0.0726318359375,-0.955688476562,0.193893432617,-0.0191638408881,0.00225223533388,0.000864195773731,False
8,1492637817.4,40.4463981471,-79.9487552428,0.0,0.0662078857422,-0.960586547852,0.200698852539,-0.0159669823156,-0.0052152683627,-0.00334865875467,False
9,1492637817.6,40.4463981471,-79.9487552428,0.0,0.0706939697266,-0.96565246582,0.194854736328,-0.0138787977048,-0.000973119062315,0.00199284344371,False
10,1492637817.8,40.4463981471,-79.9487552428,0.0,0.0681304931641,-0.960830688477,0.200256347656,-0.0138428450301,-0.00203758455002,-0.00120268354828,False
11,1492637818.0,40.4463981471,-79.9487552428,0.0,0.0731353759766,-0.960083007812,0.191665649414,-0.0160269034401,-0.00734180249313,-0.000145142279409,False
12,1492637818.2,40.4463981481,-79.9487552304,0.0,0.0720367431641,-0.960754394531,0.196517944336,-0.014954182153,-0.00628506017259,-0.00013688648003,False
13,1492637818.4,40.4463981481,-79.9487552304,0.0,0.0753326416016,-0.954742431641,0.234558105469,-0.0086004124243,-0.00313454060302,0.00418489133695,False
14,1492637818.6,40.4463981481,-79.9487552304,0.0,0.0692443847656,-0.937484741211,0.290023803711,0.00107272128708,0.00105674232054,8.25579937925e-06,False
15,1492637818.8,40.4463981481,-79.9487552304,0.0,0.0802307128906,-0.944351196289,0.333389282227,-0.0116521287174,0.0022027005376,-0.00332362504042,False
16,1492637819.0,40.4463981481,-79.9487552304,0.0,0.0815582275391,-0.907638549805,0.404006958008,0.0136923764285,-0.0160444803033,0.00231402067117,False
17,1492637819.2,40.4463972847,-79.948765659,0.5,0.0826263427734,-0.907379150391,0.415771484375,-0.00531433795525,-0.0084760428014,-0.00536360643542,False
18,1492637819.4,40.4463972847,-79.948765659,0.5,0.118041992188,-0.91569519043,0.359283447266,-0.0147038450105,0.019241871508,-0.00446505588363,False
19,1492637819.6,40.4463972847,-79.948765659,0.5,0.0940093994141,-0.913558959961,0.382232666016,-0.0497214838679,0.0215958395956,-0.0122931515918,False
20,1492637819.8,40.4463972847,-79.948765659,0.5,0.018310546875,-0.984100341797,0.382339477539,-0.0058419101672,0.0702307537387,-0.0791408917978,False
21,1492637820.0,40.4463972847,-79.948765659,0.5,0.150207519531,-1.00552368164,0.325668334961,0.0064509751085,0.0531479069264,0.0244518135486,False
22,1492637820.2,40.4463988289,-79.9487470069,2.31999993324,0.104385375977,-0.896942138672,0.346099853516,-0.0175923095288,0.0469286268327,0.0658040473748,False
23,1492637820.4,40.4463988289,-79.9487470069,2.31999993324,0.171447753906,-0.844970703125,0.370834350586,-0.0109908658188,-0.0573703488347,-0.00636175921198,False
24,1492637820.6,40.4463988289,-79.9487470069,2.31999993324,0.11083984375,-0.89436340332,0.25959777832,-0.103060605761,-0.00145994490958,-0.0181108269931,False
25,1492637820.8,40.4463988289,-79.9487470069,2.31999993324,0.067626953125,-0.960006713867,0.242095947266,-0.0175283936627,-0.0381774794907,0.0148460578128,False
26,1492637821.0,40.4463988289,-79.9487470069,2.31999993324,0.0768280029297,-1.03701782227,0.189987182617,0.0215324563616,-0.0341723515274,0.0418909913147,False
27,1492637821.2,40.4464016338,-79.9487131263,3.31999993324,0.100509643555,-0.985809326172,0.235580444336,0.0424752888579,0.0560946946726,-0.0380935899164,False
28,1492637821.4,40.4464016338,-79.9487131263,3.31999993324,0.000106811523438,-1.04148864746,0.28840637207,0.00230523223957,-0.0351228337204,-0.0318721792939,False
29,1492637821.6,40.4464016338,-79.9487131263,3.31999993324,0.175903320312,-0.850982666016,0.300033569336,0.00786990733729,0.0573897899107,0.00099868540878,False
30,1492637821.8,40.4464016338,-79.9487131263,3.31999993324,-0.113433837891,-0.784118652344,0.404251098633,-0.0371915772552,-0.0497457186338,0.0445285860583,False
31,1492637822.0,40.4464016338,-79.9487131263,3.31999993324,0.061767578125,-0.942840576172,0.329681396484,-0.0700965304198,-0.0112481271801,-0.0198804975374,False
32,1492637822.2,40.446405031,-79.9486720914,3.72000002861,0.163345336914,-0.929077148438,-0.0062255859375,0.0815888694718,-0.0122279041451,0.0232573857997,False
33,1492637822.4,40.446405031,-79.9486720914,3.72000002861,0.0281677246094,-1.01945495605,0.420257568359,-0.00208818461073,0.00745978052942,0.00102558333579,False
34,1492637822.6,40.446405031,-79.9486720914,3.72000002861,-0.0355072021484,-0.994995117188,0.308456420898,0.0315789652578,0.0327646045751,-0.0328138730553,False
35,1492637822.8,40.446405031,-79.9486720914,3.72000002861,0.0355072021484,-0.974884033203,0.289505004883,-0.0304444586335,0.024660605378,-0.0185009800928,False
36,1492637823.0,40.446405031,-79.9486720914,3.72000002861,0.155731201172,-0.930801391602,0.212692260742,-0.0352386812278,-0.0231734962253,-0.0056320530733,False
37,1492637823.2,40.4464089566,-79.9486246744,4.30000019073,-0.0235900878906,-0.821762084961,0.350509643555,-0.0331217344773,-0.0710462136645,0.0467576518907,False
38,1492637823.4,40.4464089566,-79.9486246744,4.30000019073,0.214767456055,-0.853927612305,0.152160644531,-0.0930194231865,0.138880122422,-0.0524890408727,False
39,1492637823.8,40.4464089566,-79.9486246744,4.30000019073,0.242294311523,-1.10192871094,0.373825073242,-0.0101527690237,0.162811021661,-0.0250470300522,False
40,1492637824.3,40.446412971,-79.9485761836,4.17000007629,0.0006103515625,-0.994293212891,0.219985961914,-0.0415977772787,-0.0348344133743,-0.014196779139,False
41,1492637824.4,40.446412971,-79.9485761836,4.17000007629,0.0610961914062,-0.98176574707,0.224517822266,-0.0658815453625,0.00042690472274,-0.0102715460083,False
42,1492637824.6,40.446412971,-79.9485761836,4.17000007629,-0.0556182861328,-1.00746154785,0.222686767578,-0.127732662731,0.108262824634,-0.0229114411741,False
43,1492637824.8,40.446412971,-79.9485761836,4.17000007629,0.108901977539,-1.1372833252,0.166320800781,-0.055670719427,0.0886246747557,-0.162863219619,False
44,1492637825.0,40.446412971,-79.9485761836,4.17000007629,0.0107879638672,-1.08656311035,0.197799682617,0.0102433165008,-0.111749701449,0.046240466007,False
45,1492637825.2,40.4464171001,-79.9485263088,4.11000013351,0.173751831055,-0.635803222656,0.11198425293,-0.25779053141,0.126119053427,-0.0807984432602,False
46,1492637825.4,40.4464171001,-79.9485263088,4.11000013351,0.232269287109,-0.987258911133,0.182067871094,-0.124249248025,0.279473190057,-0.183249717763,False
47,1492637825.6,40.4464171001,-79.9485263088,4.11000013351,0.195281982422,-0.978500366211,0.173904418945,-0.00865900196828,0.0553761738105,0.0402845725452,False
48,1492637825.8,40.4464171001,-79.9485263088,4.11000013351,0.0516052246094,-1.03315734863,0.213607788086,-0.0384416650709,0.0608761340937,-0.0368019567877,False
49,1492637826.0,40.4464171001,-79.9485263088,4.11000013351,0.089111328125,-0.909301757812,0.249847412109,-0.100400640464,0.0899919416593,-0.0844248697166,False
50,1492637826.2,40.4464209825,-79.9484794121,3.95000004768,0.170822143555,-0.981811523438,0.145111083984,-0.0505305522071,0.0556400930745,-0.0123892917072,False
51,1492637826.4,40.4464209825,-79.9484794121,3.95000004768,0.0563049316406,-1.04148864746,0.116119384766,-0.0124159233181,0.0734795439525,0.0135440383558,False
52,1492637826.6,40.4464209825,-79.9484794121,3.95000004768,0.0356597900391,-1.05610656738,0.151245117188,-0.0493939150538,0.0418023080504,-0.0251365122648,False
53,1492637826.8,40.4464209825,-79.9484794121,3.95000004768,0.140258789062,-0.923080444336,0.165008544922,-0.0181177512119,-0.00413722075344,-0.00124103306798,False
54,1492637827.0,40.4464209825,-79.9484794121,3.95000004768,0.0403137207031,-0.920883178711,0.0262298583984,-0.0247205265026,0.00441871688066,0.0189273521833,False
55,1492637827.2,40.4464242392,-79.9484400748,3.17000007629,0.0659332275391,-1.03820800781,0.0562896728516,0.0114151073804,-0.0181555680994,0.0118920795316,False
56,1492637827.4,40.4464242392,-79.9484400748,3.17000007629,-0.0264434814453,-1.00022888184,0.0344543457031,-0.0471531313126,-0.00713647277309,0.0176612854011,False
57,1492637827.6,40.4464242392,-79.9484400748,3.17000007629,-0.0275421142578,-0.966934204102,-0.0381164550781,0.0165076040169,0.0030778152718,-0.0371564235288,False
58,1492637827.8,40.4464242392,-79.9484400748,3.17000007629,0.0984649658203,-1.00407409668,0.0398101806641,0.0129951608552,0.0211891748971,-0.0041864892336,False
59,1492637828.0,40.4464242392,-79.9484400748,3.17000007629,-0.0272369384766,-1.00294494629,0.0573577880859,-0.0121701135494,-0.00629837597804,0.0297456451634,False
60,1492637828.2,40.4464262934,-79.948415262,1.64999997616,0.02783203125,-1.01817321777,0.172760009766,0.00600090088428,-0.0340764777281,0.00974530537693,False
61,1492637828.4,40.4464262934,-79.948415262,1.64999997616,0.0422821044922,-0.924270629883,0.234283447266,-0.0113956663044,-0.0254486347446,0.0404651348671,False
62,1492637828.6,40.4464262934,-79.948415262,1.64999997616,-0.0846557617188,-0.94221496582,0.221328735352,-0.0595655925213,-0.0964077630414,0.0198970091362,False
63,1492637828.8,40.4464262934,-79.948415262,1.64999997616,0.0745697021484,-0.958282470703,0.198944091797,-0.0135051562039,-0.133943953342,-0.0200506735311,False
64,1492637829.0,40.4464262934,-79.948415262,1.64999997616,-0.107620239258,-0.867034912109,0.260452270508,-0.11894449745,-0.0800921729392,-0.144949999179,False
65,1492637829.2,40.4464287138,-79.9483860264,2.00999999046,0.276351928711,-1.10711669922,0.169662475586,0.00376837294246,-0.0627712395254,0.0791004117492,False
66,1492637829.4,40.4464287138,-79.9483860264,2.00999999046,-0.0458984375,-0.936706542969,0.194717407227,0.0899365479086,-0.0239572645341,0.184371441215,True
67,1492637829.6,40.4464287138,-79.9483860264,2.00999999046,-0.0170593261719,-0.940063476562,0.162582397461,-0.0214938405258,-0.0211465643197,-0.0748004718532,True
68,1492637829.8,40.4464287138,-79.9483860264,2.00999999046,0.177597045898,-1.05093383789,0.125137329102,-0.0449506970911,0.118353275688,-0.0743344186624,True
69,1492637830.0,40.4464287138,-79.9483860264,2.00999999046,0.0718383789062,-1.00280761719,0.10075378418,0.0369979654439,0.0752931566548,0.0609586920875,True
70,1492637830.2,40.4464287138,-79.9483860264,2.00999999046,0.0383148193359,-0.975860595703,0.131195068359,-0.00354067266926,0.169148279791,-0.0377902558682,True
71,1492637830.4,40.4464306026,-79.9483632112,1.78999996185,-0.0109252929688,-0.972702026367,0.19548034668,0.045490253528,0.125212513392,-0.0648964420753,False
72,1492637830.6,40.4464306026,-79.9483632112,1.78999996185,0.123596191406,-0.924758911133,0.246292114258,-0.0176951075469,0.0905219107162,-0.0579903327365,False
73,1492637830.8,40.4464306026,-79.9483632112,1.78999996185,0.127639770508,-0.949798583984,0.174728393555,-0.0665060566381,0.0908622627035,0.0843817265069,False
74,1492637831.0,40.4464306026,-79.9483632112,1.78999996185,0.0234527587891,-0.945129394531,0.188125610352,-0.0413567612001,0.0226070418615,-0.000481765841195,False
75,1492637831.2,40.4464306026,-79.9483632112,1.78999996185,0.100570678711,-0.948303222656,0.195068359375,-0.0173981650854,0.073495522919,-0.0888635603054,False
76,1492637831.4,40.4464327687,-79.9483370463,1.5,0.113555908203,-0.957870483398,0.177764892578,0.00955994936506,0.0573839309563,0.0330024248605,False
77,1492637831.6,40.4464327687,-79.9483370463,1.5,0.0467529296875,-1.02122497559,0.177398681641,-0.0359984810868,0.0544861453741,0.0144178215095,False
78,1492637831.8,40.4464327687,-79.9483370463,1.5,0.0398712158203,-0.923095703125,0.180084228516,-0.00488823218084,0.0404515527455,-0.009750365383,False
79,1492637832.0,40.4464327687,-79.9483370463,1.5,0.0554962158203,-0.966690063477,0.149139404297,-0.0327283855843,0.047017310097,0.00487465005928,False
80,1492637832.2,40.4464340761,-79.9483212546,1.20000004768,0.0279388427734,-0.953765869141,0.13981628418,-0.0271543894228,0.0374038311941,-0.0185001811445,False
81,1492637832.4,40.4464340761,-79.9483212546,1.20000004768,0.0538940429688,-0.969467163086,0.185546875,-0.0189720932896,-0.00732555721048,-0.0183009766949,False
82,1492637832.6,40.4464340761,-79.9483212546,1.20000004768,0.0740509033203,-0.962295532227,0.206451416016,0.00327142708305,0.0180626237774,0.00425173668031,False
83,1492637832.8,40.4464340761,-79.9483212546,1.20000004768,0.027099609375,-0.948654174805,0.229965209961,-0.00947605979072,0.00644325194134,-0.0043785031482,False
84,1492637833.0,40.4464340761,-79.9483212546,1.20000004768,0.0684356689453,-0.937301635742,0.235076904297,-0.0232989311127,-0.010488061005,-0.0151384729004,False
85,1492637833.2,40.446434964,-79.9483105298,0.879999995232,0.0774383544922,-0.968185424805,0.203720092773,-0.0231697677998,0.0203601328498,-0.00775326088155,False
86,1492637833.4,40.446434964,-79.9483105298,0.879999995232,0.0269470214844,-0.949722290039,0.219879150391,-0.00171001573594,0.00319765752086,-0.0288135387819,False
87,1492637833.6,40.446434964,-79.9483105298,0.879999995232,0.0686798095703,-0.927841186523,0.224075317383,-0.0252552892494,-0.00303067732051,-0.0237074600239,False
88,1492637833.8,40.446434964,-79.9483105298,0.879999995232,0.0704498291016,-0.963027954102,0.232421875,-0.0416470457589,-0.00823822251605,0.00385971936785,False
89,1492637834.0,40.446434964,-79.9483105298,0.879999995232,0.046142578125,-0.940368652344,0.244720458984,-0.0126609341383,-0.0137485691275,-0.0160873571968,False
90,1492637834.2,40.4464361237,-79.9482965216,1.09000003338,0.12060546875,-0.945877075195,0.183563232422,-0.0678890361922,-0.0197614542367,0.0473355578473,False
91,1492637834.4,40.4464361237,-79.9482965216,1.09000003338,0.002685546875,-0.996963500977,0.143249511719,-0.0362861024845,0.00449222012675,0.00814660977455,False
92,1492637834.6,40.4464361237,-79.9482965216,1.09000003338,0.0883483886719,-0.972396850586,0.118759155273,-0.0223953205548,-0.0221939855764,-0.00976794224619,False
93,1492637834.8,40.4464361237,-79.9482965216,1.09000003338,0.0478668212891,-0.990219116211,0.103317260742,-0.0119131185043,-0.00523923681251,0.0116199044682,False
94,1492637835.0,40.4464361237,-79.9482965216,1.09000003338,0.0434417724609,-0.985397338867,0.0959320068359,-0.0161387562059,-0.0105312042146,0.00625922751001,False
95,1492637835.2,40.4464361237,-79.9482965216,1.09000003338,0.0573883056641,-0.981597900391,0.110626220703,-0.0225111680622,-0.00836232582285,0.00618838742502,False
96,1492637835.4,40.4464368037,-79.9482883073,0.579999983311,0.0428466796875,-0.985321044922,0.115570068359,-0.0170663352136,-0.0020162792613,0.00089668633903,False
97,1492637835.6,40.4464368037,-79.9482883073,0.579999983311,0.0547485351562,-0.974548339844,0.221984863281,-0.0096971021612,-0.0073822825417,0.00418462502084,False
98,1492637835.8,40.4464368037,-79.9482883073,0.579999983311,0.0470275878906,-0.945053100586,0.18684387207,-0.0138148818387,-0.0041657165771,-0.00439554737918,False
99,1492637836.0,40.4464368037,-79.9482883073,0.579999983311,0.0649719238281,-0.968872070312,0.203918457031,-0.00953198617361,-0.00100241383431,-0.00435986102057,False
100,1492637836.2,40.4464368187,-79.9482881263,0.0,0.0542297363281,-0.969329833984,0.193145751953,-0.0159523349296,0.006486395151,0.00195236339514,False
101,1492637836.4,40.4464368187,-79.9482881263,0.0,0.0385894775391,-0.989196777344,0.128448486328,0.00398728478407,-0.0244904293844,0.0065013088531,False
102,1492637836.6,40.4464368187,-79.9482881263,0.0,0.0255584716797,-1.00900268555,0.10270690918,-0.0127035447158,8.17590454654e-05,-0.00546134444743,False
103,1492637836.8,40.4464368187,-79.9482881263,0.0,0.0545349121094,-0.979782104492,0.123779296875,-0.0139120872185,-0.00735538461469,0.000942759025888,False
104,1492637837.0,40.4464368187,-79.9482881263,0.0,0.0609588623047,-0.986480712891,0.127029418945,-0.0201553357619,0.00225782797217,-0.00447704010853,False
105,1492637837.2,40.4464368496,-79.948287754,0.430000007153,0.0353851318359,-0.990295410156,0.122940063477,-0.0152165035204,-0.0275565267474,0.00737882043228,False
106,1492637837.4,40.4464368496,-79.948287754,0.430000007153,-0.00273132324219,-0.982620239258,0.149642944336,-0.000958205360211,-0.00531407163914,-0.0106582369986,False
107,1492637837.6,40.4464368496,-79.948287754,0.430000007153,-0.0105743408203,-0.976669311523,0.142044067383,0.00112012555449,-0.0914833118697,0.0237042642306,False
108,1492637837.8,40.4464368496,-79.948287754,0.430000007153,0.0266571044922,-0.968048095703,0.1572265625,0.0165669925092,-0.0820157741945,-0.0102808670721,False
109,1492637838.0,40.4464368496,-79.948287754,0.430000007153,0.0439453125,-0.974655151367,0.108001708984,-0.0185856686154,-0.124327012329,0.0449115486231,False
110,1492637838.2,40.4464368496,-79.948287754,0.430000007153,0.00108337402344,-1.00601196289,0.116104125977,-0.0029742183054,-0.160593940054,0.0515622608134,False
111,1492637838.4,40.4464360533,-79.9482973716,1.10000002384,0.118148803711,-1.00387573242,0.0941925048828,-0.0298875916495,-0.135960232603,0.00857457976173,False
112,1492637838.6,40.4464360533,-79.9482973716,1.10000002384,0.119979858398,-0.974166870117,0.132598876953,0.0209212608914,-0.168201526024,0.0134428382344,False
113,1492637838.8,40.4464360533,-79.9482973716,1.10000002384,0.174819946289,-0.94189453125,0.203552246094,0.00414574286893,-0.0638543471407,-0.0264481191017,False
114,1492637839.0,40.4464360533,-79.9482973716,1.10000002384,0.152069091797,-0.9462890625,0.225463867188,-0.0781981327719,-0.0292726677538,0.0174005619304,False
115,1492637839.2,40.4464360533,-79.9482973716,1.10000002384,0.0998229980469,-0.939102172852,0.195068359375,-0.00323946914997,-0.00210602779003,0.00210469620949,False
116,1492637839.4,40.4464340476,-79.9483215994,1.88999998569,0.187286376953,-0.98828125,0.204467773438,-0.0333030957475,0.104461162178,0.000455666862513,False
117,1492637839.6,40.4464340476,-79.9483215994,1.88999998569,0.0859375,-0.986541748047,0.216354370117,-0.0231591151554,0.0841886473279,0.0262009777525,False
118,1492637839.8,40.4464340476,-79.9483215994,1.88999998569,0.0352630615234,-0.97038269043,0.186004638672,0.00369540232859,0.103147424812,-0.0578039114602,False
119,1492637840.0,40.4464340476,-79.9483215994,1.88999998569,0.0442504882812,-0.944763183594,0.214080810547,-0.0434910184976,0.159840265465,-0.00299019727194,False
120,1492637840.2,40.4464340476,-79.9483215994,1.88999998569,-0.0197601318359,-0.951080322266,0.189498901367,-0.0160703129659,0.126686839371,-0.00155768292159,False
121,1492637840.4,40.4464325104,-79.9483401672,1.87999999523,-0.0377044677734,-0.961471557617,0.219833374023,-0.00777216932529,0.0447219315535,-0.0300489792116,False
122,1492637840.6,40.4464325104,-79.9483401672,1.87999999523,-0.0135803222656,-0.904602050781,0.201583862305,-0.00388342150155,0.0266161645665,-0.0129030154814,False
123,1492637840.8,40.4464325104,-79.9483401672,1.87999999523,-0.0252685546875,-0.945983886719,0.204025268555,-0.0242651259561,0.018239990306,-0.00669279013548,False
124,1492637841.0,40.4464325104,-79.9483401672,1.87999999523,0.0135040283203,-0.991470336914,0.270431518555,-0.010708038111,0.0947371620896,-0.0216783975894,False
125,1492637841.2,40.4464325104,-79.9483401672,1.87999999523,0.0277099609375,-0.935455322266,0.188079833984,-0.0825883538289,0.0228717600738,-0.0222288729867,False
126,1492637841.4,40.4464312381,-79.948355535,1.53999996185,0.109954833984,-1.00500488281,0.206695556641,0.00684645453038,0.00633299707221,-0.0298002399658,False
127,1492637841.6,40.4464312381,-79.948355535,1.53999996185,0.0384979248047,-0.927185058594,0.181274414062,-0.00630849599018,0.0223801405366,0.00627494016044,False
128,1492637841.8,40.4464312381,-79.948355535,1.53999996185,0.0908966064453,-0.960845947266,0.22428894043,-0.00921507000389,0.0372890489511,-0.00658786158853,False
129,1492637842.0,40.4464312381,-79.948355535,1.53999996185,0.0964965820312,-0.925659179688,0.201568603516,-0.00540888017395,-0.00741051204925,0.002096174094,False
130,1492637842.2,40.4464312381,-79.948355535,1.53999996185,0.0365142822266,-0.925888061523,0.200759887695,-0.0164436881507,-0.0179723426164,0.0244009471717,False
131,1492637842.4,40.4464286727,-79.9483865226,1.62000000477,0.0388946533203,-1.00807189941,0.206420898438,-0.0178527666835,-0.0254182747082,-0.0321036079926,False
132,1492637842.6,40.4464286727,-79.9483865226,1.62000000477,0.115982055664,-0.980316162109,0.230743408203,-0.0208477576454,-0.0275163130149,0.0297115567015,False
133,1492637842.8,40.4464286727,-79.9483865226,1.62000000477,0.0430603027344,-0.916687011719,0.200439453125,-0.00278326965524,-0.0265695592474,0.0330927060214,False
134,1492637843.0,40.4464286727,-79.9483865226,1.62000000477,0.0306549072266,-0.947463989258,0.207870483398,-0.0287517534446,-0.00619584427607,-0.00347702311921,False
135,1492637843.2,40.4464272867,-79.9484032642,1.20000004768,0.0712585449219,-0.948501586914,0.208374023438,-0.0279546693303,-0.0242827028193,0.00617374003902,False
136,1492637843.4,40.4464272867,-79.9484032642,1.20000004768,0.0859222412109,-0.965866088867,0.197555541992,-0.0283509477005,0.0374131522579,-0.00891652964569,False
137,1492637843.6,40.4464272867,-79.9484032642,1.20000004768,0.0679473876953,-0.969680786133,0.179244995117,-0.0320831016522,0.00872078730557,0.0145760132782,False
138,1492637843.8,40.4464272867,-79.9484032642,1.20000004768,0.0441436767578,-0.955810546875,0.233703613281,0.0242337006553,0.0413216074737,-0.0361098012204,False
139,1492637844.0,40.4464272867,-79.9484032642,1.20000004768,0.0663299560547,-0.949935913086,0.207214355469,-0.0254949737475,0.000165115987585,-0.0045263085887,False
140,1492637844.2,40.4464253544,-79.9484266043,1.36000001431,0.0822143554688,-0.963287353516,0.217163085938,-0.0210522884171,0.00119788985832,-0.0172780565202,False
141,1492637844.4,40.4464253544,-79.9484266043,1.36000001431,0.116256713867,-0.963912963867,0.234939575195,-0.019877035428,0.0373585574555,-0.00563098780886,False
142,1492637844.6,40.4464253544,-79.9484266043,1.36000001431,0.0304870605469,-0.925979614258,0.319976806641,-0.00427091144016,0.015985091811,0.009510947201,False
143,1492637844.8,40.4464253544,-79.9484266043,1.36000001431,0.0518188476562,-0.910049438477,0.334838867188,-0.00106606338436,-0.00212067517603,-0.00107165602265,False
144,1492637845.0,40.4464253544,-79.9484266043,1.36000001431,0.0641784667969,-0.938705444336,0.370056152344,-0.0151672350402,-0.0190469281162,0.00842357852792,False
145,1492637845.2,40.4464240168,-79.9484427614,1.04999995232,0.08837890625,-0.915008544922,0.378997802734,-0.00117924773069,-0.00743767629237,0.0042719767046,False
146,1492637845.4,40.4464240168,-79.9484427614,1.04999995232,0.0680084228516,-0.926773071289,0.369537353516,-0.012887302831,-0.000978711700604,0.00733407932597,False
147,1492637845.6,40.4464240168,-79.9484427614,1.04999995232,0.0706024169922,-0.916717529297,0.31901550293,-0.00954663355961,-0.0010021475182,-0.00329379763621,False
148,1492637845.8,40.4464240168,-79.9484427614,1.04999995232,0.0686187744141,-0.98649597168,0.148254394531,-0.027812190212,-0.0189662343352,-0.00130201945694,False
149,1492637846.0,40.4464240168,-79.9484427614,1.04999995232,0.0695037841797,-0.953750610352,0.245101928711,-0.00860840190757,-0.0041982071424,0.00418755449804,False
150,1492637846.2,40.446424085,-79.9484419369,0.0,0.0633544921875,-0.961486816406,0.190902709961,-0.0148929294479,-0.00203092664729,-0.00227966589311,False
151,1492637846.4,40.446424085,-79.9484419369,0.0,0.0684356689453,-0.946136474609,0.205963134766,-0.0203071359441,-0.0062499064462,0.00194064548634,False
152,1492637846.6,40.446424085,-79.9484419369,0.0,0.0639953613281,-0.962844848633,0.218658447266,-0.0160109244736,-0.00521446941438,-0.000150468601589,False
153,1492637846.8,40.446424085,-79.9484419369,0.0,0.0711517333984,-0.964660644531,0.2080078125,-0.0170823141801,-0.00414361234005,0.00090201266121,False
154,1492637847.0,40.446424085,-79.9484419369,0.0,0.0681610107422,-0.95573425293,0.214782714844,-0.0138588239967,-0.00416491762877,-0.0011973572261,False
155,1492637847.2,40.4464240058,-79.9484428937,0.0,0.0696868896484,-0.96223449707,0.203170776367,-0.0149461926697,-0.00522139363321,-0.00013954964112,False
156,1492637847.4,40.4464240058,-79.9484428937,0.0,0.0673065185547,-0.962615966797,0.211807250977,-0.0138734713827,-0.00416465131267,-0.000131293841741,False
157,1492637847.6,40.4464240058,-79.9484428937,0.0,0.0670776367188,-0.958694458008,0.214599609375,-0.0180951143427,-0.00307382053017,-0.00230975961343,False
158,1492637847.8,40.4464240058,-79.9484428937,0.0,0.0700225830078,-0.959808349609,0.201263427734,-0.0160109244736,-0.00521446941438,-0.000150468601589,False
159,1492637848.0,40.4464240058,-79.9484428937,0.0,0.0678558349609,-0.957946777344,0.205093383789,-0.0138894503492,-0.00629198439142,-0.000125967519561,False
160,1492637848.2,40.446424009,-79.9484428555,0.0,0.06884765625,-0.96125793457,0.213027954102,-0.0138814608659,-0.00522831785204,-0.000128630680651,False
161,1492637848.4,40.446424009,-79.9484428555,0.0,0.0693206787109,-0.959609985352,0.204986572266,-0.0160269034401,-0.00734180249313,-0.000145142279409,False
162,1492637848.6,40.446424009,-79.9484428555,0.0,0.0678558349609,-0.960083007812,0.210693359375,-0.0127861027096,-0.00310817530823,-0.00118910142672,False
163,1492637848.8,40.446424009,-79.9484428555,0.0,0.069580078125,-0.958938598633,0.199600219727,-0.0117360182918,-0.00311483321096,-0.000112119081892,False
164,1492637849.0,40.446424009,-79.9484428555,0.0,0.0677490234375,-0.960830688477,0.20947265625,-0.0181550354672,-0.0052003546606,0.000893756861831,False
165,1492637849.2,40.4464240122,-79.9484428173,0.0,0.0684356689453,-0.958084106445,0.208557128906,-0.0138814608659,-0.00522831785204,-0.000128630680651,False
166,1492637849.4,40.4464240122,-79.9484428173,0.0,0.0661163330078,-0.956817626953,0.19694519043,-0.0138961082519,-0.00522805153593,0.000937432703708,False
167,1492637849.6,40.4464240122,-79.9484428173,0.0,0.0698394775391,-0.954986572266,0.199798583984,-0.0181403880812,-0.00520062097671,-0.000172306522528,False
168,1492637849.8,40.4464240122,-79.9484428173,0.0,0.0676727294922,-0.958480834961,0.194305419922,-0.0160189139568,-0.00627813595375,-0.000147805440499,False
169,1492637850.0,40.4464240122,-79.9484428173,0.0,0.0664978027344,-0.95719909668,0.197937011719,-0.011758655161,-0.00417823343423,0.000956607463556,False
170,1492637850.2,40.4464240153,-79.9484427791,0.0,0.0685577392578,-0.960006713867,0.213409423828,-0.0117067235198,-0.00311536584317,-0.00224424585061,False
171,1492637850.4,40.4464240153,-79.9484427791,0.0,0.0691528320312,-0.961730957031,0.207397460938,-0.016038887665,-0.00308633738729,0.00304239522931,False
172,1492637850.6,40.4464240153,-79.9484427791,0.0,0.0736694335938,-0.96418762207,0.21501159668,-0.0159896191848,-0.00627866858597,-0.00227993220922,False
173,1492637850.8,40.4464240153,-79.9484427791,0.0,0.0612640380859,-0.951629638672,0.218200683594,-0.0150354085663,-0.00734739513142,0.00519609360285,False
174,1492637851.0,40.4464240153,-79.9484427791,0.0,0.0666351318359,-0.958343505859,0.216705322266,-0.019190472499,-0.00519396307398,-0.00124928886736,False
175,1492637851.2,40.4464240186,-79.9484427401,0.0,0.0664367675781,-0.963500976562,0.207260131836,-0.0181470459839,-0.00413668812122,0.000891093700741,False
176,1492637851.4,40.4464240186,-79.9484427401,0.0,0.06982421875,-0.956512451172,0.213775634766,-0.0159336928019,0.00116699718967,-0.00229857433685,False
177,1492637851.6,40.4464240186,-79.9484427401,0.0,0.0708770751953,-0.958770751953,0.210723876953,-0.018164356531,-0.00839162059484,-0.000164317039258,False
178,1492637851.8,40.4464240186,-79.9484427401,0.0,0.119384765625,-0.921478271484,0.264144897461,-0.0107431918374,-0.0126947562842,-7.72316716123e-05,False
179,1492637852.0,40.4464240186,-79.9484427401,0.0,0.0696258544922,-0.927185058594,0.343841552734,0.00720278548423,-0.0255754012125,0.00440460212688,False
180,1492637852.2,40.44642418,-79.9484407902,0.310000002384,0.0513153076172,-0.924285888672,0.340148925781,-0.00255556938204,-0.0372118172795,0.0107320065608,False
181,1492637852.4,40.44642418,-79.9484407902,0.310000002384,0.0620269775391,-0.915420532227,0.404800415039,0.00149696284873,-0.0510653149539,0.0182727471874,False
182,1492637852.6,40.44642418,-79.9484407902,0.310000002384,0.0291748046875,-0.917877197266,0.449035644531,-0.0242709849105,-0.0774905308703,0.0191433345477,False
183,1492637852.8,40.44642418,-79.9484407902,0.310000002384,0.0826721191406,-0.871795654297,0.376159667969,-0.0731581004089,-0.0846203457406,0.00799907065016,False
184,1492637853.0,40.44642418,-79.9484407902,0.310000002384,0.101623535156,-0.865020751953,0.415786743164,-0.102440089227,0.0304431270529,-0.0459083698191,False
185,1492637853.2,40.4464253961,-79.9484261002,1.97000002861,-0.0523376464844,-0.980743408203,0.443908691406,-0.102465389257,0.0485283876995,-0.0342269463297,False
186,1492637853.4,40.4464253961,-79.9484261002,1.97000002861,0.0267944335938,-0.9560546875,0.330459594727,-0.0409104154014,-0.0805659492971,0.0658943285357,False
187,1492637853.6,40.4464253961,-79.9484261002,1.97000002861,0.0171203613281,-0.929046630859,0.374008178711,-0.00979350859266,-0.107366404611,0.0342956558858,False
188,1492637853.8,40.4464253961,-79.9484261002,1.97000002861,0.133148193359,-0.896484375,0.359146118164,0.04474270421,-0.0790133263816,-0.0441189918827,False
189,1492637854.0,40.4464253961,-79.9484261002,1.97000002861,0.14323425293,-0.903915405273,0.341567993164,-0.0583357447299,-0.0081213097442,0.0559330407944,False
190,1492637854.2,40.4464280949,-79.948393502,3.43000006676,0.0739440917969,-1.01429748535,0.305252075195,-0.146955625796,0.0584017911249,0.0313973376715,False
191,1492637854.4,40.4464280949,-79.948393502,3.43000006676,0.0133819580078,-0.921127319336,0.366287231445,-0.119671007795,0.0858632430214,-0.0792804414389,False
192,1492637854.6,40.4464280949,-79.948393502,3.43000006676,0.147506713867,-1.0186920166,0.254837036133,-0.0869833685758,0.118620124429,-0.115281585687,False
193,1492637854.8,40.4464280949,-79.948393502,3.43000006676,0.00369262695312,-1.00395202637,0.372253417969,-0.0327278529521,0.110833574034,-0.0379385939409,False
194,1492637855.0,40.4464280949,-79.948393502,3.43000006676,-0.00355529785156,-1.02172851562,0.294723510742,-0.00600303141315,0.0936375428755,-0.0546800235015,True
195,1492637855.2,40.4464322332,-79.9483435152,4.40999984741,0.134460449219,-1.10549926758,0.237411499023,0.0921546947806,0.0653377278679,-0.083456011712,True
196,1492637855.4,40.4464322332,-79.9483435152,4.40999984741,0.0504302978516,-0.956390380859,0.311431884766,-0.0177499686654,-0.0924154182513,0.0789566010503,True
197,1492637855.6,40.4464322332,-79.9483435152,4.40999984741,-0.0733947753906,-0.858016967773,0.165283203125,0.11364214372,-0.0496586332662,0.0727279998929,True
198,1492637855.8,40.4464322332,-79.9483435152,4.40999984741,-0.124252319336,-0.948883056641,0.31477355957,0.120290991697,-0.152882224485,0.0751948860106,True
199,1492637856.0,40.4464322332,-79.9483435152,4.40999984741,0.170822143555,-0.754302978516,0.279891967773,0.0132095453229,-0.0224310069134,-0.0435216448502,False
200,1492637856.2,40.4464366445,-79.9482902306,4.98000001907,0.240341186523,-1.18650817871,0.196136474609,-0.0276129857625,0.00231881436113,0.0732800731868,False
201,1492637856.4,40.4464366445,-79.9482902306,4.98000001907,-0.0593109130859,-0.92610168457,0.356307983398,0.0281703853786,-0.0289118094261,-0.0508152441276,False
202,1492637856.6,40.4464366445,-79.9482902306,4.98000001907,0.470016479492,-1.03398132324,0.191955566406,0.0485278550673,0.160287942845,-0.111869277382,False
203,1492637856.8,40.4464366445,-79.9482902306,4.98000001907,-0.0887908935547,-1.07621765137,0.297943115234,0.0416696826281,0.00930162273932,-0.0049284459133,False
204,1492637857.0,40.4464366445,-79.9482902306,4.98000001907,0.29231262207,-0.998901367188,0.364532470703,-0.237601107186,0.0568528966349,-0.0377644232057,False
205,1492637857.2,40.4464366445,-79.9482902306,4.98000001907,0.0523529052734,-0.840454101562,0.357666015625,-0.147634199241,-0.0150013201043,-0.0366578797727,False
206,1492637857.4,40.4464387154,-79.9482652158,6.34999990463,0.196029663086,-0.850967407227,0.212951660156,-0.118824122569,-0.17472387385,0.10478952994,False
207,1492637857.6,40.4464387154,-79.9482652158,6.34999990463,0.112930297852,-1.00267028809,0.22966003418,-0.106485963555,0.0549346217017,-0.0481454251348,False
208,1492637857.8,40.4464387154,-79.9482652158,6.34999990463,0.0589294433594,-0.920822143555,0.299774169922,-0.0495941847678,-0.0134998298817,0.0368445673651,False
209,1492637858.0,40.4464387154,-79.9482652158,6.34999990463,0.0115814208984,-0.996185302734,0.235061645508,0.0775943941528,-0.073893665502,0.0478985501017,False
210,1492637858.2,40.4464387154,-79.9482652158,6.34999990463,0.0992584228516,-0.8583984375,0.241683959961,0.105123756657,-0.090015643793,0.128188063278,False
211,1492637858.4,40.4464496417,-79.9481258672,7.65999984741,0.0883178710938,-1.06239318848,0.261871337891,0.126521457067,-0.0263397284453,0.0781307547963,False
212,1492637858.6,40.4464496417,-79.9481258672,7.65999984741,-0.0294189453125,-0.77082824707,0.425491333008,-0.020986242022,-0.0966615622933,0.002167014179,False
213,1492637858.8,40.4464496417,-79.9481258672,7.65999984741,-0.130569458008,-0.987319946289,0.27555847168,-0.0453389859781,-0.22732876223,0.075823658344,False
214,1492637859.0,40.4464496417,-79.9481258672,7.65999984741,0.353225708008,-1.33598327637,0.0937042236328,0.25913409618,0.252511347181,-0.198446780208,False
215,1492637859.2,40.4464571144,-79.948030552,8.35000038147,-0.297210693359,-0.924758911133,0.431228637695,0.0479574059618,-0.333235754563,0.126098014454,False
216,1492637859.4,40.4464571144,-79.948030552,8.35000038147,0.18310546875,-0.888885498047,0.15153503418,-0.0246944275239,0.0416640899899,0.114790765098,False
217,1492637859.6,40.4464571144,-79.948030552,8.35000038147,-0.0424346923828,-0.927703857422,0.168380737305,-0.173424251238,0.0330282575231,-0.071164724333,False
218,1492637859.8,40.4464571144,-79.948030552,8.35000038147,0.364059448242,-0.981246948242,0.420211791992,0.0927949187066,0.254659719233,-0.182029723668,False
219,1492637860.0,40.4464571144,-79.948030552,8.35000038147,0.0201873779297,-0.742126464844,0.119873046875,0.0386195642317,0.170981866202,-0.159977950894,False
220,1492637860.2,40.4464651019,-79.9479286698,9.02000045776,0.565338134766,-0.717300415039,-0.0521087646484,-0.251095610746,0.0569490367503,0.0143416551023,False
221,1492637860.4,40.4464651019,-79.9479286698,9.02000045776,0.451873779297,-0.958129882812,0.15315246582,-0.0860390116533,0.0622457978423,-0.0596833042414,False
222,1492637860.6,40.4464651019,-79.9479286698,9.02000045776,0.0765533447266,-0.85173034668,0.398422241211,-0.0242121290505,-0.132784945635,0.139768819278,False
223,1492637860.8,40.4464651019,-79.9479286698,9.02000045776,0.441787719727,-1.12457275391,-0.0521087646484,-0.0108601046092,0.561666266536,-0.29903437458,False
224,1492637861.0,40.4464651019,-79.9479286698,9.02000045776,0.256454467773,-0.963424682617,0.150482177734,-0.254378755738,0.361184298623,-0.0461850722564,True
225,1492637861.2,40.4464734906,-79.9478216704,9.35000038147,-0.256332397461,-1.13586425781,-0.0460815429688,-0.103761549759,-0.25994103399,-0.0302455205,True
226,1492637861.4,40.4464734906,-79.9478216704,9.35000038147,-0.184814453125,-1.21347045898,-0.0313110351562,0.422398920491,-0.246294197617,0.281109702547,True
227,1492637861.6,40.4464734906,-79.9478216704,9.35000038147,0.49267578125,-0.81526184082,-0.0306549072266,0.0769967808042,-0.0558353027824,-0.13127812909,True
228,1492637861.8,40.4464734906,-79.9478216704,9.35000038147,0.374954223633,-0.584381103516,0.177474975586,0.0778303502253,-0.279188764453,0.0740198993377,True
229,1492637862.0,40.4464734906,-79.9478216704,9.35000038147,0.692718505859,-1.36331176758,0.0954742431641,-0.190110020731,-0.309315241652,0.336841674679,True
230,1492637862.2,40.4464822083,-79.9477104735,9.47000026703,0.205322265625,-1.21669006348,0.129547119141,0.356410848685,0.16676927799,-0.271864538823,True
231,1492637862.4,40.4464822083,-79.9477104735,9.47000026703,0.444885253906,-1.08309936523,0.163497924805,0.138024981396,0.240530051753,-0.226311168377,True
232,1492637862.6,40.4464822083,-79.9477104735,9.47000026703,0.403274536133,-1.31419372559,-0.408309936523,-0.0834344401072,-0.466391678538,0.238115097277,True
233,1492637862.8,40.4464822083,-79.9477104735,9.47000026703,-0.157989501953,-1.06837463379,0.0645751953125,0.270479695056,-0.321917053614,0.13581056295,False
234,1492637863.0,40.4464822083,-79.9477104735,9.47000026703,-0.227737426758,-1.14613342285,0.134078979492,-0.284129727223,-0.308737335696,0.126899625942,False
235,1492637863.2,40.44649037,-79.9476063704,8.78999996185,-0.0542449951172,-1.0778503418,0.144195556641,0.24467526199,-0.0260563681053,0.00470474038173,False
236,1492637863.4,40.44649037,-79.9476063704,8.78999996185,0.167831420898,-0.989761352539,0.0843658447266,-0.471105473668,-0.0373553616622,0.00913384359064,False
237,1492637863.6,40.44649037,-79.9476063704,8.78999996185,-0.0327911376953,-0.800094604492,0.291976928711,-0.308816697896,0.416845696986,-0.08420356103,False
238,1492637863.8,40.44649037,-79.9476063704,8.78999996185,0.445266723633,-0.798141479492,0.101013183594,0.0812775459403,-0.17921582766,0.110048474145,False
239,1492637864.0,40.44649037,-79.9476063704,8.78999996185,-0.390777587891,-0.684066772461,0.233978271484,-0.195339670164,-0.409268204737,0.353039286745,False
240,1492637864.2,40.44649037,-79.9476063704,8.78999996185,0.225189208984,-1.03642272949,0.0570220947266,0.0524472292436,0.17941503211,-0.076693446756,False
241,1492637864.4,40.4464985576,-79.9475021696,8.78999996185,0.110748291016,-1.04965209961,0.11686706543,0.0244195892994,-0.0288809167575,-0.0103375924034,False
242,1492637864.6,40.4464985576,-79.9475021696,8.78999996185,0.253082275391,-1.05236816406,0.0153961181641,-0.00826245728197,0.14789572166,-0.0932268834354,False
243,1492637864.8,40.4464985576,-79.9475021696,8.78999996185,0.0550384521484,-0.923034667969,-0.0268859863281,-0.0931429938611,-0.00896260233255,0.0310559204197,False
244,1492637865.0,40.4464985576,-79.9475021696,8.78999996185,-0.174285888672,-1.16575622559,-0.0281982421875,-0.1562979949,0.39880491113,-0.265984279136,False
245,1492637865.2,40.4464985576,-79.9475021696,8.78999996185,0.0155639648438,-1.07124328613,0.0151519775391,0.0762044903799,-0.0111408017881,-0.0493031012606,False
246,1492637865.4,40.4465069331,-79.9473985326,8.46000003815,-0.172592163086,-0.946395874023,-0.0453796386719,0.0637105364419,0.117645940103,-0.077484938232,False
247,1492637865.6,40.4465069331,-79.9473985326,8.46000003815,-0.0461730957031,-0.934158325195,0.0422058105469,-0.238723096954,0.129200064492,0.00575216163846,False
248,1492637865.8,40.4465069331,-79.9473985326,8.46000003815,0.125762939453,-1.06854248047,-0.0552673339844,-0.0531441785009,0.0705436751668,-0.0465733611433,False
249,1492637866.0,40.4465069331,-79.9473985326,8.46000003815,-0.115570068359,-0.974700927734,-0.0851898193359,0.145844022357,-0.251970459164,0.0991689284596,False
250,1492637866.2,40.4465069331,-79.9473985326,8.46000003815,-0.0788269042969,-1.00189208984,0.0694274902344,-0.0900870165102,0.134596427809,-0.113222163216,False
251,1492637866.4,40.4465140626,-79.9473103123,7.03999996185,-0.25569152832,-1.22886657715,0.0688934326172,-0.0814394661346,-0.0739186992162,0.0739919361462,False
252,1492637866.6,40.4465140626,-79.9473103123,7.03999996185,0.135650634766,-1.04188537598,-0.135620117188,0.0150540506939,-0.0330777923193,-0.0285482879373,False
253,1492637866.8,40.4465140626,-79.9473103123,7.03999996185,0.0839691162109,-0.981185913086,-0.125381469727,-0.00774074402442,-0.085051245205,-0.0254489010607,False
254,1492637867.0,40.4465140626,-79.9473103123,7.03999996185,-0.0554504394531,-1.02801513672,-0.0679931640625,-0.0136801258875,-0.113715913282,0.0811856668827,False
255,1492637867.2,40.4465140626,-79.9473103123,7.03999996185,0.0708618164062,-1.08210754395,-0.149917602539,0.00892798123838,-0.0351686400912,-0.0488636796808,False
256,1492637867.4,40.4465195453,-79.94724247,5.0,0.0781097412109,-0.994613647461,-0.0870819091797,0.00554070664791,-0.0276976742852,-0.0307920011557,False
257,1492637867.6,40.4465195453,-79.94724247,5.0,0.00285339355469,-1.04986572266,-0.0344848632812,-0.0390009288998,-0.0369843833224,-0.0493497065797,False
258,1492637867.8,40.4465195453,-79.94724247,5.0,0.130310058594,-1.03038024902,-0.0906982421875,0.0125743814029,-0.0543338125598,-0.0146580386398,False
259,1492637868.0,40.4465195453,-79.94724247,5.0,0.120758056641,-1.01654052734,-0.0303955078125,-0.00865101248501,-0.0371755982886,-0.0106547748892,False
260,1492637868.2,40.4465195453,-79.94724247,5.0,0.120574951172,-0.995758056641,-0.00532531738281,-0.0166860358099,-0.0424356077576,0.0287264534142,False
261,1492637868.4,40.4465223716,-79.9472074976,2.76999998093,0.0807647705078,-0.985931396484,0.0964660644531,-0.00874289154262,-0.00845100908715,0.0116606508329,False
262,1492637868.6,40.4465223716,-79.9472074976,2.76999998093,0.0880737304688,-0.961547851562,0.129547119141,0.00459581709315,-3.3822145844e-05,-0.0244757819984,False
263,1492637868.8,40.4465223716,-79.9472074976,2.76999998093,0.0746612548828,-1.01887512207,0.0626220703125,-0.00227860062867,-0.0276425468506,-0.00421684927003,False
264,1492637869.0,40.4465223716,-79.9472074976,2.76999998093,0.115158081055,-1.01805114746,0.0015869140625,-0.0262787420564,-0.00727975083973,-0.0290380432618,False
265,1492637869.2,40.4465223716,-79.9472074976,2.76999998093,0.104919433594,-0.985778808594,0.0146484375,-0.013764281778,0.00647148144889,-0.00229005222136,False
266,1492637869.4,40.4465250782,-79.9471782235,1.65999996662,0.125915527344,-0.991668701172,0.124359130859,0.00627786963764,-0.00110334763962,0.00753062061442,False
267,1492637869.6,40.4465250782,-79.9471782235,1.65999996662,0.0973510742188,-0.974990844727,0.23291015625,-0.00148551125605,-0.017006414089,0.0213529593041,False
268,1492637869.8,40.4465250782,-79.9471782235,1.65999996662,0.0569458007812,-0.961822509766,0.243804931641,-0.0202711832694,-0.0307182315935,-0.013989052574,False
269,1492637870.0,40.4465250782,-79.9471782235,1.65999996662,0.0854949951172,-0.931762695312,0.287185668945,-0.0152804193865,-0.0711716485518,-0.0117011308815,False
270,1492637870.2,40.4465250782,-79.9471782235,1.65999996662,0.0754699707031,-0.908782958984,0.377014160156,0.0049875680895,-0.131928739345,0.0302455205,False
271,1492637870.4,40.4465264637,-79.9471632949,1.03999996185,0.0440521240234,-0.892364501953,0.393768310547,0.0164772439804,-0.171361899289,0.0251338491037,False
272,1492637870.6,40.4465264637,-79.9471632949,1.03999996185,-0.0567016601562,-0.97639465332,0.332275390625,-0.0199779692333,-0.238141995204,0.00680730606235,False
273,1492637870.8,40.4465264637,-79.9471632949,1.03999996185,-0.0480194091797,-0.947265625,0.306182861328,0.0254089536443,-0.377767003783,0.115319935207,False
274,1492637871.0,40.4465264637,-79.9471632949,1.03999996185,-0.160522460938,-0.946701049805,0.371536254883,-0.00583578489669,-0.426494862248,0.115125790763,False
275,1492637871.2,40.4465264637,-79.9471632949,1.03999996185,-0.247573852539,-0.935531616211,0.273498535156,0.0456963821963,-0.552339876399,0.171421287782,False
276,1492637871.4,40.4465285718,-79.9471405802,2.6400001049,-0.201431274414,-1.0364074707,0.142211914062,0.121601266954,-0.632622997988,0.106300341227,False
277,1492637871.6,40.4465285718,-79.9471405802,2.6400001049,-0.118545532227,-0.915435791016,0.295181274414,0.0111802165723,-0.642534218301,0.15424123559,False
278,1492637871.8,40.4465285718,-79.9471405802,2.6400001049,-0.102233886719,-0.953857421875,0.326263427734,0.0126116656582,-0.496818027676,0.12935692468,False
279,1492637872.0,40.4465285718,-79.9471405802,2.6400001049,-0.114959716797,-0.982513427734,0.274871826172,0.0221228791753,-0.419233220904,0.0994000908422,False
280,1492637872.2,40.4465316561,-79.9471073467,3.76999998093,-0.139312744141,-0.960479736328,0.355056762695,0.00243679239742,-0.376571510769,0.00526160736567,False
281,1492637872.4,40.4465316561,-79.9471073467,3.76999998093,-0.0685272216797,-0.978500366211,0.345275878906,0.0358405556342,-0.429959102194,0.102766859092,False
282,1492637872.6,40.4465316561,-79.9471073467,3.76999998093,-0.0423583984375,-0.935775756836,0.319564819336,0.0503824804504,-0.340701660363,0.100552973278,False
283,1492637872.8,40.4465316561,-79.9471073467,3.76999998093,-0.0359497070312,-0.907699584961,0.30143737793,-0.0214421752007,-0.209404889145,0.0514991438955,False
284,1492637873.0,40.4465316561,-79.9471073467,3.76999998093,-0.072509765625,-0.91667175293,0.372634887695,-0.0253261293344,-0.258306918346,0.0750422868801,False
285,1492637873.2,40.4465316561,-79.9471073467,3.76999998093,-0.0347442626953,-0.933563232422,0.344696044922,-0.0423892687547,-0.18054980505,0.0416142888775,False
286,1492637873.4,40.4464435808,-79.9469981325,6.28000020981,0.0171051025391,-0.905090332031,0.283126831055,-0.00954583461128,-0.144604320869,-0.00398941531294,False
287,1492637873.6,40.4464435808,-79.9469981325,6.28000020981,-0.0377502441406,-0.952758789062,0.272689819336,-0.0285379016091,-0.125334219854,-0.00636602026973,False
288,1492637873.8,40.4464435808,-79.9469981325,6.28000020981,0.0342254638672,-0.979125976562,0.290573120117,0.000667121853065,-0.0106502475153,-0.0543426009914,False
289,1492637874.0,40.4464435808,-79.9469981325,6.28000020981,0.0570220947266,-0.926300048828,0.279571533203,-0.0118577247536,-0.0850136946336,0.0416803352725,False
290,1492637874.2,40.4463812133,-79.9469693031,8.06999969482,0.0476379394531,-0.930801391602,0.275451660156,-0.0297858588959,0.00764007653522,0.00180775374795,False
291,1492637874.4,40.4463812133,-79.9469693031,8.06999969482,0.0404510498047,-0.963180541992,0.293746948242,-0.10432960202,-0.0865418164671,0.0279429514215,False
292,1492637874.6,40.4463812133,-79.9469693031,8.06999969482,0.0900573730469,-0.934005737305,0.268692016602,-0.0642402391827,0.0323238514147,-0.0348599797208,False
293,1492637874.8,40.4463812133,-79.9469693031,8.06999969482,0.11946105957,-0.993774414062,0.24201965332,0.00429967357993,-0.0798018883803,0.0311701700305,False
294,1492637875.0,40.4463812133,-79.9469693031,8.06999969482,0.155532836914,-0.921630859375,0.205871582031,0.0121922177865,-0.0915602772253,-0.00710238431113,False
295,1492637875.2,40.4463043042,-79.9469337519,9.43000030518,0.108825683594,-0.96044921875,0.22492980957,0.0378927875702,0.0540006511074,-0.0157446083645,False
296,1492637875.4,40.4463043042,-79.9469337519,9.43000030518,0.0985412597656,-0.933471679688,0.148376464844,0.0339142912177,-0.0172397070005,0.00252414408118,False
297,1492637875.6,40.4463043042,-79.9469337519,9.43000030518,0.101593017578,-0.964233398438,0.142318725586,-0.0404970928002,-0.00080001359146,0.00171986943197,False
298,1492637875.8,40.4463043042,-79.9469337519,9.43000030518,0.0192108154297,-1.00723266602,0.126373291016,-0.0354091235376,-0.00295797302275,0.0177707413219,False
299,1492637876.0,40.4463043042,-79.9469337519,9.43000030518,0.0142974853516,-0.980972290039,0.182662963867,0.00560408988185,-0.0244949567582,0.0438353652266,False
300,1492637876.2,40.4462139782,-79.9468919988,10.0900001526,0.0718841552734,-0.892349243164,0.120208740234,0.0498154934544,-0.074775704455,0.0540137005968,False
301,1492637876.4,40.4462139782,-79.9468919988,10.0900001526,-0.0193328857422,-0.981811523438,0.125015258789,0.0102092280388,-0.0447413726294,0.00768348606099,False
302,1492637876.6,40.4462139782,-79.9468919988,10.0900001526,0.0923461914062,-1.01071166992,0.0850982666016,-0.0315038641151,-0.00192786231311,-0.033370207407,False
303,1492637876.8,40.4462139782,-79.9468919988,10.0900001526,0.00465393066406,-1.20742797852,0.0323181152344,0.182306159789,-0.0437408230079,-0.0385367399218,False
304,1492637877.0,40.4462139782,-79.9468919988,10.0900001526,-0.00361633300781,-0.95068359375,0.0768890380859,-0.0627451405467,-0.0612814672116,0.0378994454729,False
305,1492637877.2,40.4461310581,-79.9468536691,9.61999988556,0.0164947509766,-0.989868164062,0.217391967773,0.0142588307924,0.0977606488752,-0.054483215897,False
306,1492637877.4,40.4461310581,-79.9468536691,9.61999988556,0.25830078125,-1.00140380859,0.14079284668,-0.00973358746813,-0.0584321511613,0.0565604815472,False
307,1492637877.6,40.4461310581,-79.9468536691,9.61999988556,0.134124755859,-0.911102294922,0.118988037109,-0.118319719858,0.0199196460055,0.0189952627911,False
308,1492637877.8,40.4461310581,-79.9468536691,9.61999988556,0.155487060547,-0.993927001953,0.141891479492,-0.0103019060448,0.100048836884,-0.0483432980038,False
309,1492637878.0,40.4461310581,-79.9468536691,9.61999988556,0.0711669921875,-0.975402832031,0.156967163086,-0.0223260783665,0.0416334636373,0.0199220428504,False
310,1492637878.2,40.4461310581,-79.9468536691,9.61999988556,0.0929412841797,-0.974899291992,0.146011352539,-0.0147235524026,-0.0796673987453,0.0981465409171,False
311,1492637878.4,40.4460432513,-79.9468130804,10.1800003052,0.187622070312,-1.02821350098,0.0934295654297,-0.0223796079044,0.140544065471,-0.0773592370285,False
312,1492637878.6,40.4460432513,-79.9468130804,10.1800003052,-0.00352478027344,-0.96403503418,0.163360595703,-0.0261402576797,0.038461638779,-0.0142276718076,False
313,1492637878.8,40.4460432513,-79.9468130804,10.1800003052,0.0584869384766,-0.796951293945,0.0403289794922,0.113181150535,0.0535146242085,0.00741796890031,False
314,1492637879.0,40.4460432513,-79.9468130804,10.1800003052,0.217224121094,-1.06723022461,0.123428344727,0.0304015817399,0.126376581104,-0.0511931466863,False
315,1492637879.2,40.4460432513,-79.9468130804,10.1800003052,0.0776062011719,-0.99543762207,0.208145141602,0.104326139911,-0.194254698336,0.129515116449,False
316,1492637879.4,40.4459533051,-79.9467754775,10.5900001526,0.0152130126953,-0.98503112793,0.174438476562,0.114804879852,-0.213481922458,0.0539708237032,False
317,1492637879.6,40.4459533051,-79.9467754775,10.5900001526,0.117691040039,-0.948944091797,0.0955505371094,-0.0956687358389,-0.0174644777965,-0.0222587003909,False
318,1492637879.8,40.4459533051,-79.9467754775,10.5900001526,0.164443969727,-0.884582519531,0.130477905273,0.0982064620417,-0.0367987609944,0.040550356022,False
319,1492637880.0,40.4459533051,-79.9467754775,10.5900001526,0.140213012695,-1.00498962402,0.0306396484375,-0.0630556651298,0.0950796446058,-0.00942066604005,False
320,1492637880.2,40.4459533051,-79.9467754775,10.5900001526,0.0757751464844,-1.08450317383,0.146743774414,0.131233121668,-0.0519071401745,0.0313315575926,False
321,1492637880.4,40.445861659,-79.9467384741,10.6899995804,0.0540008544922,-0.964569091797,0.0454864501953,-0.0327888393411,-0.135944786269,-0.0127794448069,False
322,1492637880.6,40.445861659,-79.9467384741,10.6899995804,-0.0325012207031,-0.944534301758,-0.015625,0.0534837315398,-0.0545926718178,0.0305424629616,False
323,1492637880.8,40.445861659,-79.9467384741,10.6899995804,0.0166625976562,-1.0546875,-0.080810546875,0.0209465609218,-0.0692674883724,0.0654322700866,False
324,1492637881.0,40.445861659,-79.9467384741,10.6899995804,0.0303039550781,-1.00727844238,-0.0567626953125,-0.0802258636259,0.0441299108432,-0.0275906152093,False
325,1492637881.2,40.445861659,-79.9467384741,10.6899995804,0.162414550781,-0.951965332031,0.0237274169922,-0.157315588752,0.0467390097631,-0.151001233807,False
326,1492637881.4,40.4457719271,-79.9467022436,10.1199998856,0.165512084961,-0.906005859375,-0.0532989501953,0.109121694085,0.170533123558,-0.0984807676339,False
327,1492637881.6,40.4457719271,-79.9467022436,10.1199998856,0.220977783203,-1.07209777832,-0.0976409912109,-0.0245697915849,-0.0913022169156,0.110870325657,False
328,1492637881.8,40.4457719271,-79.9467022436,10.1199998856,0.106216430664,-0.966003417969,-0.0424652099609,-0.0183142925004,0.0607464381486,-0.0291320528483,False
329,1492637882.0,40.4457719271,-79.9467022436,10.1199998856,0.0176239013672,-0.917373657227,-0.109298706055,-0.105310710566,0.0442875699797,-0.0619666985601,False
330,1492637882.2,40.4457719271,-79.9467022436,10.1199998856,0.144653320312,-1.04565429688,-0.139511108398,-0.0979297596044,0.148469100243,-0.154920607984,False
331,1492637882.4,40.4456927465,-79.9466702733,8.22999954224,-0.3798828125,-0.828918457031,-0.282791137695,-0.0708864239991,-0.198427339132,0.168248131343,False
332,1492637882.6,40.4456927465,-79.9466702733,8.22999954224,0.0324401855469,-1.05520629883,-0.151977539062,0.0114100473743,-0.210680543307,0.0625009286747,False
333,1492637882.8,40.4456927465,-79.9466702733,8.22999954224,-0.188873291016,-1.00744628906,-0.201385498047,-0.0267551815754,-0.133839823743,0.0917658732614,False
334,1492637883.0,40.4456927465,-79.9466702733,8.22999954224,-0.0849914550781,-0.996780395508,-0.195449829102,0.0120808976529,-0.0192314851798,-0.0371441729878,False
335,1492637883.2,40.4456343368,-79.9466466895,5.65000009537,0.00054931640625,-1.03729248047,-0.139602661133,-0.0197657152945,-0.0700760240794,0.00530954426529,False
336,1492637883.4,40.4456343368,-79.9466466895,5.65000009537,0.0465087890625,-0.964401245117,-0.0777130126953,0.0521500204659,-0.086495211148,0.0327435656025,False
337,1492637883.6,40.4456343368,-79.9466466895,5.65000009537,0.0128021240234,-0.990036010742,-0.113250732422,-0.0291397760154,-0.115748970458,0.042648926961,False
338,1492637883.8,40.4456343368,-79.9466466895,5.65000009537,0.0618591308594,-1.00984191895,-0.0637817382812,-0.00217740050725,-0.0063681507986,-5.85895439817e-06,False
339,1492637884.0,40.4456343368,-79.9466466895,5.65000009537,0.0416412353516,-0.995819091797,0.0116119384766,-0.0196285624983,-0.0381641636853,0.0126920931231,False
340,1492637884.2,40.4456343368,-79.9466466895,5.65000009537,0.0587768554688,-1.00379943848,0.0826568603516,-0.0104449177953,-0.00418968502691,-0.0171555511101,False
341,1492637884.4,40.4455974394,-79.9466317917,3.77999997139,0.0877990722656,-0.989318847656,0.06884765625,-0.0114710337633,-0.000992027506055,-0.0182405229382,False
342,1492637884.6,40.4455974394,-79.9466317917,3.77999997139,0.0790863037109,-0.959228515625,0.108596801758,-0.0109136341471,-0.027585022571,0.00422430612108,False
343,1492637884.8,40.4455974394,-79.9466317917,3.77999997139,0.0934448242188,-0.981994628906,0.0761566162109,-0.0169704614143,-0.000954210618575,-0.00550235712821,False
344,1492637885.0,40.4455974394,-79.9466317917,3.77999997139,0.0718078613281,-0.973403930664,0.0906677246094,0.0148915978674,-9.66727475699e-05,0.00121892883093,False
345,1492637885.2,40.4455974394,-79.9466317917,3.77999997139,0.109436035156,-0.999786376953,0.0341491699219,-0.0176956401791,0.0384075766089,-0.00881000320209,False
346,1492637885.4,40.4455688755,-79.9466202586,3.06999993324,0.0794982910156,-0.985916137695,0.0471038818359,-0.0295115533036,0.0246560780042,-0.00889549067308,False
347,1492637885.6,40.4455688755,-79.9466202586,3.06999993324,0.0589294433594,-1.00051879883,0.0138549804688,0.000386158358061,0.0319073330202,-0.0107405286763,False
348,1492637885.8,40.4455688755,-79.9466202586,3.06999993324,0.0566864013672,-1.02856445312,-0.00840759277344,-0.0108443919588,-0.0222672225064,0.00207886354692,False
349,1492637886.0,40.4455688755,-79.9466202586,3.06999993324,0.0994110107422,-0.987030029297,-0.0286712646484,-0.0231111782558,0.0320609974151,-0.00565042888482,False
350,1492637886.2,40.4455688755,-79.9466202586,3.06999993324,0.0403442382812,-1.00735473633,-0.00425720214844,-0.0327803172256,0.0108486530165,-0.011025753229,False
351,1492637886.4,40.4455480963,-79.9466118687,2.07999992371,0.0743713378906,-0.979370117188,0.119400024414,-0.00427224302071,-0.0095463672435,-0.0042839609295,False
352,1492637886.6,40.4455480963,-79.9466118687,2.07999992371,0.0634765625,-0.950668334961,0.207107543945,-0.00225196901777,0.00320751121689,0.0106308064394,False
353,1492637886.8,40.4455480963,-79.9466118687,2.07999992371,0.0706634521484,-0.949279785156,0.224517822266,-0.0118119183828,-0.00736870042014,0.00309672371554,False
354,1492637887.0,40.4455480963,-79.9466118687,2.07999992371,0.0207366943359,-0.945648193359,0.271118164062,0.00476439519015,-0.0393854893612,0.0193422726811,False
355,1492637887.2,40.4455480963,-79.9466118687,2.07999992371,0.00276184082031,-0.97412109375,0.255950927734,-0.0029949909619,-0.0723096172856,0.0236126514891,False
356,1492637887.4,40.4455312591,-79.9466050704,1.67999994755,-0.0302124023438,-0.957611083984,0.287216186523,-0.0159062622427,-0.123287047924,0.00548637816167,False
357,1492637887.6,40.4455312591,-79.9466050704,1.67999994755,-0.0445251464844,-0.920059204102,0.309982299805,-0.0174868483497,-0.203044195198,0.0771123619955,False
358,1492637887.8,40.4455312591,-79.9466050704,1.67999994755,-0.0814056396484,-0.955749511719,0.268157958984,0.0247615391833,-0.233101696525,0.0861521959996,False
359,1492637888.0,40.4455312591,-79.9466050704,1.67999994755,-0.192489624023,-0.953063964844,0.24104309082,0.023951938212,-0.297979496472,0.109768043282,False
360,1492637888.2,40.4455312591,-79.9466050704,1.67999994755,-0.278182983398,-0.945755004883,0.255447387695,0.00556334351718,-0.446777763426,0.127023196617,False
361,1492637888.4,40.445507664,-79.9465955436,3.13000011444,-0.227996826172,-1.02857971191,0.182525634766,0.0639779178153,-0.555652316162,0.156690012212,False
362,1492637888.6,40.445507664,-79.9465955436,3.13000011444,-0.253051757812,-0.996063232422,0.230270385742,0.024069383616,-0.552207783608,0.117888820394,False
363,1492637888.8,40.445507664,-79.9465955436,3.13000011444,-0.206878662109,-0.978317260742,0.156127929688,0.0487241300397,-0.537464257498,0.191671964711,False
364,1492637889.0,40.445507664,-79.9465955436,3.13000011444,-0.280776977539,-0.992218017578,0.167266845703,0.0909504133356,-0.528172754771,0.146233110192,False
365,1492637889.2,40.445507664,-79.9465955436,3.13000011444,-0.25927734375,-0.989562988281,0.198852539062,0.0194024601218,-0.58832983537,0.205363808507,False
366,1492637889.4,40.4454821806,-79.9465852543,3.92000007629,-0.286117553711,-1.29420471191,0.0357666015625,0.185361338192,-0.596866598244,0.135648642755,False
367,1492637889.6,40.4454821806,-79.9465852543,3.92000007629,-0.00552368164062,-0.870071411133,0.147064208984,0.164963388454,-0.435057457785,0.0806453114976,False
368,1492637889.8,40.4454821806,-79.9465852543,3.92000007629,-0.309844970703,-0.872314453125,0.319610595703,0.117641146413,-0.478360457109,0.0909347006852,False
369,1492637890.0,40.4454821806,-79.9465852543,3.92000007629,-0.0844116210938,-0.965560913086,0.44953918457,0.101860585373,-0.466558126107,0.0832791778156,False
370,1492637890.2,40.4454821806,-79.9465852543,3.92000007629,-0.116577148438,-0.915145874023,0.338729858398,-0.0101205447745,-0.425390449344,0.195045124547,False
371,1492637890.4,40.4454465406,-79.9466987765,4.44000005722,-0.148040771484,-0.941146850586,0.435806274414,0.15655738679,-0.291389504355,0.150558616434,False
372,1492637890.6,40.4454465406,-79.9466987765,4.44000005722,-0.0908660888672,-0.888656616211,0.483764648438,0.113596869981,-0.168804732011,0.0111945976421,False
373,1492637890.8,40.4454465406,-79.9466987765,4.44000005722,0.0872650146484,-0.862167358398,0.517440795898,-0.0172919049579,-0.0743389460363,0.0554579328559,False
374,1492637891.0,40.4454465406,-79.9466987765,4.44000005722,-0.120971679688,-0.794052124023,0.575103759766,-0.0837055499062,0.0282111317433,0.0619768185722,False
375,1492637891.2,40.445440981,-79.9467499144,5.53000020981,-0.250823974609,-0.914459228516,0.551422119141,-0.0541636365661,-0.242148721064,0.167465960931,False
376,1492637891.4,40.445440981,-79.9467499144,5.53000020981,-0.110214233398,-0.805816650391,0.525161743164,-0.0251277238332,-0.151929345447,0.11848456953,False
377,1492637891.6,40.445440981,-79.9467499144,5.53000020981,-0.123550415039,-0.797714233398,0.550064086914,-0.0784095877624,-0.200517654271,0.0946077324606,False
378,1492637891.8,40.445440981,-79.9467499144,5.53000020981,-0.105697631836,-0.916854858398,0.490600585938,-0.127001625012,-0.220406141292,0.132545261137,False
379,1492637892.0,40.445440981,-79.9467499144,5.53000020981,-0.137054443359,-0.683456420898,0.495544433594,-0.142898299875,-0.104373011546,0.0350575862737,False
380,1492637892.2,40.445440981,-79.9467499144,5.53000020981,-0.0706939697266,-0.927734375,0.557205200195,-0.0560544809401,-0.093242862402,-0.00139949115284,False
381,1492637892.4,40.445432309,-79.9468474936,7.17999982834,0.0236511230469,-0.915878295898,0.558456420898,-0.00652341309015,-0.114835239888,0.0247524844356,False
382,1492637892.6,40.445432309,-79.9468474936,7.17999982834,-0.0790100097656,-0.915832519531,0.50146484375,0.024281903871,-0.124609041089,0.0250931027391,False
383,1492637892.8,40.445432309,-79.9468474936,7.17999982834,0.0541534423828,-0.933044433594,0.407501220703,-0.0126060730199,0.16918875984,-0.153034290984,False
384,1492637893.0,40.445432309,-79.9468474936,7.17999982834,0.0748291015625,-0.786209106445,0.585494995117,-0.0696645656909,0.0397945509046,-0.101040065441,False
385,1492637893.2,40.445432309,-79.9468474936,7.17999982834,0.07763671875,-0.866836547852,0.496215820312,-0.0380515119712,0.0406566161495,-0.0761957019483,False
386,1492637893.4,40.4454237078,-79.9469453884,9.02000045776,-0.001708984375,-0.890472412109,0.513122558594,-0.0344242865665,-0.037005422295,0.00507412082493,False
387,1492637893.6,40.4454237078,-79.9469453884,9.02000045776,0.00201416015625,-0.924758911133,0.549133300781,-0.0326058801742,-0.00298407200143,-0.0312463364377,False
388,1492637893.8,40.4454237078,-79.9469453884,9.02000045776,0.073486328125,-0.893676757812,0.515365600586,0.0116007297084,0.0722526256383,-0.0299216801115,False
389,1492637894.0,40.4454237078,-79.9469453884,9.02000045776,0.0411682128906,-0.810012817383,0.469421386719,-0.0682853145624,-0.0282771781384,-0.0059572250424,False
390,1492637894.2,40.4454136042,-79.9470603817,10.470000267,0.121383666992,-0.843688964844,0.518920898438,0.0174037577237,0.136037996907,-0.0300268749745,False
391,1492637894.4,40.4454136042,-79.9470603817,10.470000267,0.143402099609,-0.830795288086,0.236709594727,-0.00436012733668,0.0138590903128,0.014846590445,False
392,1492637894.6,40.4454136042,-79.9470603817,10.470000267,0.158386230469,-0.740097045898,0.47038269043,0.0474042674034,-0.0992368390674,-0.0163179869472,False
393,1492637894.8,40.4454136042,-79.9470603817,10.470000267,0.0775299072266,-0.984832763672,0.308609008789,-0.000696416625056,0.0106507801476,0.0564747277601,False
394,1492637895.0,40.4454136042,-79.9470603817,10.470000267,-0.0538330078125,-1.09144592285,0.344635009766,0.0223878637038,-0.0203707854941,-0.0903464084004,False
395,1492637895.2,40.4454020749,-79.9471916023,11.5100002289,-0.0942077636719,-0.809783935547,0.407623291016,-0.0161499414825,-0.11477212297,0.0278524039445,False
396,1492637895.4,40.4454020749,-79.9471916023,11.5100002289,-0.0714263916016,-0.838882446289,0.422500610352,-0.0669561308623,-0.113381420249,0.00600436299369,False
397,1492637895.6,40.4454020749,-79.9471916023,11.5100002289,-0.0155639648438,-0.87825012207,0.345886230469,-0.0201633252452,-0.010507768397,-0.0108414624816,False
398,1492637895.8,40.4454020749,-79.9471916023,11.5100002289,0.0886993408203,-0.926239013672,0.469696044922,-0.113817379719,0.183689671975,-0.0645459700758,False
399,1492637896.0,40.4454020749,-79.9471916023,11.5100002289,0.00447082519531,-0.703964233398,0.281982421875,-0.185199417997,0.0331180060518,0.0108129666579,False
400,1492637896.2,40.4453898858,-79.9473303311,12.0399999619,0.243499755859,-1.31005859375,0.327072143555,-0.171030868366,0.245734667472,-0.207098325325,False
401,1492637896.4,40.4453898858,-79.9473303311,12.0399999619,-0.0922546386719,-1.2265625,0.140960693359,0.212229704113,0.0209433651285,-0.0885093598805,False
402,1492637896.6,40.4453898858,-79.9473303311,12.0399999619,-0.0764770507812,-0.662582397461,0.379638671875,-0.0278334955007,0.064011473645,0.0453970428898,False
403,1492637896.8,40.4453898858,-79.9473303311,12.0399999619,0.149215698242,-0.95930480957,0.261428833008,0.00246369032443,0.0425325468213,-0.00115075190702,False
404,1492637897.0,40.4453898858,-79.9473303311,12.0399999619,-0.0526428222656,-1.08734130859,0.24723815918,-0.0380824046398,-0.0805800640509,0.0925786700261,False
405,1492637897.2,40.4453898858,-79.9473303311,12.0399999619,-0.126998901367,-0.802917480469,0.331527709961,-0.0445927682406,-0.0486343815109,0.0412513000209,False
406,1492637897.4,40.4453773868,-79.9474725877,12.0399999619,0.112701416016,-0.991775512695,0.243041992188,-0.00746297632273,-0.0669590603395,0.0416787373758,False
407,1492637897.6,40.4453773868,-79.9474725877,12.0399999619,-0.00726318359375,-0.946304321289,0.388885498047,0.0944090606433,-0.169743496295,0.0120667828991,False
408,1492637897.8,40.4453773868,-79.9474725877,12.0399999619,0.175430297852,-1.3516998291,0.204010009766,0.191135604067,0.149811866065,0.0442188604236,False
409,1492637898.0,40.4453773868,-79.9474725877,12.0399999619,-0.229278564453,-0.928192138672,0.299758911133,0.150411876258,-0.0860491316654,0.16702520777,False
410,1492637898.2,40.4453773868,-79.9474725877,12.0399999619,-0.457534790039,-0.770233154297,0.304214477539,-0.00775619035875,-0.326486505413,0.154297960921,False
411,1492637898.4,40.4453650247,-79.9476113532,11.6700000763,0.01611328125,-1.12326049805,0.263565063477,-0.0338109605674,-0.0444508217545,0.0338873932907,False
412,1492637898.6,40.4453650247,-79.9476113532,11.6700000763,-0.108505249023,-0.84489440918,0.341125488281,-0.136134403338,-0.171441527806,-0.0286729238763,False
413,1492637898.8,40.4453650247,-79.9476113532,11.6700000763,-0.0267639160156,-0.801010131836,0.24089050293,-0.0360067368862,-0.135898713582,0.143920953733,False
414,1492637899.0,40.4453650247,-79.9476113532,11.6700000763,-0.0202178955078,-0.925338745117,0.229110717773,0.00820626458297,-0.064942248446,-0.0125429561021,False
415,1492637899.2,40.4453650247,-79.9476113532,11.6700000763,0.198287963867,-0.786392211914,0.205673217773,-0.0231103793075,-0.0296276671271,0.0382235521776,False
416,1492637899.4,40.4453546206,-79.9477436245,11.1800003052,-0.146759033203,-1.00465393066,0.293228149414,0.230484608121,-0.22272788513,0.155403172773,False
417,1492637899.6,40.4453546206,-79.9477436245,11.1800003052,0.0179901123047,-1.013671875,0.127670288086,0.133413717969,-0.362505226524,0.168630827592,False
418,1492637899.8,40.4453546206,-79.9477436245,11.1800003052,-0.0614318847656,-0.827529907227,0.281448364258,-0.100416086798,-0.163145248378,0.0889549067308,False
419,1492637900.0,40.4453546206,-79.9477436245,11.1800003052,-0.110000610352,-0.981231689453,0.264663696289,0.0496671553817,-0.0822072554769,0.138262269049,False
420,1492637900.2,40.4453546206,-79.9477436245,11.1800003052,-0.118637084961,-0.873657226562,0.267181396484,-0.0107658287066,-0.0254600863373,-0.00537559066032,False
421,1492637900.4,40.4453450395,-79.9478672031,10.3999996185,0.00199890136719,-0.913360595703,0.287216186523,-0.0325432958886,-0.0317081285707,-0.0514296353911,False
422,1492637900.6,40.4453450395,-79.9478672031,10.3999996185,-0.0547027587891,-0.965591430664,0.243057250977,0.0329094805384,-0.0151062486513,-0.000690291354549,False
423,1492637900.8,40.4453450395,-79.9478672031,10.3999996185,-0.0535125732422,-0.948364257812,0.206253051758,0.0363881015543,-0.0683103482766,0.0272041905352,False
424,1492637901.0,40.4453450395,-79.9478672031,10.3999996185,-0.0169372558594,-0.925903320312,0.193572998047,0.0206608037368,-0.0650194801176,0.0110414658795,False
425,1492637901.2,40.4453450395,-79.9478672031,10.3999996185,0.0337982177734,-0.967330932617,0.154495239258,-0.00433615888687,0.0053481601011,0.00847151542754,False
426,1492637901.4,40.4453361671,-79.9479816408,9.68000030518,-0.012939453125,-0.910598754883,0.242568969727,-0.001800563213,-0.0244598030318,-0.0372728036684,False
427,1492637901.6,40.4453361671,-79.9479816408,9.68000030518,0.140274047852,-1.02200317383,0.213973999023,-0.0910867671834,-0.0440809086791,0.01730681866,False
428,1492637901.8,40.4453361671,-79.9479816408,9.68000030518,0.00836181640625,-0.914001464844,0.20231628418,-0.0395442137622,-0.0391021290212,-0.0109660984206,False
429,1492637902.0,40.4453361671,-79.9479816408,9.68000030518,0.109252929688,-0.957260131836,0.170440673828,-0.0673305713116,0.0461722890831,-0.0349273576964,False
430,1492637902.2,40.445327552,-79.9480927612,9.03999996185,-0.0442657470703,-0.947875976562,0.0943145751953,-0.0448026253345,-0.0167286463873,-0.00361417591535,False
431,1492637902.4,40.445327552,-79.9480927612,9.03999996185,0.0393829345703,-1.01905822754,0.166076660156,-0.0732228152234,-0.00803715385375,-0.0231194340552,False
432,1492637902.6,40.445327552,-79.9480927612,9.03999996185,-0.00593566894531,-0.976104736328,0.121124267578,-0.0880326540453,0.103745837109,-0.0470162448326,False
433,1492637902.8,40.445327552,-79.9480927612,9.03999996185,-0.0669097900391,-0.946395874023,0.140426635742,-0.0594239123513,0.0525108787936,0.013116867317,False
434,1492637903.0,40.445327552,-79.9480927612,9.03999996185,0.00970458984375,-0.788070678711,0.187301635742,-0.0703995981518,0.0238507380905,-0.0562254558821,False
435,1492637903.2,40.445327552,-79.9480927612,9.03999996185,0.0870361328125,-1.05564880371,0.137847900391,-0.0729796686159,-0.0452625532548,0.0164290407647,False
436,1492637903.4,40.4453212009,-79.9481908164,8.14000034332,-0.0124359130859,-0.969024658203,0.0823669433594,0.0228222252775,-0.0841825220574,-0.00168151991228,False
437,1492637903.6,40.4453212009,-79.9481908164,8.14000034332,0.0676116943359,-0.980773925781,0.0383758544922,0.0556478162416,-0.104606304457,0.000839694691702,False
438,1492637903.8,40.4453212009,-79.9481908164,8.14000034332,0.0584411621094,-1.00395202637,0.0673828125,0.0648759357349,-0.00681636081006,-0.0750193836948,False
439,1492637904.0,40.4453212009,-79.9481908164,8.14000034332,0.0647735595703,-0.94319152832,0.155364990234,0.00015313176268,0.022337263643,0.00101013700147,False
440,1492637904.2,40.4453212009,-79.9481908164,8.14000034332,0.18017578125,-0.940017700195,0.216567993164,-0.0139538988476,-0.0903195104734,0.0363414962352,False
441,1492637904.4,40.4453160301,-79.948278777,7.19999980927,0.0681610107422,-1.03233337402,0.194061279297,-0.0091383709645,-0.00844381855221,0.0404443622106,False
442,1492637904.6,40.4453160301,-79.948278777,7.19999980927,-0.0209655761719,-0.983108520508,0.0703582763672,-0.0295853228658,-0.0274569245226,0.0456151557831,False
443,1492637904.8,40.4453160301,-79.948278777,7.19999980927,-0.0126190185547,-0.988220214844,0.0560913085938,0.00365438964781,-0.0415053655889,0.0214688068116,False
444,1492637905.0,40.4453160301,-79.948278777,7.19999980927,0.0194091796875,-1.00459289551,-0.0502471923828,-0.0463973261953,-0.0326692634081,0.0262646273026,False
445,1492637905.2,40.4453114873,-79.9483560548,5.94999980927,-0.0497589111328,-0.97575378418,-0.0422210693359,-0.0269072480736,-0.016842629682,0.0114963337937,False
446,1492637905.4,40.4453114873,-79.9483560548,5.94999980927,0.121658325195,-1.20175170898,-0.0666809082031,0.00859109136049,0.0350490641582,0.0138582913644,False
447,1492637905.6,40.4453114873,-79.9483560548,5.94999980927,0.0549926757812,-0.895690917969,0.0273284912109,0.00689252721723,-0.0298250073639,0.0246704590741,False
448,1492637905.8,40.4453114873,-79.9483560548,5.94999980927,0.0296936035156,-1.02577209473,0.06201171875,-0.00632580653727,-0.0286825112563,-0.0202488127162,False
449,1492637906.0,40.4453114873,-79.9483560548,5.94999980927,0.0731811523438,-0.951797485352,0.24430847168,0.013757091243,-0.0224160932113,0.0716350385815,False
450,1492637906.2,40.4453114873,-79.9483560548,5.94999980927,0.0206451416016,-0.955276489258,0.255767822266,-0.0210189989035,0.0192820852405,-0.00986088656824,False
451,1492637906.4,40.4453082703,-79.9484107799,3.79999995232,0.20231628418,-0.892944335938,0.293869018555,0.0150425991012,0.0466958665534,-0.0618069088947,False
452,1492637906.6,40.4453082703,-79.9484107799,3.79999995232,0.0420379638672,-0.887069702148,0.402374267578,0.0161669857134,-0.046890277313,0.115437646927,False
453,1492637906.8,40.4453082703,-79.9484107799,3.79999995232,0.0119171142578,-0.956481933594,0.481643676758,0.0116934077143,0.016945161384,0.0107381318313,False
454,1492637907.0,40.4453082703,-79.9484107799,3.79999995232,0.0672607421875,-0.88020324707,0.405548095703,-0.0114465326813,0.0894190957088,-0.0483275853533,False
455,1492637907.2,40.44530525,-79.9484621581,4.55000019073,0.1044921875,-0.91455078125,0.454986572266,0.02476313708,0.0870683234146,0.0277504048747,False
456,1492637907.4,40.44530525,-79.9484621581,4.55000019073,0.0114440917969,-0.887634277344,0.42822265625,-0.0321976175791,0.024680046454,0.0315930800116,False
457,1492637907.6,40.44530525,-79.9484621581,4.55000019073,0.105285644531,-0.89582824707,0.39045715332,-0.046020488901,0.0428545229971,0.0399343668618,False
458,1492637907.8,40.44530525,-79.9484621581,4.55000019073,-0.114547729492,-0.942306518555,0.362365722656,0.0450657456502,-0.0236885515801,0.0399724500654,False
459,1492637908.0,40.44530525,-79.9484621581,4.55000019073,-0.00736999511719,-0.939529418945,0.195709228516,-0.0444875733776,-0.0209771872743,0.0486445015231,False
460,1492637908.2,40.44530525,-79.9484621581,4.55000019073,-0.0872497558594,-1.01219177246,0.283050537109,-0.020062657756,-0.0413477064524,0.0425498573684,False
461,1492637908.4,40.4453012791,-79.9485297061,6.30999994278,-0.103149414062,-1.05332946777,0.191940307617,-0.0250747269275,-0.0232339499821,0.0296572282152,False
462,1492637908.6,40.4453012791,-79.9485297061,6.30999994278,-0.124877929688,-0.899017333984,0.185882568359,0.0271056535748,0.0179028341119,-0.0253578209514,False
463,1492637908.8,40.4453012791,-79.9485297061,6.30999994278,-0.0604400634766,-1.04154968262,0.133819580078,-0.102440888175,0.0570260021058,-0.108883607484,False
464,1492637909.0,40.4453012791,-79.9485297061,6.30999994278,-0.00900268554688,-1.00942993164,0.0921630859375,-0.0923799982088,-0.030252711035,-0.0360528095731,False
465,1492637909.2,40.4452971224,-79.9486004153,5.78999996185,-0.0235290527344,-0.978225708008,0.0989837646484,-0.0591892878592,-0.154911819552,0.0381774794907,False
466,1492637909.4,40.4452971224,-79.9486004153,5.78999996185,-0.0796661376953,-0.964859008789,0.0974731445312,-0.0295147490969,-0.160434683021,-0.0318745761388,False
467,1492637909.6,40.4452971224,-79.9486004153,5.78999996185,-0.0284576416016,-1.06108093262,0.0523986816406,0.0143536393272,-0.122425248995,-0.026192455637,False
468,1492637909.8,40.4452971224,-79.9486004153,5.78999996185,0.0105895996094,-0.945678710938,-0.0568237304688,-0.0305421966455,-0.135960765235,-0.0212861139608,False
469,1492637910.0,40.4452971224,-79.9486004153,5.78999996185,0.00537109375,-1.04544067383,-0.247131347656,-0.00514309669716,-0.0903802305462,0.0151075802318,False
470,1492637910.2,40.4452971224,-79.9486004153,5.78999996185,-0.00596618652344,-1.11766052246,-0.0316772460938,-0.0378328664457,-0.0752779766366,-0.000193079179031,False
471,1492637910.4,40.4452938888,-79.9486554235,4.28999996185,-0.037841796875,-1.02449035645,-0.0488586425781,-0.0773459212231,-0.0367348451282,-0.0486767257723,False
472,1492637910.6,40.4452938888,-79.9486554235,4.28999996185,0.00408935546875,-1.0057220459,-0.0725402832031,0.045710230634,-0.0354021993188,-0.0133014243805,False
473,1492637910.8,40.4452938888,-79.9486554235,4.28999996185,0.0778961181641,-1.00384521484,-0.00985717773438,-0.0298577642453,-0.0487406416384,-0.0236366199389,False
474,1492637911.0,40.4452938888,-79.9486554235,4.28999996185,0.0598754882812,-1.01095581055,-0.00543212890625,-0.0196818257201,-0.0413546306712,0.0148322093751,False
475,1492637911.2,40.4452938888,-79.9486554235,4.28999996185,0.0310211181641,-0.995498657227,0.101470947266,-0.00256089570422,-0.0340202850291,0.0128561438462,False
476,1492637911.4,40.4452925875,-79.948677559,1.46000003815,0.0236968994141,-0.977569580078,0.0841522216797,-0.0129205923446,-0.00736097725298,0.00628399490815,False
477,1492637911.6,40.4452925875,-79.948677559,1.46000003815,0.0441284179688,-0.949035644531,0.296295166016,6.39158661619e-05,-0.00319259751479,-0.00638839082288,False
478,1492637911.8,40.4452925875,-79.948677559,1.46000003815,0.0398864746094,-0.945892333984,0.203826904297,-0.015965650735,-0.00308766896784,-0.00228792169249,False
479,1492637912.0,40.4452925875,-79.948677559,1.46000003815,0.0464019775391,-0.964309692383,0.251968383789,-0.0149155663172,-0.00309432687056,-0.00121093934766,False
480,1492637912.2,40.4452925875,-79.948677559,1.46000003815,0.0409851074219,-0.970230102539,0.229095458984,-0.0160175823763,-0.00415053655889,0.000912931621679,False
481,1492637912.4,40.4452925491,-79.9486782119,0.0,0.0432434082031,-0.951477050781,0.231750488281,-0.0139267346045,-0.00735511829858,0.00200882241025,False
482,1492637912.6,40.4452925491,-79.9486782119,0.0,0.0448913574219,-0.951400756836,0.232284545898,-0.0170610088914,-0.00520781151165,-0.00122745094642,False
483,1492637912.8,40.4452925491,-79.9486782119,0.0,0.0432281494141,-0.959167480469,0.227935791016,-0.0149461926697,-0.00522139363321,-0.00013954964112,False
484,1492637913.0,40.4452925491,-79.9486782119,0.0,0.0465545654297,-0.963516235352,0.22575378418,-0.016024240279,-0.0030866037034,0.00197633184495,False
485,1492637913.2,40.4452924642,-79.9486796576,0.0,0.0363159179688,-0.957473754883,0.232864379883,-0.0128180606427,-0.00736284146574,-0.00117844878236,False
486,1492637913.4,40.4452924642,-79.9486796576,0.0,0.0404968261719,-0.956878662109,0.233840942383,-0.014983476925,-0.00628452754037,0.00199524028869,False
487,1492637913.6,40.4452924642,-79.9486796576,0.0,0.0472869873047,-0.955032348633,0.234161376953,-0.0160255718596,-0.00521420309827,0.000915594782769,False
488,1492637913.8,40.4452924642,-79.9486796576,0.0,0.0388336181641,-0.9599609375,0.229019165039,-0.0138961082519,-0.00522805153593,0.000937432703708,False
489,1492637914.0,40.4452924642,-79.9486796576,0.0,0.0468444824219,-0.955078125,0.234893798828,-0.01062734433,-0.00312255637812,-0.0032993902745,False
490,1492637914.2,40.4452924619,-79.9486796965,0.0,0.0428009033203,-0.951217651367,0.234619140625,-0.0160175823763,-0.00415053655889,0.000912931621679,False
491,1492637914.4,40.4452924619,-79.9486796965,0.0,0.0449066162109,-0.959106445312,0.229202270508,-0.0181403880812,-0.00520062097671,-0.000172306522528,False
492,1492637914.6,40.4452924619,-79.9486796965,0.0,0.0421600341797,-0.954437255859,0.236175537109,-0.0160415508261,-0.00734153617702,0.000920921104949,False
493,1492637914.8,40.4452924619,-79.9486796965,0.0,0.0430755615234,-0.95573425293,0.23193359375,-0.0160109244736,-0.00521446941438,-0.000150468601589,False
494,1492637915.0,40.4452924619,-79.9486796965,0.0,0.04443359375,-0.957077026367,0.224853515625,-0.0159736402183,-0.00415133550722,-0.0022852585314,False
495,1492637915.2,40.4452925859,-79.948677586,0.0,0.0445861816406,-0.951568603516,0.241897583008,-0.0160335613428,-0.00627786963764,0.000918257943859,False
496,1492637915.4,40.4452925859,-79.948677586,0.0,0.0475921630859,-0.94743347168,0.261077880859,-0.0149009189312,-0.00309459318667,-0.00227700273202,False
497,1492637915.6,40.4452925859,-79.948677586,0.0,0.0405731201172,-0.940093994141,0.30012512207,-0.00760758596992,-0.0127144636763,0.00421977874723,False
498,1492637915.8,40.4452925859,-79.948677586,0.0,0.0420227050781,-0.922500610352,0.327301025391,0.00192839494533,-0.0170311814872,0.00539476542017,False
499,1492637916.0,40.4452925859,-79.948677586,0.0,0.0262298583984,-0.948348999023,0.333602905273,-0.0207505522656,-0.0360285748071,0.0180061647622,False
500,1492637916.2,40.4452922369,-79.9486835235,0.180000007153,0.0597381591797,-0.932495117188,0.310928344727,-0.00781531253495,-0.0286678638703,0.0106561064697,False
501,1492637916.4,40.4452922369,-79.9486835235,0.180000007153,0.0498046875,-0.933975219727,0.300109863281,-0.0272840853679,-0.0572606265978,0.0169278508369,False
502,1492637916.6,40.4452922369,-79.9486835235,0.180000007153,0.0491790771484,-0.952239990234,0.269134521484,-0.0344722234661,-0.0433874215312,0.00509009979147,False
503,1492637916.8,40.4452922369,-79.9486835235,0.180000007153,0.0593109130859,-0.962951660156,0.235275268555,-0.0204416255791,-0.0339065680506,-0.00332042924711,False
504,1492637917.0,40.4452922369,-79.9486835235,0.180000007153,0.0386505126953,-0.962554931641,0.234008789062,-0.0330666070428,-0.0253157430062,-0.00986914236762,False
505,1492637917.2,40.4452917316,-79.9486921193,0.75,0.076904296875,-0.953460693359,0.244171142578,-0.026070216543,-0.0413130853582,0.0147666956123,False
506,1492637917.4,40.4452917316,-79.9486921193,0.75,0.0556640625,-0.970779418945,0.241333007812,-0.0210336462894,0.0075804217268,-0.015161908718,False
507,1492637917.6,40.4452917316,-79.9486921193,0.75,0.0940856933594,-0.963317871094,0.167770385742,-0.0432292297625,0.0119780996348,-0.0249964299915,False
508,1492637917.8,40.4452917316,-79.9486921193,0.75,0.0628204345703,-0.956130981445,0.161773681641,-0.0351188389788,0.00448343169515,0.000695085044511,False
509,1492637918.0,40.4452917316,-79.9486921193,0.75,0.0320739746094,-0.971008300781,0.165893554688,-0.0266409319646,-0.000890294752413,0.000795752533716,False
510,1492637918.2,40.4452917316,-79.9486921193,0.75,0.0347290039062,-0.987670898438,0.157836914062,-0.0161320983032,-0.0115951370701,0.00519582728674,False
511,1492637918.4,40.4452913,-79.9486994612,0.519999980927,0.025634765625,-0.972381591797,0.140518188477,-0.0214917099969,-0.0104960504882,0.00833675947638,False
512,1492637918.6,40.4452913,-79.9486994612,0.519999980927,0.0423126220703,-0.977294921875,0.147171020508,-0.0138228713219,-0.00522938311648,-0.00439288421809,False
513,1492637918.8,40.4452913,-79.9486994612,0.519999980927,0.0344543457031,-0.965438842773,0.17854309082,-0.0109389341775,-0.0212016917542,0.00953864407634,False
514,1492637919.0,40.4452913,-79.9486994612,0.519999980927,0.0458374023438,-0.961318969727,0.192199707031,-0.011981029112,-0.0201313673121,0.00845899857042,False
515,1492637919.2,40.4452913,-79.9486994612,0.519999980927,0.0448760986328,-0.955825805664,0.237991333008,-0.0128327080287,-0.00736257514963,-0.000112385398001,False
516,1492637919.4,40.4452912634,-79.9487000843,0.0,0.0394287109375,-0.971740722656,0.215713500977,-0.0148862715452,-0.00309485950278,-0.00334306611638,False
517,1492637919.6,40.4452912634,-79.9487000843,0.0,0.0464477539062,-0.958023071289,0.222305297852,-0.0096145441674,-0.004192348188,-8.76179998636e-05,False
518,1492637919.8,40.4452912634,-79.9487000843,0.0,0.0452117919922,-0.956298828125,0.223709106445,-0.0170823141801,-0.00414361234005,0.00090201266121,False
519,1492637920.0,40.4452912634,-79.9487000843,0.0,0.0449676513672,-0.954254150391,0.241439819336,-0.00637507501743,-0.00208632039797,-0.00219231420935,False
520,1492637920.2,40.445291261,-79.9487001247,0.0,0.0488128662109,-0.957763671875,0.23957824707,-0.0149448610892,-0.00309379423835,0.000921187421058,False
521,1492637920.4,40.445291261,-79.9487001247,0.0,0.0481262207031,-0.954727172852,0.237197875977,-0.015951003349,-0.00308793528395,-0.00335398507685,False
522,1492637920.6,40.445291261,-79.9487001247,0.0,0.0479278564453,-0.950561523438,0.237060546875,-0.0170543509886,-0.00627174436714,-0.00229085116969,False
523,1492637920.8,40.445291261,-79.9487001247,0.0,0.0474700927734,-0.954483032227,0.237731933594,-0.0191252250523,-0.0062589611939,-0.00657694262806,False
524,1492637921.0,40.445291261,-79.9487001247,0.0,0.0461120605469,-0.957153320312,0.23469543457,-0.0224472521961,-0.0115549233376,-0.000200003397865,False
525,1492637921.2,40.4452912531,-79.9487002584,0.0,0.0384521484375,-0.951553344727,0.224273681641,-0.0128486869952,-0.00948990822839,-0.000107059075821,False
526,1492637921.4,40.4452912531,-79.9487002584,0.0,0.0457763671875,-0.959259033203,0.213882446289,-0.0127807763874,-0.00629970755858,-0.00331323871217,False
527,1492637921.6,40.4452912531,-79.9487002584,0.0,0.0548706054688,-0.957397460938,0.249786376953,-0.0108710235697,-0.0180114910844,0.00633246443999,False
528,1492637921.8,40.4452912531,-79.9487002584,0.0,0.0503234863281,-0.958572387695,0.253494262695,-0.0116707708451,-0.00417983133088,-0.0054397728426,False
529,1492637922.0,40.4452912531,-79.9487002584,0.0,0.0608062744141,-0.947006225586,0.293655395508,-0.00760891755047,-0.0148420630711,0.00315904168505,False
530,1492637922.2,40.4452909408,-79.9487055715,0.219999998808,0.0559539794922,-0.93571472168,0.298034667969,-0.0065188857163,-0.00953038827696,0.00422270822443,False
531,1492637922.4,40.4452909408,-79.9487055715,0.219999998808,0.0500335693359,-0.935638427734,0.279632568359,-0.0212147412436,-0.0126287098892,-0.0129791818886,False
532,1492637922.6,40.4452909408,-79.9487055715,0.219999998808,0.0666351318359,-0.93391418457,0.293762207031,-0.0136937080091,-0.021188908581,-0.0224760143358,False
533,1492637922.8,40.4452909408,-79.9487055715,0.219999998808,0.0482177734375,-0.950180053711,0.281127929688,-0.0308479275386,-0.0232035899456,-0.0151829476907,False
534,1492637923.0,40.4452909408,-79.9487055715,0.219999998808,0.0784454345703,-0.949066162109,0.275573730469,-0.0277376217015,-0.0168399665209,-0.00557159931655,False
535,1492637923.2,40.4452909408,-79.9487055715,0.219999998808,0.0237121582031,-0.963348388672,0.271057128906,-0.0180085616072,-0.0169049476515,-0.0161339625159,False
536,1492637923.4,40.4452903413,-79.9487157701,0.850000023842,0.0595855712891,-0.951507568359,0.291778564453,-0.0157978715864,-0.0158564611303,-0.0214451046779,False
537,1492637923.6,40.4452903413,-79.9487157701,0.850000023842,0.00814819335938,-0.925506591797,0.313430786133,-0.0200639893365,-0.0668791655068,0.0287549492379,False
538,1492637923.8,40.4452903413,-79.9487157701,0.850000023842,0.0562133789062,-0.930633544922,0.305801391602,-0.0284007488129,-0.0817204296296,0.00738361412224,False
539,1492637924.0,40.4452903413,-79.9487157701,0.850000023842,0.0314788818359,-0.946365356445,0.303695678711,-0.0156519303586,-0.0913773180584,0.00434041994461,False
540,1492637924.2,40.4452903413,-79.9487157701,0.850000023842,0.0363006591797,-0.948883056641,0.325073242188,-0.0278433491968,-0.108313424695,0.0298484431815,False
541,1492637924.4,40.4452893419,-79.9487327701,1.75999999046,-0.00404357910156,-0.969268798828,0.332015991211,-0.0124582675794,-0.143512424822,0.0535535063604,False
542,1492637924.6,40.4452893419,-79.9487327701,1.75999999046,0.0074462890625,-0.968948364258,0.267044067383,0.00952745879976,-0.151110157096,-0.000578704904874,False
543,1492637924.8,40.4452893419,-79.9487327701,1.75999999046,0.0149383544922,-0.94303894043,0.281799316406,0.00698733575204,-0.214905115744,0.0720624759365,False
544,1492637925.0,40.4452893419,-79.9487327701,1.75999999046,-0.147537231445,-0.973907470703,0.275909423828,-0.00127272468495,-0.29888310703,0.0849891935516,False
545,1492637925.2,40.4452893419,-79.9487327701,1.75999999046,-0.107284545898,-0.927627563477,0.253723144531,0.0364690616514,-0.385290433862,0.0813337386393,False
546,1492637925.4,40.4452879745,-79.9487560313,2.50999999046,-0.127456665039,-0.975646972656,0.320892333984,0.0378102295764,-0.462948211249,0.0964748747009,False
547,1492637925.6,40.4452879745,-79.9487560313,2.50999999046,-0.0979766845703,-0.90657043457,0.323150634766,0.0109168299405,-0.406400512875,0.0693982495819,False
548,1492637925.8,40.4452879745,-79.9487560313,2.50999999046,0.00564575195312,-0.978988647461,0.342620849609,-0.0138729387504,-0.430703455719,0.0777368732711,False
549,1492637926.0,40.4452879745,-79.9487560313,2.50999999046,-0.103408813477,-0.923736572266,0.300445556641,-0.0161382235737,-0.413666148961,0.0968615656912,False
550,1492637926.2,40.4452879745,-79.9487560313,2.50999999046,-0.0186309814453,-0.858993530273,0.341903686523,0.0280952842359,-0.514997830542,0.15515150405,False
551,1492637926.4,40.4452874241,-79.9487653942,3.25,-0.0358581542969,-0.896957397461,0.322341918945,-0.0526296557783,-0.318771061419,0.0141445811816,False
552,1492637926.6,40.4452874241,-79.9487653942,3.25,-0.0258178710938,-0.903884887695,0.347290039062,0.0291610813041,-0.328862577737,0.101371362681,False
553,1492637926.8,40.4452874241,-79.9487653942,3.25,-0.0301818847656,-0.901153564453,0.378143310547,0.0352818244375,-0.358685987205,0.104709635108,False
554,1492637927.0,40.4452874241,-79.9487653942,3.25,-0.25798034668,-0.956649780273,0.556274414062,-0.00078110514772,-0.411631227572,0.142860749303,False
555,1492637927.2,40.4452874241,-79.9487653942,3.25,-0.0650177001953,-0.912307739258,0.365142822266,-0.010585799017,-0.261604710723,0.00803022963492,False
556,1492637927.4,40.4453570577,-79.9487740322,4.17999982834,0.143417358398,-0.877807617188,0.274871826172,0.0336775361968,-0.24061101185,0.0532102248959,False
557,1492637927.6,40.4453570577,-79.9487740322,4.17999982834,-0.00584411621094,-0.946929931641,0.294372558594,-0.0150258211863,-0.153064917336,0.0802072214982,False
558,1492637927.8,40.4453570577,-79.9487740322,4.17999982834,0.0301208496094,-0.941650390625,0.300567626953,-0.0175382473587,-0.187098518171,0.0120316291728,False
559,1492637928.0,40.4453570577,-79.9487740322,4.17999982834,0.0606384277344,-0.929550170898,0.278472900391,-0.0268646374962,-0.112586466664,-0.0436992776949,False
560,1492637928.2,40.445403898,-79.9487790713,5.71999979019,0.0881805419922,-0.923767089844,0.280502319336,0.00480114681319,-0.125542479051,0.0472865556832,False
561,1492637928.4,40.445403898,-79.9487790713,5.71999979019,0.0115966796875,-0.944900512695,0.299911499023,0.0459102340319,-0.157719323973,0.0605850505865,False
562,1492637928.6,40.445403898,-79.9487790713,5.71999979019,0.0399627685547,-0.93603515625,0.286987304688,-0.00177366528599,-0.119114673444,0.0642620771036,False
563,1492637928.8,40.445403898,-79.9487790713,5.71999979019,0.0539093017578,-0.926284790039,0.294143676758,-0.0484008222833,-0.116686403162,0.0488514291398,False
564,1492637929.0,40.445403898,-79.9487790713,5.71999979019,0.04638671875,-0.94921875,0.237030029297,0.0115442706933,-0.0458170233937,-0.0125581361203,False
565,1492637929.2,40.445403898,-79.9487790713,5.71999979019,0.0775604248047,-0.94206237793,0.298965454102,-0.00920228683066,-0.0520589403567,0.0213644108968,False
566,1492637929.4,40.4454617065,-79.9487852904,6.69000005722,-0.0184783935547,-0.984878540039,0.291580200195,-0.0694653612414,0.0259738101115,-0.0455592294002,False
567,1492637929.6,40.4454617065,-79.9487852904,6.69000005722,0.0688171386719,-0.961807250977,0.319671630859,-0.0456436516068,-0.0103429187255,-0.0164338344547,False
568,1492637929.8,40.4454617065,-79.9487852904,6.69000005722,0.12629699707,-0.964813232422,0.233734130859,-0.0579890011559,0.0705820246865,-0.00397450161083,False
569,1492637930.0,40.4454617065,-79.9487852904,6.69000005722,0.155334472656,-0.931274414062,0.227416992188,-0.047855140576,0.0619991891254,-0.048629587821,False
570,1492637930.2,40.4454617065,-79.9487852904,6.69000005722,0.173690795898,-0.953079223633,0.115264892578,-0.089099516378,0.175015756305,-0.0855947963835,False
571,1492637930.4,40.4455226588,-79.9487918476,7.65000009537,0.145202636719,-0.938919067383,0.215927124023,0.00398595320352,-0.038319958609,-0.000926513743239,False
572,1492637930.6,40.4455226588,-79.9487918476,7.65000009537,0.131652832031,-0.917846679688,0.218887329102,-0.0616766803174,0.0823012650634,-0.0392275639085,False
573,1492637930.8,40.4455226588,-79.9487918476,7.65000009537,0.198196411133,-0.926681518555,0.141967773438,-0.0772061052658,0.0111341438854,-0.0328056172559,False
574,1492637931.0,40.4455226588,-79.9487918476,7.65000009537,0.162551879883,-0.957626342773,0.138336181641,-0.0457283401294,0.057730141898,-0.0507292240244,False
575,1492637931.2,40.4455226588,-79.9487918476,7.65000009537,0.149108886719,-0.991836547852,0.0865478515625,0.0317534023092,0.0657395988764,-0.0275661141273,False
576,1492637931.4,40.4455943874,-79.9487995642,7.80999994278,0.0565948486328,-0.922607421875,0.146331787109,0.0068885324756,-0.0245058757187,0.0278553334217,False
577,1492637931.6,40.4455943874,-79.9487995642,7.80999994278,0.039306640625,-1.00799560547,0.0734405517578,-0.068362546234,0.000447144747024,0.0152921372953,False
578,1492637931.8,40.4455943874,-79.9487995642,7.80999994278,0.0106658935547,-1.0093536377,0.0718231201172,-0.0102883239232,-0.0392858871364,0.0298500410782,False
579,1492637932.0,40.4455943874,-79.9487995642,7.80999994278,0.0373840332031,-1.02432250977,0.0471343994141,0.00951467562653,-0.00325251863931,0.00330445028057,False
580,1492637932.2,40.4455943874,-79.9487995642,7.80999994278,0.0670318603516,-1.05513000488,0.0509796142578,-0.00821824880788,0.0106880644028,-0.01610493406,False
581,1492637932.4,40.4456577528,-79.9488069027,6.82000017166,0.0446166992188,-1.00413513184,-0.0325927734375,-0.0132534874809,-0.0360778432873,0.0148844073325,False
582,1492637932.6,40.4456577528,-79.9488069027,6.82000017166,0.0635833740234,-1.00654602051,-0.0619659423828,-0.0120316291728,-0.0307685653381,0.0063535034126,False
583,1492637932.8,40.4456577528,-79.9488069027,6.82000017166,0.0421600341797,-1.04881286621,-0.00323486328125,-0.00670264383151,-0.010590859023,0.0170181319978,False
584,1492637933.0,40.4456577528,-79.9488069027,6.82000017166,0.0180969238281,-1.01527404785,-0.00936889648438,-0.0289088799489,-0.0232139762739,-0.00130228577305,False
585,1492637933.2,40.4456577528,-79.9488069027,6.82000017166,0.0665588378906,-1.01467895508,-0.0323791503906,-0.0148876031258,-0.0169243887275,-0.0107708887127,False
586,1492637933.4,40.4456974768,-79.9488121487,4.32000017166,0.0337066650391,-1.0163269043,-0.00941467285156,-0.0170317141194,-0.00520834414387,-0.00335957771513,False
587,1492637933.6,40.4456974768,-79.9488121487,4.32000017166,0.0402374267578,-1.00733947754,-0.0166778564453,-0.0310396751371,-0.0253277272311,-0.00238486075617,False
588,1492637933.8,40.4456974768,-79.9488121487,4.32000017166,0.0799713134766,-0.979339599609,0.0126342773438,-0.00550475397319,-0.0201745105218,0.00212813202708,False
589,1492637934.0,40.4456974768,-79.9488121487,4.32000017166,0.0782012939453,-1.01815795898,0.0362854003906,-0.00442404320284,-0.00635217183206,0.00850081019953,False
590,1492637934.2,40.4456974768,-79.9488121487,4.32000017166,0.0355529785156,-0.997787475586,0.040771484375,0.00301576361841,-0.0159747054827,0.00433695783519,False
591,1492637934.4,40.4457261878,-79.9488159404,2.17000007629,0.0904541015625,-0.991195678711,0.112426757812,-0.00335398507685,-0.0212525581311,2.05063403936e-05,False
592,1492637934.6,40.4457261878,-79.9488159404,2.17000007629,0.0890350341797,-0.955215454102,0.197601318359,-0.00102611596801,0.00319765752086,-0.0010849718281,False
593,1492637934.8,40.4457261878,-79.9488159404,2.17000007629,0.0762786865234,-0.950561523438,0.244674682617,-0.0052211273171,3.2756881408e-05,-0.00751703849286,False
594,1492637935.0,40.4457261878,-79.9488159404,2.17000007629,0.0973205566406,-0.935516357422,0.289123535156,-0.00289991611099,0.00214304572919,-0.0202932875064,False
595,1492637935.2,40.4457261878,-79.9488159404,2.17000007629,0.123031616211,-0.966186523438,0.287887573242,-0.0102225438443,0.0234653786808,-0.0182908566828,False
596,1492637935.4,40.4457415868,-79.948817974,1.37999999523,0.126678466797,-0.935180664062,0.295867919922,0.00590422813671,0.0616559076609,-0.00862837561575,False
597,1492637935.6,40.4457415868,-79.948817974,1.37999999523,0.135772705078,-0.915313720703,0.347152709961,0.00747629212818,0.0882350542882,-0.0310713667541,False
598,1492637935.8,40.4457415868,-79.948817974,1.37999999523,0.159271240234,-0.933563232422,0.329345703125,-0.0218807978322,0.102250205841,-0.056997239966,False
599,1492637936.0,40.4457415868,-79.948817974,1.37999999523,0.214370727539,-0.955596923828,0.296081542969,-0.0243186554941,0.175660241289,-0.0721386423436,False
600,1492637936.2,40.4457415868,-79.948817974,1.37999999523,0.241714477539,-0.930755615234,0.269241333008,0.0147395313692,0.233919819612,-0.0153797552952,False
601,1492637936.4,40.4457594585,-79.9488203342,2.44000005722,0.187622070312,-0.912811279297,0.276733398438,-0.024169518473,0.296932075216,-0.0170069467212,False
602,1492637936.6,40.4457594585,-79.9488203342,2.44000005722,0.169143676758,-0.934112548828,0.272964477539,-0.0288793188608,0.283125981809,-0.069264026263,False
603,1492637936.8,40.4457594585,-79.9488203342,2.44000005722,0.262680053711,-0.932388305664,0.266510009766,-0.0237873548566,0.310754680221,-0.0372967721182,False
604,1492637937.0,40.4457594585,-79.9488203342,2.44000005722,0.236038208008,-0.895080566406,0.266906738281,-0.0515116607526,0.350296497139,-0.0131597442105,False
605,1492637937.2,40.4457594585,-79.9488203342,2.44000005722,0.252105712891,-0.897583007812,0.205352783203,-0.05479853417,0.417326663879,-0.0474852275005,False
606,1492637937.4,40.4457839042,-79.9488235626,3.20000004768,0.309173583984,-0.963806152344,0.243087768555,-0.0646016301426,0.420571991984,-0.107301956113,False
607,1492637937.6,40.4457839042,-79.9488235626,3.20000004768,0.309936523438,-0.998229980469,0.251831054688,0.00323041440227,0.363764901719,-0.037156956161,False
608,1492637937.8,40.4457839042,-79.9488235626,3.20000004768,0.164886474609,-0.931365966797,0.226486206055,0.0347156363897,0.335906372504,-0.0186370676245,False
609,1492637938.0,40.4457839042,-79.9488235626,3.20000004768,0.134490966797,-0.959213256836,0.175277709961,0.0574718152722,0.349583302599,-0.039763658236,False
610,1492637938.2,40.4458078143,-79.9488267202,4.17999982834,0.0447692871094,-0.953857421875,0.208602905273,-0.0635954878828,0.443969992689,-0.0902926125464,False
611,1492637938.4,40.4458078143,-79.9488267202,4.17999982834,0.216201782227,-0.939880371094,0.268997192383,0.00101839280085,0.302079166654,-0.064741978732,False
612,1492637938.6,40.4458078143,-79.9488267202,4.17999982834,0.246856689453,-0.910980224609,0.191497802734,0.0405072128123,0.385849964007,-0.102937567718,False
613,1492637938.8,40.4458078143,-79.9488267202,4.17999982834,0.11247253418,-1.07067871094,0.298934936523,-0.00308101106511,0.378673543818,-0.189728656063,False
614,1492637939.0,40.4458078143,-79.9488267202,4.17999982834,0.350860595703,-0.92741394043,0.373474121094,0.0669832951055,0.161240022934,-0.0594382934212,False
615,1492637939.2,40.4458078143,-79.9488267202,4.17999982834,0.169876098633,-0.887649536133,0.217483520508,0.093953926413,0.192987299973,0.0100598247017,False
616,1492637939.4,40.4458283723,-79.9489538102,5.09000015259,0.0003662109375,-0.905838012695,0.413558959961,0.074516578881,0.0931310096362,0.0527670748905,False
617,1492637939.6,40.4458283723,-79.9489538102,5.09000015259,0.168121337891,-0.914779663086,0.289031982422,-0.105685151015,0.192139349482,-0.109265504784,False
618,1492637939.8,40.4458283723,-79.9489538102,5.09000015259,0.217651367188,-1.0422668457,0.281356811523,-0.0517340347037,0.240727924622,-0.0565940373769,False
619,1492637940.0,40.4458283723,-79.9489538102,5.09000015259,0.203979492188,-0.819625854492,0.17692565918,-0.0536203517038,0.180112513999,-0.0298015715463,False
620,1492637940.2,40.4458211488,-79.9490330517,5.92000007629,0.0661468505859,-0.956954956055,0.321899414062,0.0876869757358,0.038798794973,0.0722339835107,False
621,1492637940.4,40.4458211488,-79.9490330517,5.92000007629,0.112609863281,-0.744232177734,0.330322265625,0.00379766771445,0.00743980682125,0.115170798185,False
622,1492637940.6,40.4458211488,-79.9490330517,5.92000007629,0.235870361328,-0.916519165039,0.287048339844,-0.15022971604,-0.278742152338,0.241211820992,False
623,1492637940.8,40.4458211488,-79.9490330517,5.92000007629,0.4296875,-0.929473876953,0.141342163086,0.0315909494827,-0.274615051597,0.186553369096,False
624,1492637941.0,40.4458211488,-79.9490330517,5.92000007629,0.292892456055,-0.857559204102,0.243041992188,0.0772886632596,-0.0430499990211,0.00943211763273,False
625,1492637941.2,40.4458211488,-79.9490330517,5.92000007629,-0.0962066650391,-0.750045776367,0.421508789062,-0.221303093947,0.0248411676999,-0.00126366993724,False
626,1492637941.4,40.4458144094,-79.9491069817,6.63999986649,0.208145141602,-0.71061706543,0.275955200195,0.138425520824,-0.266815984345,0.088469146148,False
627,1492637941.6,40.4458144094,-79.9491069817,6.63999986649,0.0831604003906,-0.888702392578,0.372451782227,-0.169601549809,-0.237149967698,0.123622606221,False
628,1492637941.8,40.4458144094,-79.9491069817,6.63999986649,0.2255859375,-1.12350463867,0.410995483398,-0.0239269044977,0.102274973239,0.0144180878256,False
629,1492637942.0,40.4458144094,-79.9491069817,6.63999986649,-0.234436035156,-0.673843383789,0.336715698242,0.0606239327385,0.204872455286,-0.192892757754,False
630,1492637942.2,40.4458066713,-79.9491918679,7.44000005722,-0.272811889648,-1.04963684082,0.35986328125,-0.0592345615978,-0.133634760339,0.0530491036499,False
631,1492637942.4,40.4458066713,-79.9491918679,7.44000005722,0.0230407714844,-1.01571655273,0.228866577148,0.020881047159,0.0456005083971,-0.0222943867495,False
632,1492637942.6,40.4458066713,-79.9491918679,7.44000005722,0.105575561523,-1.0288848877,0.277847290039,-0.0637600712381,-0.0474583295735,-0.0357153870629,False
633,1492637942.8,40.4458066713,-79.9491918679,7.44000005722,0.0157775878906,-0.941360473633,0.259658813477,-0.0663209669424,-0.0346708952834,0.00260909891995,False
634,1492637943.0,40.4458066713,-79.9491918679,7.44000005722,-0.163452148438,-1.00090026855,0.175842285156,-0.00047244477738,-0.120177274719,0.12398612771,False
635,1492637943.2,40.4457986125,-79.9492802712,7.76000022888,-0.0933227539062,-1.03126525879,0.164367675781,0.178993453709,-0.127759028026,-0.0756713255296,False
636,1492637943.4,40.4457986125,-79.9492802712,7.76000022888,0.108474731445,-0.912216186523,0.234680175781,-0.0186032454786,-0.120096314622,-0.106501942521,False
637,1492637943.6,40.4457986125,-79.9492802712,7.76000022888,-0.137008666992,-1.08633422852,0.239334106445,0.119871011193,-0.290093876485,0.108597317667,False
638,1492637943.8,40.4457986125,-79.9492802712,7.76000022888,-0.185028076172,-1.0627746582,0.191802978516,0.0762241977719,-0.227057652431,0.0642729960641,True
639,1492637944.0,40.4457986125,-79.9492802712,7.76000022888,-0.300582885742,-0.800643920898,0.11311340332,0.0991066104901,-0.399512779348,0.165176441342,True
640,1492637944.2,40.4457902064,-79.9493724848,7.53000020981,0.642379760742,-0.580276489258,0.131225585938,-0.220420256046,0.60347656407,-0.138157074186,True
641,1492637944.4,40.4457902064,-79.9493724848,7.53000020981,-0.0242309570312,-0.523498535156,-0.409622192383,0.0454654861298,-0.621471010923,0.228106671584,True
642,1492637944.6,40.4457902064,-79.9493724848,7.53000020981,0.368667602539,-0.847503662109,0.224349975586,-0.0748851603758,0.208960940191,-0.0940665781271,True
643,1492637944.8,40.4457902064,-79.9493724848,7.53000020981,0.241165161133,-0.838790893555,0.232604980469,-0.0959734014676,0.152713646388,-0.139984535326,False
644,1492637945.0,40.4457902064,-79.9493724848,7.53000020981,0.159896850586,-0.851013183594,0.203872680664,-0.0312860175379,-0.0678757203867,-0.00760865123436,False
645,1492637945.2,40.4457902064,-79.9493724848,7.53000020981,0.386611938477,-0.986999511719,0.183868408203,-0.0925333962876,0.213338111759,-0.0473451452272,False
646,1492637945.4,40.4457823575,-79.9494585864,7.15000009537,-0.0961608886719,-1.07183837891,0.295593261719,0.0523239248851,0.011384747344,0.150842509407,False
647,1492637945.6,40.4457823575,-79.9494585864,7.15000009537,-0.263107299805,-0.932998657227,0.24267578125,0.0541543155023,-0.099272525426,0.0349294882253,False
648,1492637945.8,40.4457823575,-79.9494585864,7.15000009537,0.351547241211,-1.14807128906,0.113494873047,-0.0843279306529,0.163276808536,-0.129230424528,True
649,1492637946.0,40.4457823575,-79.9494585864,7.15000009537,0.0971069335938,-0.649642944336,0.202621459961,-0.198297643187,0.100239519218,0.148047255526,True
650,1492637946.2,40.4457823575,-79.9494585864,7.15000009537,0.131637573242,-0.916366577148,0.195129394531,-0.116556707217,0.0986096646307,-0.0664868818783,True
651,1492637946.4,40.4457748739,-79.9495406811,7.03000020981,-0.112838745117,-1.28582763672,0.0960998535156,0.13567021436,-0.0391972038721,-0.129654133458,True
652,1492637946.6,40.4457748739,-79.9495406811,7.03000020981,0.0942077636719,-0.724395751953,0.151138305664,0.00659318791071,0.0903538652514,-0.120647855283,True
653,1492637946.8,40.4457748739,-79.9495406811,7.03000020981,0.157699584961,-1.00923156738,0.187942504883,-0.0371745330242,0.0683122124894,-0.0474703137984,False
654,1492637947.0,40.4457748739,-79.9495406811,7.03000020981,-0.227920532227,-0.833206176758,0.0588989257812,0.0176764654193,0.241325537971,-0.147579338123,False
655,1492637947.2,40.4457677138,-79.9496192258,6.57999992371,-0.0322265625,-1.21060180664,0.0899047851562,0.0876827146781,0.111113205949,-0.0431037948752,False
656,1492637947.4,40.4457677138,-79.9496192258,6.57999992371,-0.149200439453,-0.906127929688,0.248687744141,-0.106980778885,0.0996112795167,-0.0653252110108,False
657,1492637947.6,40.4457677138,-79.9496192258,6.57999992371,-0.0179595947266,-1.10008239746,0.187164306641,0.12734810227,-0.146528188441,0.185070787317,False
658,1492637947.8,40.4457677138,-79.9496192258,6.57999992371,0.344345092773,-0.950942993164,0.205413818359,-0.131659760075,-0.282047401567,0.282992823754,False
659,1492637948.0,40.4457677138,-79.9496192258,6.57999992371,0.0279388427734,-0.888336181641,0.329681396484,-0.154931260628,-0.102163386789,0.0594516092266,False
660,1492637948.2,40.4457611234,-79.9496915219,5.75,0.0948181152344,-1.02941894531,0.263595581055,0.0186200233935,-0.0798881747997,0.0739655708514,False
661,1492637948.4,40.4457611234,-79.9496915219,5.75,0.0855255126953,-0.907333374023,0.402481079102,-0.0136071552737,0.0468934731063,0.00826938150081,False
662,1492637948.6,40.4457611234,-79.9496915219,5.75,0.102035522461,-1.06457519531,0.339950561523,-0.0330311870003,0.0619286153565,0.112520686585,False
663,1492637948.8,40.4457611234,-79.9496915219,5.75,0.124328613281,-0.81022644043,0.26887512207,0.0824924800296,-0.0707415480358,0.00315957431727,False
664,1492637949.0,40.4457611234,-79.9496915219,5.75,0.149749755859,-1.00357055664,0.162704467773,-0.176311384175,-0.0307728263959,-0.0507715682857,False
665,1492637949.2,40.4457543817,-79.9497654773,6.15999984741,0.269592285156,-1.04112243652,0.108108520508,-0.283541168622,0.162458419133,-0.0470370174891,False
666,1492637949.4,40.4457543817,-79.9497654773,6.15999984741,-0.318725585938,-1.2716217041,0.195816040039,0.0224190226885,0.174293773334,-0.0641931012314,False
667,1492637949.6,40.4457543817,-79.9497654773,6.15999984741,0.200378417969,-0.866897583008,0.291625976562,0.00706749690085,0.0201585315552,-0.0383633681348,False
668,1492637949.8,40.4457543817,-79.9497654773,6.15999984741,0.192306518555,-0.911468505859,0.325561523438,-0.170521938282,0.312770426851,-0.0526650758208,False
669,1492637950.0,40.4457543817,-79.9497654773,6.15999984741,-0.0825500488281,-0.789947509766,0.44856262207,-0.187148052967,0.155442054925,-0.0908129942234,False
670,1492637950.2,40.4457543817,-79.9497654773,6.15999984741,0.0784759521484,-1.15882873535,0.411239624023,-0.0169654014082,0.0745514662912,-0.119782061613,False
671,1492637950.4,40.4457489272,-79.9498253117,6.59000015259,0.520645141602,-0.784439086914,-0.0716857910156,-0.0473318294218,0.043904873731,-0.0965571663786,False
672,1492637950.6,40.4457489272,-79.9498253117,6.59000015259,0.17041015625,-0.804016113281,0.265899658203,-0.146564673748,0.267915869875,-0.19304429162,False
673,1492637950.8,40.4457489272,-79.9498253117,6.59000015259,0.167770385742,-1.02549743652,0.295974731445,-0.0920327220026,0.123968817163,-0.132406510444,False
674,1492637951.0,40.4457489272,-79.9498253117,6.59000015259,0.104675292969,-0.84162902832,0.418365478516,-0.125223698668,0.0242009437739,-0.0962375870478,False
675,1492637951.2,40.4457489272,-79.9498253117,6.59000015259,0.0739898681641,-0.928482055664,0.164901733398,-0.0224493827249,0.00119842249054,-0.0706030636591,False
676,1492637951.4,40.4457494134,-79.9498199789,7.21999979019,0.089111328125,-0.904739379883,0.276077270508,-0.0741634437204,-0.181408940818,0.0284966226122,False
677,1492637951.6,40.4457494134,-79.9498199789,7.21999979019,0.0271911621094,-0.916091918945,0.271713256836,0.0796809808668,0.0537258128829,-0.0345079098247,False
678,1492637951.8,40.4457494134,-79.9498199789,7.21999979019,0.0803985595703,-0.93310546875,0.325531005859,-0.045954442506,-0.0550049291545,0.0593794375611,False
679,1492637952.0,40.4457494134,-79.9498199789,7.21999979019,-0.0456390380859,-0.933715820312,0.224563598633,0.0112318818974,0.0563021549215,-0.011758655161,False
680,1492637952.2,40.4457318728,-79.9500042931,7.51000022888,0.230743408203,-0.916259765625,0.255111694336,-0.0274180423707,0.0959182740331,0.0325243874448,False
681,1492637952.4,40.4457318728,-79.9500042931,7.51000022888,0.116973876953,-1.00012207031,0.223831176758,-0.104475276932,0.201704092537,-0.114608871195,False
682,1492637952.6,40.4457318728,-79.9500042931,7.51000022888,0.130752563477,-0.783905029297,0.229141235352,0.110372314533,0.0184101662996,-0.117267238596,False
683,1492637952.8,40.4457318728,-79.9500042931,7.51000022888,0.189041137695,-0.983840942383,0.303237915039,-0.087763142143,0.129259985616,-0.130244023639,False
684,1492637953.0,40.4457318728,-79.9500042931,7.51000022888,0.0944671630859,-0.983032226562,0.242614746094,-0.131987328889,-0.045937398275,0.0478130626307,False
685,1492637953.2,40.4457219966,-79.9501078869,8.02000045776,-0.0256958007812,-0.890319824219,0.231094360352,0.087433176484,-0.0463139692531,-0.0331041576141,False
686,1492637953.4,40.4457219966,-79.9501078869,8.02000045776,0.151031494141,-1.05146789551,0.201477050781,0.0440303086184,0.0231255593257,0.0632977464729,False
687,1492637953.6,40.4457219966,-79.9501078869,8.02000045776,-0.0202026367188,-0.964569091797,0.182601928711,-0.0266734225299,-0.104067014336,0.0245183925758,False
688,1492637953.8,40.4457219966,-79.9501078869,8.02000045776,0.0599060058594,-0.756164550781,0.125244140625,0.0872187920162,-0.0729053664215,-0.0319715152025,False
689,1492637954.0,40.4457219966,-79.9501078869,8.02000045776,0.306350708008,-0.947006225586,0.0616760253906,0.0523154027696,0.120907779806,-0.0989343039676,False
690,1492637954.2,40.4457135673,-79.9501963031,7.42999982834,-0.0131988525391,-0.957107543945,0.0574493408203,-0.103759419231,-0.108867362201,0.129296737239,False
691,1492637954.4,40.4457135673,-79.9501963031,7.42999982834,-0.141448974609,-1.01963806152,0.196792602539,-0.0207841080953,-0.220030102946,0.152823634941,False
692,1492637954.6,40.4457135673,-79.9501963031,7.42999982834,-0.0694122314453,-0.944320678711,0.109451293945,0.0900417427717,-0.171829017745,0.0962583597043,False
693,1492637954.8,40.4457135673,-79.9501963031,7.42999982834,0.0399017333984,-1.03057861328,0.0583953857422,-0.0319659225642,0.0672283059257,0.0378829338742,False
694,1492637955.0,40.4457135673,-79.9501963031,7.42999982834,0.0179138183594,-1.04809570312,0.0951538085938,-0.0297744073032,-0.0253258630183,0.0605347168419,False
695,1492637955.2,40.4457061236,-79.9502743808,6.03999996185,0.0448455810547,-0.992767333984,0.0453643798828,-0.0547061224802,0.0322748492507,0.0462700270951,False
696,1492637955.4,40.4457061236,-79.9502743808,6.03999996185,0.0861358642578,-1.01062011719,0.0991668701172,-0.056582053152,0.102483232436,-0.0115059211736,False
697,1492637955.6,40.4457061236,-79.9502743808,6.03999996185,0.17707824707,-1.00819396973,0.0351867675781,-0.0721269244348,0.104706971946,-0.0415248066648,False
698,1492637955.8,40.4457061236,-79.9502743808,6.03999996185,0.0199279785156,-1.01293945312,0.0693664550781,0.00758894384229,0.0999473704462,0.0446007577239,False
699,1492637956.0,40.4457061236,-79.9502743808,6.03999996185,-0.0241546630859,-1.095703125,-0.0989837646484,-0.0188322773324,0.0171395721435,-0.0151640392469,False
700,1492637956.2,40.4457002538,-79.9503359509,4.73999977112,-0.132446289062,-1.07373046875,-0.0735473632812,-0.0794295784599,0.146241365991,-0.0299784054427,True
701,1492637956.4,40.4457002538,-79.9503359509,4.73999977112,-0.298309326172,-1.13763427734,-0.0154876708984,-0.10381561193,-0.293932290564,0.265182933964,True
702,1492637956.6,40.4457002538,-79.9503359509,4.73999977112,-0.210494995117,-1.02180480957,-0.0820159912109,0.179965241191,-0.0979526627898,0.102319448029,True
703,1492637956.8,40.4457002538,-79.9503359509,4.73999977112,-0.0541381835938,-1.02406311035,-0.0663604736328,0.0310657741158,0.00406345119124,0.066412846,True
704,1492637957.0,40.4457002538,-79.9503359509,4.73999977112,-0.0487060546875,-0.987274169922,0.00914001464844,-0.0221942518925,0.0416310667923,0.0103274723912,True
705,1492637957.2,40.4456978522,-79.9503611414,2.30999994278,-0.00949096679688,-0.994689941406,-0.0705718994141,0.014155233826,-0.0532738744459,0.0258715447257,True
706,1492637957.4,40.4456978522,-79.9503611414,2.30999994278,-0.00276184082031,-1.03503417969,-0.0210876464844,-0.0120856913429,0.0511334918778,-0.0226461903295,False
707,1492637957.6,40.4456978522,-79.9503611414,2.30999994278,0.0105438232422,-0.991958618164,0.144882202148,0.0192762262861,0.0413495706651,-0.0628159806317,False
708,1492637957.8,40.4456978522,-79.9503611414,2.30999994278,0.0662078857422,-0.993927001953,0.121520996094,-0.0509366842733,0.00352069896108,-0.0111927334294,False
709,1492637958.0,40.4456978522,-79.9503611414,2.30999994278,-0.0208129882812,-0.982330322266,0.115875244141,-0.0234906787112,0.022493591199,0.0167608706365,False
710,1492637958.2,40.4456978522,-79.9503611414,2.30999994278,0.00100708007812,-0.975860595703,0.150665283203,-0.00843529643672,-0.00845660172544,-0.0107266802386,False
711,1492637958.4,40.4456968209,-79.9503719587,0.310000002384,0.0309143066406,-0.979705810547,0.230438232422,-0.0274167107901,0.00443043478946,-0.0173515597663,False
712,1492637958.6,40.4456968209,-79.9503719587,0.310000002384,0.028564453125,-0.956771850586,0.213470458984,-0.0261442524213,0.0320788405944,-0.0174098829942,False
713,1492637958.8,40.4456968209,-79.9503719587,0.310000002384,0.0289154052734,-0.947982788086,0.25651550293,-0.0084526069838,-0.00100960436925,-0.00541500544446,False
714,1492637959.0,40.4456968209,-79.9503719587,0.310000002384,0.0368499755859,-0.951705932617,0.280456542969,-0.0158671137747,0.00222959846461,-0.00656549103537,False
715,1492637959.2,40.4456968209,-79.9503719587,0.310000002384,0.0274658203125,-0.949371337891,0.271621704102,-0.0159336928019,0.00116699718967,-0.00229857433685,False
716,1492637959.4,40.4456967308,-79.9503729034,0.0,0.0371856689453,-0.945999145508,0.260101318359,-0.0116880813921,0.00326716602531,-0.000128098048433,False
717,1492637959.6,40.4456967308,-79.9503729034,0.0,0.0357208251953,-0.966827392578,0.251907348633,-0.019131882955,0.00650690149139,0.00085354312937,False
718,1492637959.8,40.4456967308,-79.9503729034,0.0,0.0186309814453,-0.948974609375,0.264297485352,-0.0191545198243,0.00544350126812,0.00192226967482,False
719,1492637960.0,40.4456967308,-79.9503729034,0.0,0.0393218994141,-0.954284667969,0.281112670898,-0.00490953746956,0.0298138220873,-0.0139879873095,False
720,1492637960.2,40.4456963089,-79.9503773293,0.509999990463,0.0384063720703,-0.973510742188,0.238845825195,-0.0501622370283,0.00777429985416,0.0122609273426,False
721,1492637960.4,40.4456963089,-79.9503773293,0.509999990463,0.00965881347656,-0.942108154297,0.260208129883,-0.00624058538238,0.0255703412064,0.0030687605241,False
722,1492637960.6,40.4456963089,-79.9503773293,0.509999990463,0.0402374267578,-0.954071044922,0.25505065918,-0.0357361597194,0.0172479627999,-0.0249333130736,False
723,1492637960.8,40.4456963089,-79.9503773293,0.509999990463,0.0406646728516,-0.957962036133,0.253311157227,-0.029554163881,0.0384864061772,0.00173052207633,False
724,1492637961.0,40.4456963089,-79.9503773293,0.509999990463,0.0619964599609,-0.964126586914,0.265975952148,-0.00960389152304,0.0362323066305,0.0211324495659,False
725,1492637961.2,40.445695642,-79.9503843244,0.740000009537,0.0392303466797,-0.930511474609,0.403762817383,0.0272015273741,0.0540706922441,-0.0126556078162,False
726,1492637961.4,40.445695642,-79.9503843244,0.740000009537,0.0353698730469,-0.820251464844,0.549819946289,0.0162130584003,0.173268189998,-0.0781147758298,False
727,1492637961.6,40.445695642,-79.9503843244,0.740000009537,0.0456848144531,-1.00988769531,0.290542602539,0.0640703295051,0.051707935725,0.0154495301158,False
728,1492637961.8,40.445695642,-79.9503843244,0.740000009537,0.0883026123047,-0.955673217773,0.383270263672,-0.013918212489,0.104332531497,-0.0153387426144,False
729,1492637962.0,40.445695642,-79.9503843244,0.740000009537,0.0883331298828,-0.898254394531,0.383010864258,0.0129277828796,0.152026817143,-0.00559104039251,False
730,1492637962.2,40.4456939081,-79.9504025115,2.28999996185,0.0409088134766,-0.995056152344,0.355163574219,-0.106720588047,0.238953460388,-0.0859402083769,False
731,1492637962.4,40.4456939081,-79.9504025115,2.28999996185,0.0979156494141,-0.745849609375,0.344436645508,0.0520834414387,0.332585676941,-0.121873442017,False
732,1492637962.6,40.4456939081,-79.9504025115,2.28999996185,0.175933837891,-0.9248046875,0.357437133789,-0.0807872579837,0.146253616532,-0.00866805671599,False
733,1492637962.8,40.4456939081,-79.9504025115,2.28999996185,0.263732910156,-0.912857055664,0.235610961914,-0.154969610148,0.422197052881,-0.272428330026,False
734,1492637963.0,40.4456939081,-79.9504025115,2.28999996185,0.467376708984,-0.878433227539,0.196884155273,-0.175671692882,0.549982179885,-0.246314703957,False
735,1492637963.2,40.4456939081,-79.9504025115,2.28999996185,0.384216308594,-0.854736328125,0.224411010742,-0.159511897703,0.46374343115,-0.0742662417385,False
736,1492637963.4,40.4456911311,-79.9504316403,3.53999996185,0.0875091552734,-0.962997436523,0.283081054688,-0.0206932943021,0.452197828877,-0.10800023695,False
737,1492637963.6,40.4456911311,-79.9504316403,3.53999996185,0.392318725586,-0.925689697266,0.238876342773,-0.103037968891,0.478256593827,-0.146228050186,False
738,1492637963.8,40.4456911311,-79.9504316403,3.53999996185,0.304977416992,-0.894470214844,0.192596435547,-0.0281765106491,0.490531635923,-0.162552695036,False
739,1492637964.0,40.4456911311,-79.9504316403,3.53999996185,0.239852905273,-0.941604614258,0.262680053711,-0.0642247928484,0.42588419941,-0.131834729758,False
740,1492637964.2,40.4456516583,-79.9504326441,4.11000013351,0.340896606445,-0.964294433594,0.196701049805,-0.0983561316949,0.494190819261,-0.0907781068131,False
741,1492637964.4,40.4456516583,-79.9504326441,4.11000013351,0.109893798828,-0.876205444336,0.357574462891,-0.0280529399746,0.370355959101,-0.00444162006603,False
742,1492637964.6,40.4456516583,-79.9504326441,4.11000013351,0.0779418945312,-1.06297302246,0.268325805664,-0.0537942561229,0.210953783635,-0.0778625744745,False
743,1492637964.8,40.4456516583,-79.9504326441,4.11000013351,0.414520263672,-0.902099609375,0.218383789062,-0.0532704123365,-0.0815542483776,0.0348501260248,False
744,1492637965.0,40.4456516583,-79.9504326441,4.11000013351,0.0615539550781,-0.9140625,0.360321044922,0.0671739774395,0.0942412814946,0.0452255353156,False
745,1492637965.2,40.4456021868,-79.9504261434,5.65999984741,0.0378112792969,-0.994232177734,0.350433349609,-0.0301411245853,0.167181002694,-0.118023576345,False
746,1492637965.4,40.4456021868,-79.9504261434,5.65999984741,0.251739501953,-0.938690185547,0.186492919922,-0.0444526859673,0.13004615077,-0.104213488196,False
