,timestamp,latitude,longitude,speed,accelerometerX,accelerometerY,accelerometerZ,gyroX,gyroY,gyroZ,potholes
0,1492638406.7,40.4482732887,-79.9456688489,2.24000000954,0.0171966552734,-0.929275512695,0.293472290039,-0.024540763129,-0.0126055403877,-0.00341736831079,False
1,1492638406.9,40.4482732887,-79.9456688489,2.24000000954,0.0570983886719,-0.929946899414,0.260452270508,-0.030668164165,-0.00512205772455,-0.0184264115823,False
2,1492638407.1,40.4482732887,-79.9456688489,2.24000000954,0.0630187988281,-0.932678222656,0.252792358398,-0.0302372647007,-0.0466061180247,0.00514176511662,False
3,1492638407.3,40.4482881972,-79.9456919537,2.51999998093,0.0386962890625,-0.951675415039,0.328704833984,0.00340857987919,0.00316676485221,-0.0138340565985,False
4,1492638407.5,40.4482881972,-79.9456919537,2.51999998093,0.0514526367188,-0.945007324219,0.358932495117,-0.0374040975102,-0.0220951823,-0.00245836400225,False
5,1492638407.7,40.4482881972,-79.9456919537,2.51999998093,0.0537261962891,-0.898483276367,0.35383605957,-0.0177875192367,0.0203244464912,-0.0119629196166,False
6,1492638407.9,40.4482881972,-79.9456919537,2.51999998093,0.119552612305,-0.892578125,0.36735534668,-0.00625789592947,-0.0137903807566,-0.0170879068184,False
7,1492638408.1,40.4483031264,-79.9457150908,3.1400001049,0.0387268066406,-0.920318603516,0.343521118164,-0.00308633738729,-0.00317262380661,-0.00961933785737,False
8,1492638408.3,40.4483031264,-79.9457150908,3.1400001049,0.0947113037109,-0.945419311523,0.352264404297,-0.0169225245147,-0.00627414121212,-0.0118854216289,False
9,1492638408.5,40.4483031264,-79.9457150908,3.1400001049,0.0307312011719,-0.929092407227,0.33430480957,-0.052338305955,-0.00816818137938,0.00694871991623,False
10,1492638408.7,40.4483031264,-79.9457150908,3.1400001049,0.0729675292969,-0.887542724609,0.37712097168,0.0375079607927,0.000817057822436,-0.0166775136944,False
11,1492638408.9,40.4483031264,-79.9457150908,3.1400001049,0.0522613525391,-0.928665161133,0.302597045898,-0.0564534224714,-0.000696416625056,0.000490021640575,False
12,1492638409.1,40.4483282081,-79.945753962,4.42000007629,0.0208587646484,-0.962371826172,0.315643310547,-0.0882702080146,-0.0111290838793,-0.0147358029436,False
13,1492638409.3,40.4483282081,-79.945753962,4.42000007629,0.0225524902344,-0.925201416016,0.34196472168,0.0348378754838,-0.0321374301384,0.00470447406562,False
14,1492638409.5,40.4483282081,-79.945753962,4.42000007629,0.0533752441406,-0.96435546875,0.284362792969,0.00661875425717,0.0169752551043,-0.00743954050514,False
15,1492638409.7,40.4483282081,-79.945753962,4.42000007629,0.0374145507812,-0.945098876953,0.299880981445,-0.0363207235787,-0.00401764482049,0.00603578829456,False
16,1492638409.9,40.4483282081,-79.945753962,4.42000007629,0.0645751953125,-0.909088134766,0.321228027344,0.014961372688,0.0573354614244,-0.0501068432776,False
17,1492638410.1,40.4483554193,-79.9457961335,5.19000005722,0.0843048095703,-0.937118530273,0.230361938477,-0.0913086085022,0.0154841512099,-0.0116369486992,False
18,1492638410.3,40.4483554193,-79.9457961335,5.19000005722,0.0498352050781,-0.963165283203,0.270538330078,-0.0434169826193,0.016236760534,-0.00901613187046,False
19,1492638410.5,40.4483554193,-79.9457961335,5.19000005722,0.0748901367188,-0.955047607422,0.290267944336,0.000916926363314,-0.0138337902824,0.00324373020772,False
20,1492638410.7,40.4483554193,-79.9457961335,5.19000005722,0.0306549072266,-0.928161621094,0.260787963867,-0.00957326517051,-0.00844834592606,-0.0054072822773,False
21,1492638410.9,40.4483554193,-79.9457961335,5.19000005722,0.0794372558594,-0.937316894531,0.332275390625,-0.0538792109617,0.00779214303346,-0.0272270937205,False
22,1492638411.1,40.4483554193,-79.9457961335,5.19000005722,0.0511932373047,-0.915115356445,0.293334960938,0.0129445607944,-0.0011499529587,-0.0126590699256,False
23,1492638411.3,40.448386924,-79.9458449588,5.34999990463,0.0947113037109,-0.925186157227,0.336807250977,-0.0632226453302,-0.000647947093216,0.0281421558711,False
24,1492638411.5,40.448386924,-79.9458449588,5.34999990463,0.0503234863281,-0.951599121094,0.284118652344,-0.0200980777985,0.0235330229725,0.00293214036018,False
25,1492638411.7,40.448386924,-79.9458449588,5.34999990463,0.0774993896484,-0.935424804688,0.308364868164,-0.0192663725901,-0.00944783028317,0.00195955393008,False
26,1492638411.9,40.448386924,-79.9458449588,5.34999990463,0.111465454102,-0.950897216797,0.325454711914,0.0187609046152,0.0371036929392,-0.0276252363035,False
27,1492638412.1,40.4484226504,-79.945900327,5.80000019073,0.0720672607422,-0.939758300781,0.330917358398,-0.033458091723,-0.0189257542866,0.0220967801966,False
28,1492638412.3,40.4484226504,-79.945900327,5.80000019073,0.0477752685547,-0.966064453125,0.294128417969,0.00077577882554,0.00638120028794,0.0245143978342,False
29,1492638412.5,40.4484226504,-79.945900327,5.80000019073,0.0500640869141,-1.00073242188,0.224899291992,-0.0232416731492,0.0107871339954,-0.00772929243174,False
30,1492638412.7,40.4484226504,-79.945900327,5.80000019073,0.0253295898438,-0.980331420898,0.199493408203,-0.00673992808677,-0.0116539929302,0.0191529219276,False
31,1492638412.9,40.4484226504,-79.945900327,5.80000019073,0.0251770019531,-0.986404418945,0.165313720703,0.00272414747904,-0.0489475692551,0.00761770598206,False
32,1492638413.1,40.4484226504,-79.945900327,5.80000019073,0.0128784179688,-0.949005126953,0.192459106445,-0.0490588893887,-0.0124457507223,-0.00153637763287,False
33,1492638413.3,40.4484259016,-79.9459053657,6.57000017166,-0.0433502197266,-0.932510375977,0.175689697266,-0.0170876405023,-0.000952080089703,0.00302614994666,False
34,1492638413.5,40.4484259016,-79.9459053657,6.57000017166,-0.0199890136719,-1.01634216309,0.204223632812,-0.0333169441852,-0.0274388150272,0.0071931981043,False
35,1492638413.7,40.4484259016,-79.9459053657,6.57000017166,0.0771331787109,-1.00332641602,0.194076538086,0.0155640460426,0.032869266806,-0.0297794673093,False
36,1492638413.9,40.4484259016,-79.9459053657,6.57000017166,0.00346374511719,-0.91862487793,0.224151611328,-0.0085058702056,0.0192037883045,0.00945928187585,False
37,1492638414.1,40.4484259016,-79.9459053657,6.57000017166,0.0303497314453,-0.952941894531,0.269821166992,-0.0422510506941,0.049206162197,0.0015728629398,False
38,1492638414.3,40.4484259016,-79.9459053657,6.38999986649,0.0308685302734,-0.928741455078,0.321716308594,0.00705764320482,-0.0117432088267,0.0224930585668,False
39,1492638414.5,40.4484259016,-79.9459053657,6.38999986649,0.0912170410156,-0.856094360352,0.267105102539,-0.0409066869758,0.0396198475371,-0.0239777708745,False
40,1492638414.7,40.4484259016,-79.9459053657,6.38999986649,0.0497894287109,-0.931274414062,0.223815917969,0.0143949183241,-0.00966194843481,0.0321587354271,False
41,1492638414.9,40.4484259016,-79.9459053657,6.38999986649,0.0111846923828,-0.978134155273,0.220672607422,-0.0567924428782,0.0237649843034,-0.0390264952462,False
42,1492638415.1,40.4484259016,-79.9459053657,6.38999986649,0.0543365478516,-0.918258666992,0.251388549805,0.00209750567455,-0.00426851459518,3.2490565299e-05,False
43,1492638415.3,40.4485384303,-79.9460856146,6.73000001907,0.0627746582031,-0.934234619141,0.275772094727,-0.0296620219052,0.0182759429807,-0.00141706801603,False
44,1492638415.5,40.4485384303,-79.9460856146,6.73000001907,0.0216979980469,-0.927627563477,0.234405517578,-0.0350962021095,0.0172487617482,0.00599344403322,False
45,1492638415.7,40.4485384303,-79.9460856146,6.73000001907,0.0186767578125,-0.952178955078,0.23908996582,-0.051341484759,0.0120385533916,0.0228999895814,False
46,1492638415.9,40.4485384303,-79.9460856146,6.73000001907,-0.0624237060547,-0.950988769531,0.208755493164,-0.0217779998141,-0.0349585166811,0.015860455872,False
47,1492638416.1,40.4485756526,-79.9461452402,6.78999996185,-0.0329895019531,-0.946640014648,0.22265625,0.00580249538306,-0.0585405418177,0.0108726214664,False
48,1492638416.3,40.4485756526,-79.9461452402,6.78999996185,-0.0554351806641,-0.940185546875,0.281524658203,0.0235559261579,-0.000154729659334,-0.0093543533289,False
49,1492638416.5,40.4485756526,-79.9461452402,6.78999996185,0.00506591796875,-0.946914672852,0.273468017578,0.00381151615212,-0.0478910932507,0.00655989839708,False
50,1492638416.7,40.4485756526,-79.9461452402,6.78999996185,0.0174713134766,-0.935470581055,0.282012939453,-0.00742649101579,-0.0276111215497,-0.0170642046847,False
51,1492638416.9,40.4485756526,-79.9461452402,6.78999996185,0.0161590576172,-0.99951171875,0.223602294922,0.00956394410669,-0.0181467796678,-0.00838496269211,False
52,1492638417.1,40.4485756526,-79.9461452402,6.78999996185,0.0631408691406,-0.918655395508,0.229522705078,-0.0240014730082,0.0533409861054,-0.00678067445145,False
53,1492638417.3,40.4486156988,-79.9462093892,6.96999979019,-0.0104370117188,-0.953521728516,0.292144775391,-0.0350903431551,0.0661715636052,-0.0453110227866,False
54,1492638417.5,40.4486156988,-79.9462093892,6.96999979019,0.0673370361328,-0.942581176758,0.176864624023,-0.0283376318951,0.0235833567171,-0.0174104156264,False
55,1492638417.7,40.4486156988,-79.9462093892,6.96999979019,0.00129699707031,-0.946655273438,0.184875488281,-0.0352900802369,0.0395799001208,-0.0452444437594,False
56,1492638417.9,40.4486156988,-79.9462093892,6.96999979019,0.0933532714844,-0.934707641602,0.241394042969,-0.00234784281701,-0.00955648725564,0.0106627643725,False
57,1492638418.1,40.4486156988,-79.9462093892,6.96999979019,0.0764770507812,-0.929107666016,0.192245483398,-0.0176109516565,-0.0179635541848,0.0318524719018,False
58,1492638418.3,40.448655768,-79.9462735752,7.11999988556,-0.0362548828125,-0.922790527344,0.193923950195,0.0637467554327,-0.0206253836943,-0.000360325695488,False
59,1492638418.5,40.448655768,-79.9462735752,7.11999988556,0.0122680664062,-1.005859375,0.186172485352,0.044896634921,-0.0481531483019,0.0389676393861,False
60,1492638418.7,40.448655768,-79.9462735752,7.11999988556,0.0624237060547,-0.991424560547,0.178619384766,-0.0126004803816,0.0990019482593,-0.0366357755357,False
61,1492638418.9,40.448655768,-79.9462735752,7.11999988556,0.0377960205078,-0.983688354492,0.214706420898,-0.0455730778379,0.0088044105638,-0.0111514544325,False
62,1492638419.1,40.448655768,-79.9462735752,7.11999988556,0.0692596435547,-0.953277587891,0.200607299805,-0.0339329333454,0.0225591049618,0.00172679365081,False
63,1492638419.3,40.4486944801,-79.9463355873,6.84000015259,0.0310974121094,-0.971435546875,0.249984741211,-0.0224698890653,-0.0126183235609,0.000868723147584,False
64,1492638419.5,40.4486944801,-79.9463355873,6.84000015259,0.058349609375,-0.989227294922,0.169464111328,0.0151712297819,0.00202586664122,-0.0179755384097,False
65,1492638419.7,40.4486944801,-79.9463355873,6.84000015259,0.0529632568359,-1.00367736816,0.213119506836,0.00881879163369,0.0244068061261,-0.00850240809619,False
66,1492638419.9,40.4486944801,-79.9463355873,6.84000015259,0.0325012207031,-1.00137329102,0.264862060547,-0.032837575189,0.00127538784604,-0.0120678481636,False
67,1492638420.1,40.4486944801,-79.9463355873,6.84000015259,0.0484619140625,-0.956390380859,0.222930908203,-0.0159989402487,0.0022319953096,0.00302907942386,False
68,1492638420.3,40.4487338036,-79.9463985787,6.65999984741,-0.00732421875,-0.923263549805,0.214904785156,-0.0292963698875,-0.0338450490294,0.0211116769094,False
69,1492638420.5,40.4487338036,-79.9463985787,6.65999984741,-0.0388793945312,-0.988861083984,0.195877075195,0.0277336269599,-0.0363505509829,-0.0230789540066,False
70,1492638420.7,40.4487338036,-79.9463985787,6.65999984741,0.0469818115234,-1.00370788574,0.197402954102,0.00950881667213,-0.0521753204963,0.0546089171004,False
71,1492638420.9,40.4487338036,-79.9463985787,6.65999984741,-0.00294494628906,-0.934280395508,0.211212158203,0.017617076927,-0.0586185724376,0.00353028634101,False
72,1492638421.1,40.4487338036,-79.9463985787,6.65999984741,0.0997924804688,-0.952606201172,0.155288696289,-0.103589243237,-0.00357795692452,0.0192067177817,False
73,1492638421.3,40.4487700921,-79.9464567082,6.28000020981,-0.0508728027344,-0.943466186523,0.186477661133,-0.0216475049207,-0.0253865830912,0.0115722338847,False
74,1492638421.5,40.4487700921,-79.9464567082,6.28000020981,-0.0303802490234,-0.945022583008,0.193923950195,-0.0221401897224,-0.0753767799131,0.0202259095308,False
75,1492638421.7,40.4487700921,-79.9464567082,6.28000020981,-0.0577545166016,-1.00799560547,0.168991088867,0.0057620153345,-0.115973208622,0.0600662668062,False
76,1492638421.9,40.4487700921,-79.9464567082,6.28000020981,-0.0829772949219,-0.962142944336,0.130676269531,0.0165350345761,-0.0628665806924,0.00246395664054,False
77,1492638422.1,40.4487700921,-79.9464567082,6.28000020981,-0.0677337646484,-0.97785949707,0.0983734130859,-0.0416915205491,-0.118861406824,0.0244028113845,False
78,1492638422.3,40.4488050213,-79.9465126606,5.78999996185,-0.0571746826172,-0.995147705078,0.131271362305,0.0254957726959,-0.132065359509,0.0101977764461,False
79,1492638422.5,40.4488050213,-79.9465126606,5.78999996185,0.0153198242188,-1.02572631836,0.134231567383,-0.0163091985156,-0.0605272599909,-0.00854049129978,False
80,1492638422.7,40.4488050213,-79.9465126606,5.78999996185,-0.0521545410156,-0.974533081055,0.11506652832,-0.0149067778856,-0.110527044193,0.017192036417,False
81,1492638422.9,40.4488050213,-79.9465126606,5.78999996185,0.0281219482422,-0.975601196289,0.0866088867188,-0.0128766501866,-0.0658714253503,-0.0287496229157,False
82,1492638423.1,40.4488050213,-79.9465126606,5.78999996185,0.0211029052734,-1.0092010498,0.0919952392578,-0.03904540369,-0.0890979184814,0.00302881310775,False
83,1492638423.3,40.448833967,-79.946559028,4.61999988556,0.0238647460938,-0.990798950195,0.0673217773438,-0.01224468206,-0.0786362227712,-0.00418728818193,False
84,1492638423.5,40.448833967,-79.946559028,4.61999988556,0.0990447998047,-0.977737426758,0.0643463134766,-0.0365337764659,-0.0401833724238,0.00186208223418,False
85,1492638423.7,40.448833967,-79.946559028,4.61999988556,0.0619659423828,-0.983032226562,0.103698730469,-0.0114129768515,-0.0648093567076,0.0203084675246,False
86,1492638423.9,40.448833967,-79.946559028,4.61999988556,0.0410003662109,-0.996368408203,0.0805816650391,0.00362908961745,-0.0585258944317,0.0140489736985,False
87,1492638424.1,40.448833967,-79.946559028,4.61999988556,0.0810852050781,-0.980895996094,0.122161865234,-0.0133746613105,-0.0541604407728,0.0138636176866,False
88,1492638424.3,40.4488516551,-79.9465873622,3.22000002861,0.0862274169922,-0.986053466797,0.122283935547,0.00167805780286,-0.0191542535082,0.0224571058921,False
89,1492638424.5,40.4488516551,-79.9465873622,3.22000002861,0.0738220214844,-1.00300598145,0.130676269531,0.000622647062861,-0.0276579931849,0.0171371752986,False
90,1492638424.7,40.4488516551,-79.9465873622,3.22000002861,0.0260925292969,-0.98908996582,0.119400024414,0.00272015273741,-0.0319265077801,0.0171696658638,False
91,1492638424.9,40.4488516551,-79.9465873622,3.22000002861,0.0468902587891,-1.00129699707,0.0832061767578,0.00372496341669,-0.0340599661294,0.0203841012996,False
92,1492638425.1,40.4488516551,-79.9465873622,3.22000002861,0.0484619140625,-0.991561889648,0.0778961181641,0.00826352254641,-0.0202631937861,0.00760039543498,False
93,1492638425.3,40.4488679942,-79.9466135354,2.16000008583,0.0680389404297,-1.0062713623,0.0681610107422,0.00186048433753,-0.020221382157,0.00860094505652,False
94,1492638425.5,40.4488679942,-79.9466135354,2.16000008583,0.0508117675781,-0.976089477539,0.0848388671875,-0.00995010246475,-0.0254624831822,0.0127584058342,False
95,1492638425.7,40.4488679942,-79.9466135354,2.16000008583,0.0494232177734,-0.991439819336,0.0919799804688,-0.0160655192759,-0.022234465625,-0.00543817494594,False
96,1492638425.9,40.4488679942,-79.9466135354,2.16000008583,0.0606689453125,-0.990463256836,0.112060546875,0.00288127398336,-0.0202275074275,0.0118100541701,False
97,1492638426.1,40.4488679942,-79.9466135354,2.16000008583,0.0643005371094,-0.964584350586,0.164306640625,-0.0106646285852,-0.00418569028528,-0.00116460034469,False
98,1492638426.3,40.4488699898,-79.9466167321,0.550000011921,0.0755615234375,-0.960189819336,0.215515136719,-0.00536626959651,-0.00953891039245,-0.00216275312125,False
99,1492638426.5,40.4488699898,-79.9466167321,0.550000011921,0.0848388671875,-0.960708618164,0.225357055664,-0.0159976086681,-0.00734233512535,-0.00227726904813,False
100,1492638426.7,40.4488699898,-79.9466167321,0.550000011921,0.0794525146484,-0.960983276367,0.227172851562,-0.0139267346045,-0.00735511829858,0.00200882241025,False
101,1492638426.9,40.4488699898,-79.9466167321,0.550000011921,0.0696105957031,-0.964874267578,0.189804077148,-0.0170916352439,-0.0073348782743,-0.000156061239879,False
102,1492638427.1,40.4488699898,-79.9466167321,0.550000011921,0.0765991210938,-0.971282958984,0.166915893555,-0.0139200767017,-0.00841905115407,0.000945422186978,False
103,1492638427.3,40.4488720739,-79.9466200707,0.189999997616,0.0754241943359,-0.968566894531,0.206649780273,-0.0171369089824,-0.00946167872083,0.00198139185102,False
104,1492638427.5,40.4488720739,-79.9466200707,0.189999997616,0.0726318359375,-0.9462890625,0.254699707031,-0.0117599867416,-0.00630583282909,-0.000104129598622,False
105,1492638427.7,40.4488720739,-79.9466200707,0.189999997616,0.0726318359375,-0.963516235352,0.221740722656,-0.0171062826299,-0.00733461195819,0.00091000214448,False
106,1492638427.9,40.4488720739,-79.9466200707,0.189999997616,0.0679626464844,-0.95573425293,0.222991943359,-0.019219767271,-0.00519343044176,0.000882837901361,False
107,1492638428.1,40.4488720739,-79.9466200707,0.189999997616,0.0731658935547,-0.964569091797,0.221893310547,-0.0138441766107,-0.00416518394488,-0.00226342061046,False
108,1492638428.3,40.4488715472,-79.946619227,0.0,0.0699310302734,-0.952514648438,0.232772827148,-0.0139200767017,-0.00841905115407,0.000945422186978,False
109,1492638428.5,40.4488715472,-79.946619227,0.0,0.0759582519531,-0.947555541992,0.233016967773,-0.0170450299248,-0.00308047843289,-0.0012327772686,False
110,1492638428.7,40.4488715472,-79.946619227,0.0,0.068115234375,-0.963302612305,0.222518920898,-0.0149701611196,-0.00841239325134,-0.00013156015785,False
111,1492638428.9,40.4488715472,-79.946619227,0.0,0.0816802978516,-0.955276489258,0.233703613281,-0.0149168978978,-0.00522192626543,-0.00227167640984,False
112,1492638429.1,40.4488715472,-79.946619227,0.0,0.0697479248047,-0.956466674805,0.229156494141,-0.0160482087288,-0.00627760332153,0.00198432132822,False
113,1492638429.3,40.4488715661,-79.9466192573,0.0,0.0786285400391,-0.958267211914,0.224960327148,-0.0149528505725,-0.00415746077772,0.000923850582148,False
114,1492638429.5,40.4488715661,-79.9466192573,0.0,0.0700531005859,-0.955932617188,0.226913452148,-0.0160322297623,-0.00415027024278,0.00197899500604,False
115,1492638429.7,40.4488715661,-79.9466192573,0.0,0.0785827636719,-0.956726074219,0.228942871094,-0.0170397036027,-0.00627201068325,-0.00335691455404,False
116,1492638429.9,40.4488715661,-79.9466192573,0.0,0.0703735351562,-0.954055786133,0.229843139648,-0.0138961082519,-0.00522805153593,0.000937432703708,False
117,1492638430.1,40.4488715661,-79.9466192573,0.0,0.0790710449219,-0.955276489258,0.226486206055,-0.0159882876043,-0.00415106919111,-0.00121919514704,False
118,1492638430.3,40.448871585,-79.9466192875,0.0,0.0713500976562,-0.956314086914,0.229064941406,-0.0181470459839,-0.00413668812122,0.000891093700741,False
119,1492638430.5,40.448871585,-79.9466192875,0.0,0.0750732421875,-0.955749511719,0.232131958008,-0.0160029349903,-0.004150802875,-0.00015313176268,False
120,1492638430.7,40.448871585,-79.9466192875,0.0,0.0759124755859,-0.953887939453,0.225357055664,-0.0149315452837,-0.00522165994932,-0.00120561302548,False
121,1492638430.9,40.448871585,-79.9466192875,0.0,0.0741119384766,-0.95588684082,0.228515625,-0.0159736402183,-0.00415133550722,-0.0022852585314,False
122,1492638431.1,40.448871585,-79.9466192875,0.0,0.0742034912109,-0.954528808594,0.230133056641,-0.0149315452837,-0.00522165994932,-0.00120561302548,False
123,1492638431.3,40.4488716039,-79.9466193178,0.0,0.0710296630859,-0.95524597168,0.226486206055,-0.0170689983746,-0.00627147805103,-0.00122478778533,False
124,1492638431.5,40.4488716039,-79.9466193178,0.0,0.0767669677734,-0.954498291016,0.223876953125,-0.0170836457606,-0.00627121173492,-0.000158724400969,False
125,1492638431.7,40.4488716039,-79.9466193178,0.0,0.0744934082031,-0.956619262695,0.224639892578,-0.0170836457606,-0.00627121173492,-0.000158724400969,False
126,1492638431.9,40.4488716039,-79.9466193178,0.0,0.0739288330078,-0.955703735352,0.231460571289,-0.0149382031865,-0.00415772709383,-0.00014221280221,False
127,1492638432.1,40.4488716039,-79.9466193178,0.0,0.0733032226562,-0.954803466797,0.224151611328,-0.0139040977352,-0.00629171807531,0.000940095864798,False
128,1492638432.3,40.448872078,-79.9466200771,0.0,0.0730743408203,-0.953643798828,0.224853515625,-0.0138588239967,-0.00416491762877,-0.0011973572261,False
129,1492638432.5,40.448872078,-79.9466200771,0.0,0.0762176513672,-0.953506469727,0.230529785156,-0.0149315452837,-0.00522165994932,-0.00120561302548,False
130,1492638432.7,40.448872078,-79.9466200771,0.0,0.0745544433594,-0.957489013672,0.230377197266,-0.0149315452837,-0.00522165994932,-0.00120561302548,False
131,1492638432.9,40.448872078,-79.9466200771,0.0,0.0741271972656,-0.955856323242,0.230712890625,-0.0170903036634,-0.00520727887943,0.0009046758223,False
132,1492638433.1,40.448872078,-79.9466200771,0.0,0.0723571777344,-0.956207275391,0.227554321289,-0.0138814608659,-0.00522831785204,-0.000128630680651,False
133,1492638433.3,40.4488713009,-79.9466188324,0.0,0.0744018554688,-0.955657958984,0.228225708008,-0.0138588239967,-0.00416491762877,-0.0011973572261,False
134,1492638433.5,40.4488713009,-79.9466188324,0.0,0.0716247558594,-0.956039428711,0.228546142578,-0.0149382031865,-0.00415772709383,-0.00014221280221,False
135,1492638433.7,40.4488713009,-79.9466188324,0.0,0.0764007568359,-0.958404541016,0.228515625,-0.0139120872185,-0.00735538461469,0.000942759025888,False
136,1492638433.9,40.4488713009,-79.9466188324,0.0,0.0746765136719,-0.956008911133,0.230178833008,-0.0160175823763,-0.00415053655889,0.000912931621679,False
137,1492638434.1,40.4488713009,-79.9466188324,0.0,0.0754699707031,-0.953796386719,0.22590637207,-0.0128233869648,-0.00417130921539,0.000945688503087,False
138,1492638434.3,40.4488715202,-79.9466191837,0.0,0.0734100341797,-0.954116821289,0.228698730469,-0.0149382031865,-0.00415772709383,-0.00014221280221,False
139,1492638434.5,40.4488715202,-79.9466191837,0.0,0.0753631591797,-0.955749511719,0.226913452148,-0.0149475242503,-0.00734899302807,-0.0012002867033,False
140,1492638434.7,40.4488715202,-79.9466191837,0.0,0.0733947753906,-0.956848144531,0.227142333984,-0.0159882876043,-0.00415106919111,-0.00121919514704,False
141,1492638434.9,40.4488715202,-79.9466191837,0.0,0.0754852294922,-0.954818725586,0.232849121094,-0.0160109244736,-0.00521446941438,-0.000150468601589,False
142,1492638435.1,40.4488715202,-79.9466191837,0.0,0.0723419189453,-0.957000732422,0.228942871094,-0.0149382031865,-0.00415772709383,-0.00014221280221,False
143,1492638435.3,40.4488715391,-79.9466192139,0.0,0.0737762451172,-0.953689575195,0.226425170898,-0.0149315452837,-0.00522165994932,-0.00120561302548,False
144,1492638435.5,40.4488715391,-79.9466192139,0.0,0.0756530761719,-0.956130981445,0.232025146484,-0.0160042665708,-0.00627840226986,-0.00121386882486,False
145,1492638435.7,40.4488715391,-79.9466192139,0.0,0.0755462646484,-0.955612182617,0.230239868164,-0.0149089084145,-0.00415825972605,-0.00227433957093,False
146,1492638435.9,40.4488715391,-79.9466192139,0.0,0.0708923339844,-0.956497192383,0.228805541992,-0.0138668134799,-0.00522858416815,-0.00119469406501,False
147,1492638436.1,40.4488715391,-79.9466192139,0.0,0.0760192871094,-0.952926635742,0.228454589844,-0.0170756562774,-0.00520754519554,-0.000161387562059,False
148,1492638436.3,40.448871558,-79.9466192442,0.0,0.073974609375,-0.955383300781,0.229248046875,-0.014954182153,-0.00628506017259,-0.00013688648003,False
149,1492638436.5,40.448871558,-79.9466192442,0.0,0.0751342773438,-0.956146240234,0.227142333984,-0.015951003349,-0.00308793528395,-0.00335398507685,False
150,1492638436.7,40.448871558,-79.9466192442,0.0,0.0738372802734,-0.947814941406,0.241653442383,-0.0191372092772,-0.00200349608807,-0.00338940511934,False
151,1492638436.9,40.448871558,-79.9466192442,0.0,0.0894165039062,-0.948486328125,0.259063720703,-0.0107724866094,-0.012694223652,0.00205489509711,False
152,1492638437.1,40.448871558,-79.9466192442,0.0,0.0699768066406,-0.94792175293,0.268356323242,-0.0127474868738,8.25579937925e-05,-0.00226315429435,False
153,1492638437.3,40.4488716153,-79.946619336,0.0,0.0777282714844,-0.945037841797,0.260482788086,-0.00962253365067,-0.00525601472738,-8.49548387735e-05,False
154,1492638437.5,40.4488716153,-79.946619336,0.0,0.0708770751953,-0.929946899414,0.333969116211,0.000862331560968,-0.0191518566632,0.00432310939753,False
155,1492638437.7,40.4488716153,-79.946619336,0.0,0.0742645263672,-0.925033569336,0.358581542969,-0.0106246811689,-0.0105692874182,-0.0075450016843,False
156,1492638437.9,40.4488716153,-79.946619336,0.0,0.0981597900391,-0.920043945312,0.367935180664,-0.0275725057139,0.0012418320163,-0.0077489998238,False
157,1492638438.1,40.4488716153,-79.946619336,0.0,0.101715087891,-0.914031982422,0.379501342773,-0.00728933821966,0.00430073884437,-0.00968165582687,False
158,1492638438.3,40.4488732273,-79.9466219182,0.730000019073,0.0706176757812,-0.932968139648,0.370971679688,-0.00979697070207,-0.0265290791988,0.00103437176739,False
159,1492638438.5,40.4488732273,-79.9466219182,0.730000019073,0.0713043212891,-0.897094726562,0.382141113281,-0.00900521290999,-0.0414244054917,0.0128092722111,False
160,1492638438.7,40.4488732273,-79.9466219182,0.730000019073,0.0538940429688,-0.895858764648,0.395309448242,-0.000523311154201,-0.0521172635845,0.00972506535264,False
161,1492638438.9,40.4488732273,-79.9466219182,0.730000019073,0.0906066894531,-0.883239746094,0.406280517578,0.0495185509928,-0.116258965807,0.0530515004949,False
162,1492638439.1,40.4488732273,-79.9466219182,0.730000019073,-0.0215301513672,-0.900360107422,0.398513793945,0.0192714325961,-0.241574543533,0.0935813501765,False
163,1492638439.3,40.4488812293,-79.9466347364,2.06999993324,0.0391998291016,-0.888595581055,0.331695556641,0.0109487878735,-0.378741987058,0.0821217680059,False
164,1492638439.5,40.4488812293,-79.9466347364,2.06999993324,0.0285034179688,-0.930313110352,0.325805664062,0.138588772599,-0.338081908799,0.11531008151,False
165,1492638439.7,40.4488812293,-79.9466347364,2.06999993324,-0.0853271484375,-0.917984008789,0.389190673828,0.0665486672156,-0.372710992453,0.146648297006,False
166,1492638439.9,40.4488812293,-79.9466347364,2.06999993324,-0.119003295898,-0.879119873047,0.393844604492,0.0085737808134,-0.424455147169,0.15258554834,False
167,1492638440.1,40.4488812293,-79.9466347364,2.06999993324,-0.179992675781,-0.948547363281,0.293930053711,-0.0288444314505,-0.429541518535,0.0829116615852,False
168,1492638440.3,40.4488941329,-79.9466554065,3.21000003815,-0.0928497314453,-0.958602905273,0.366622924805,0.057732538743,-0.498179968258,0.0999684094188,False
169,1492638440.5,40.4488941329,-79.9466554065,3.21000003815,-0.0948486328125,-0.932403564453,0.303512573242,-0.0905133886007,-0.512093919689,0.185916074647,False
170,1492638440.7,40.4488941329,-79.9466554065,3.21000003815,-0.23176574707,-0.921722412109,0.314163208008,-0.03629941829,-0.472033052676,0.137321906868,False
171,1492638440.9,40.4488941329,-79.9466554065,3.21000003815,-0.201538085938,-0.984222412109,0.353439331055,-0.0172540880704,-0.523218476195,0.118457138971,False
172,1492638441.1,40.4488941329,-79.9466554065,3.21000003815,-0.0561065673828,-0.977340698242,0.308288574219,0.0357292355006,-0.404438029468,0.047256728279,False
173,1492638441.3,40.4489494695,-79.946666195,3.65000009537,-0.0833892822266,-0.941055297852,0.350524902344,-0.00160295666012,-0.393556353254,0.0575085668953,False
174,1492638441.5,40.4489494695,-79.946666195,3.65000009537,0.0122985839844,-0.968032836914,0.450088500977,0.0371329877112,-0.428906354615,0.0867841641263,False
175,1492638441.7,40.4489494695,-79.946666195,3.65000009537,-0.0997161865234,-0.902908325195,0.543746948242,-0.0641923022831,-0.334629919394,0.149476307767,False
176,1492638441.9,40.4489494695,-79.946666195,3.65000009537,-0.137145996094,-0.929290771484,0.425384521484,-0.0120079270391,-0.298812266945,0.091276384253,False
177,1492638442.1,40.4489943578,-79.9466192237,5.98000001907,-0.0613555908203,-0.923553466797,0.473541259766,-0.0127964890378,-0.227547407755,0.0324426283993,False
178,1492638442.3,40.4489943578,-79.9466192237,5.98000001907,-0.0688018798828,-0.872619628906,0.525039672852,0.0045055359322,-0.211705860327,0.0219167505069,False
179,1492638442.5,40.4489943578,-79.9466192237,5.98000001907,0.0483093261719,-0.867919921875,0.493438720703,-0.0132020884718,-0.180744748442,0.00992719927938,False
180,1492638442.7,40.4489943578,-79.9466192237,5.98000001907,0.0941925048828,-0.862884521484,0.462692260742,0.000408262595109,-0.0776532500129,0.00553564664184,False
181,1492638442.9,40.4489943578,-79.9466192237,5.98000001907,0.0585174560547,-0.90950012207,0.505508422852,-0.00385199620069,-0.0797531525324,0.00443123373778,False
182,1492638443.1,40.4489943578,-79.9466192237,5.98000001907,0.0953063964844,-0.883346557617,0.473175048828,-0.00492019011392,0.0127930269284,-0.022473883807,False
183,1492638443.3,40.4490468567,-79.9465642886,8.21000003815,0.116546630859,-0.916381835938,0.421951293945,0.0226895998553,0.0126143288193,-0.016859673913,False
184,1492638443.5,40.4490468567,-79.9465642886,8.21000003815,0.0204925537109,-0.907531738281,0.434524536133,-0.0614508442569,0.00571514369931,-0.0198357564311,False
185,1492638443.7,40.4490468567,-79.9465642886,8.21000003815,0.0346221923828,-0.955673217773,0.377334594727,0.055015848115,-0.00992799822771,0.020846958697,False
186,1492638443.9,40.4490468567,-79.9465642886,8.21000003815,0.0675354003906,-0.9453125,0.405532836914,0.00869974833296,-0.0649387863366,0.0290444348484,False
187,1492638444.1,40.4490468567,-79.9465642886,8.21000003815,-0.0160980224609,-0.948272705078,0.370223999023,0.0452503027138,-0.0843167453763,0.0710510073544,False
188,1492638444.3,40.4491269253,-79.9464805043,11.1599998474,0.113815307617,-0.942565917969,0.34001159668,-0.0462977239705,0.100280531899,-0.0636394300408,False
189,1492638444.5,40.4491269253,-79.9464805043,11.1599998474,0.0910339355469,-0.921005249023,0.375640869141,0.0219079620753,-0.0309877434958,0.0162974806068,False
190,1492638444.7,40.4491269253,-79.9464805043,11.1599998474,0.131286621094,-0.885025024414,0.3818359375,0.0143850646281,-0.088371408136,0.0675468199921,False
191,1492638444.9,40.4491269253,-79.9464805043,11.1599998474,0.156524658203,-0.911376953125,0.251739501953,-0.0360570706308,-0.00402243851046,-0.0131533526239,False
192,1492638445.1,40.4491269253,-79.9464805043,11.1599998474,0.218658447266,-0.841369628906,0.286193847656,-0.052321261724,0.144995539233,-0.0659489233381,False
193,1492638445.4,40.4492137892,-79.9463896095,12.779999733,0.132049560547,-1.09001159668,0.187515258789,-0.190981673356,0.172470573251,-0.190054094349,False
194,1492638445.5,40.4492137892,-79.9463896095,12.779999733,0.363922119141,-1.0680847168,0.293045043945,-0.074699804364,0.0281344327039,-0.0509494674465,False
195,1492638445.7,40.4492137892,-79.9463896095,12.779999733,0.125274658203,-1.00662231445,0.195556640625,-0.0772591021715,-0.0356477427713,0.100591322798,False
196,1492638445.9,40.4492137892,-79.9463896095,12.779999733,0.00665283203125,-1.02165222168,0.233749389648,-0.0295461743978,0.0395500727165,0.00172785891524,False
197,1492638446.1,40.4492137892,-79.9463896095,12.779999733,0.0922088623047,-1.08752441406,0.248153686523,0.0283682582476,-0.00975436012463,0.022706111454,False
198,1492638446.3,40.4493070231,-79.9462900069,13.8100004196,0.0629119873047,-0.917602539062,0.26220703125,0.0259884574975,-0.0586713030272,0.0142782718684,False
199,1492638446.5,40.4493070231,-79.9462900069,13.8100004196,0.0797576904297,-1.02920532227,0.245849609375,-0.00868110620533,0.012811669056,-0.058763714717,False
200,1492638446.7,40.4493070231,-79.9462900069,13.8100004196,0.0206909179688,-0.954727172852,0.293090820312,0.139933402633,-0.0296258029144,0.0302969195091,False
201,1492638446.9,40.4493070231,-79.9462900069,13.8100004196,0.12678527832,-1.0150604248,0.22966003418,-0.0185446559347,0.0203257780717,-0.0343611696486,False
202,1492638447.1,40.4493070231,-79.9462900069,13.8100004196,-0.0120086669922,-0.940032958984,0.300354003906,0.0102345280692,-0.0511247034463,0.00236914810573,False
203,1492638447.3,40.4494056044,-79.946183272,14.2399997711,0.0124969482422,-0.946838378906,0.220611572266,-0.0341238819955,-0.0997633460149,0.0265634339769,False
204,1492638447.5,40.4494056044,-79.946183272,14.2399997711,-0.0334167480469,-0.977996826172,0.224166870117,0.0435940828318,0.00929150272718,0.0100182793887,False
205,1492638447.7,40.4494056044,-79.946183272,14.2399997711,0.0177917480469,-0.985641479492,0.270416259766,-0.0158023989602,-0.0743535934222,0.02455301367,False
206,1492638447.9,40.4494056044,-79.946183272,14.2399997711,0.05078125,-1.00384521484,0.248352050781,-0.0143030392665,0.0160431487227,-0.0353729045468,False
207,1492638448.1,40.4494056044,-79.946183272,14.2399997711,0.11589050293,-1.0277557373,0.289154052734,0.0707410154036,0.0463421987607,-0.00792503477186,False
208,1492638448.3,40.4495048079,-79.9460758634,14.4399995804,0.071533203125,-0.934951782227,0.287200927734,-0.0204136623877,-0.00092891058822,0.0125879635245,False
209,1492638448.5,40.4495048079,-79.9460758634,14.4399995804,0.0803833007812,-0.995101928711,0.152969360352,0.0381306078555,-0.00343707570286,0.0131938326725,False
210,1492638448.7,40.4495048079,-79.9460758634,14.4399995804,0.0527496337891,-1.01866149902,0.127746582031,0.0589485380967,-0.028034564163,0.0347947322741,False
211,1492638448.9,40.4495048079,-79.9460758634,14.4399995804,0.00245666503906,-1.01998901367,0.207321166992,-0.0451496352245,0.0300729476614,-0.0303938585727,False
212,1492638449.1,40.4495048079,-79.9460758634,14.4399995804,0.00862121582031,-1.08959960938,0.179885864258,0.0763432410726,-0.0909043406488,0.0521944952561,False
213,1492638449.3,40.449607308,-79.9459659556,14.5799999237,-0.0179901123047,-1.00532531738,0.200424194336,0.0109354720681,0.0903370873366,-0.0491670137289,False
214,1492638449.5,40.449607308,-79.9459659556,14.5799999237,0.0725250244141,-1.03274536133,0.19921875,-0.0490908473218,-0.0167004168798,-0.00152572498851,False
215,1492638449.7,40.449607308,-79.9459659556,14.5799999237,0.13053894043,-0.935577392578,0.142868041992,-0.0273474686018,-0.0136556248055,-0.0322311734088,False
216,1492638449.9,40.449607308,-79.9459659556,14.5799999237,0.112503051758,-0.938232421875,0.167449951172,0.0138023649816,-0.067097012084,0.044029243354,False
217,1492638450.1,40.449607308,-79.9459659556,14.5799999237,-0.00880432128906,-0.908905029297,0.178375244141,-0.0988429575422,0.00276835595314,-0.0127474868738,False
218,1492638450.3,40.4497122098,-79.9458543506,14.3000001907,0.0047607421875,-1.02348327637,0.262771606445,0.036526585931,-0.0810786078069,0.0101791343185,False
219,1492638450.5,40.4497122098,-79.9458543506,14.3000001907,-0.0984191894531,-0.984024047852,0.179092407227,-0.0734079049192,-0.0112252239947,-0.011384747344,False
220,1492638450.7,40.4497122098,-79.9458543506,14.3000001907,-0.0531463623047,-0.965377807617,0.176422119141,-0.0205279119984,0.157543821657,-0.125363780942,False
221,1492638450.9,40.4497122098,-79.9458543506,14.3000001907,0.0291748046875,-1.04022216797,0.0926513671875,-0.00806698125796,-0.044620465116,0.0202906243453,False
222,1492638451.1,40.4497122098,-79.9458543506,14.3000001907,0.0863647460938,-1.01280212402,0.109710693359,0.0219337947379,0.0147432597947,-0.0381971868828,False
223,1492638451.3,40.4498058809,-79.9457557738,13.7700004578,0.0238647460938,-0.991333007812,0.101928710938,0.033912427005,-0.0597797106729,0.0570108220875,False
224,1492638451.5,40.4498058809,-79.9457557738,13.7700004578,0.00173950195312,-1.0986328125,0.0997924804688,-0.115507688063,-0.0407314509761,0.0138495029328,False
225,1492638451.7,40.4498058809,-79.9457557738,13.7700004578,0.243804931641,-0.972015380859,0.0551300048828,-0.0659904686511,0.237621613527,-0.105777829021,False
226,1492638451.9,40.4498058809,-79.9457557738,13.7700004578,-0.000595092773438,-0.995986938477,0.109451293945,-0.0520514835056,0.0216008996016,-0.0752236481504,False
227,1492638452.1,40.4498058809,-79.9457557738,13.7700004578,-0.0303344726562,-0.931869506836,0.159683227539,-0.0155712365776,-0.142429317207,0.0481877693961,False
228,1492638452.3,40.4499013192,-79.9456573254,12.6999998093,0.128479003906,-1.10154724121,0.0657043457031,-0.0220885243972,0.0628929459872,-0.0632950833118,False
229,1492638452.5,40.4499013192,-79.9456573254,12.6999998093,-0.0111083984375,-0.955444335938,0.0798950195312,-0.011049987995,-0.109483617678,0.0470828238598,False
230,1492638452.7,40.4499013192,-79.9456573254,12.6999998093,0.01611328125,-0.962036132812,0.124145507812,-0.0275583909601,-0.0508727684071,0.0403652663262,False
231,1492638452.9,40.4499013192,-79.9456573254,12.6999998093,0.124710083008,-0.997146606445,0.0768890380859,0.0347087121709,0.00722595498571,0.0355217752517,False
232,1492638453.1,40.4499013192,-79.9456573254,12.6999998093,0.0897521972656,-1.0119934082,0.0662689208984,-0.062582155088,0.016361396473,-0.00921267315891,False
233,1492638453.3,40.4499846981,-79.9455713166,11.5600004196,0.0233612060547,-0.922393798828,0.115936279297,-0.0295901165558,0.00444508217545,-0.0141752075342,False
234,1492638453.5,40.4499846981,-79.9455713166,11.5600004196,-0.00473022460938,-0.917175292969,0.187210083008,-0.0577474524451,0.13333009471,-0.0649081599841,False
235,1492638453.7,40.4499846981,-79.9455713166,11.5600004196,0.156524658203,-0.943176269531,0.166488647461,-0.0305262176789,-0.0519199233477,0.0232781584562,False
236,1492638453.9,40.4499846981,-79.9455713166,11.5600004196,0.186965942383,-0.938537597656,0.199493408203,-0.0917962332978,0.146316999766,-0.0599592077304,False
237,1492638454.1,40.4499846981,-79.9455713166,11.5600004196,0.197540283203,-0.638244628906,0.17170715332,-0.291875264938,0.17527621346,-0.0535527074121,False
238,1492638454.3,40.4500626323,-79.9454909243,10.7899999619,0.139694213867,-1.0198059082,-0.0184326171875,0.121072629477,-0.10928015217,0.0420377314908,False
239,1492638454.5,40.4500626323,-79.9454909243,10.7899999619,0.00685119628906,-1.0173034668,0.255294799805,0.184806335421,-0.288388388123,0.111390174702,False
240,1492638454.7,40.4500626323,-79.9454909243,10.7899999619,-0.0271301269531,-0.990478515625,0.241668701172,0.0406891067148,-0.134282707432,0.065802183162,False
241,1492638454.9,40.4500626323,-79.9454909243,10.7899999619,0.148788452148,-0.994812011719,0.170425415039,-0.0212946360763,0.0469462036959,0.0252499629273,False
242,1492638455.1,40.4500626323,-79.9454909243,10.7899999619,0.0803833007812,-0.945114135742,0.227935791016,-0.0302945226641,-0.0327755235356,0.0168338412504,False
243,1492638455.3,40.4501388726,-79.9454122794,10.5600004196,0.150634765625,-1.06538391113,0.0814056396484,0.00836525530005,0.064827466203,-0.0310018582496,False
244,1492638455.5,40.4501388726,-79.9454122794,10.5600004196,0.129165649414,-0.965316772461,0.133941650391,-0.00173478313408,0.0850991821046,-0.0599453592927,False
245,1492638455.7,40.4501388726,-79.9454122794,10.5600004196,0.119110107422,-1.00648498535,0.13883972168,-0.0912492200099,-0.0462055785968,0.0279727788258,False
246,1492638455.9,40.4501388726,-79.9454122794,10.5600004196,0.00906372070312,-0.897933959961,0.104568481445,-0.0350535915321,0.00341843357523,-0.00463256871619,False
247,1492638456.1,40.4501388726,-79.9454122794,10.5600004196,0.0572052001953,-1.03968811035,0.0571441650391,-0.012740828971,0.0107205549681,0.00304053101654,False
248,1492638456.3,40.4502101788,-79.9453371134,9.96000003815,0.0677947998047,-0.958541870117,0.0537872314453,-0.0173512934502,-0.0243511460594,0.00948111979679,False
249,1492638456.5,40.4502101788,-79.9453371134,9.96000003815,0.0439910888672,-0.980941772461,0.0439910888672,0.0113059177757,-0.028791700861,0.0140508379113,False
250,1492638456.7,40.4502101788,-79.9453371134,9.96000003815,0.0693206787109,-1.0048828125,0.0351409912109,-0.00709279693121,-0.0605829200577,0.0182093639534,False
251,1492638456.9,40.4502101788,-79.9453371134,9.96000003815,0.124984741211,-1.02056884766,-0.00827026367188,-0.0270164376783,-0.0274787624435,0.0136550921733,False
252,1492638457.1,40.4502101788,-79.9453371134,9.96000003815,-0.0201873779297,-1.02378845215,-0.0797576904297,-0.00911440251469,-0.0403586084235,0.0213351161248,False
253,1492638457.3,40.4502740053,-79.9452696484,8.42000007629,0.0507354736328,-1.04888916016,-0.130859375,-0.0207713249221,0.0171499584718,-0.0290447011645,False
254,1492638457.5,40.4502740053,-79.9452696484,8.42000007629,0.110458374023,-1.05349731445,-0.113388061523,-0.0366336450068,-0.0359263094213,0.0114460000491,False
255,1492638457.7,40.4502740053,-79.9452696484,8.42000007629,0.0121765136719,-1.01983642578,-0.159057617188,-0.00973172325537,-0.0275940773187,-0.00429328199332,False
256,1492638457.9,40.4502740053,-79.9452696484,8.42000007629,0.0214691162109,-1.0241394043,-0.169296264648,-0.0245887000286,-0.0423913992836,-0.0161355604126,False
257,1492638458.1,40.4502740053,-79.9452696484,8.42000007629,0.0687866210938,-1.0492401123,-0.207946777344,-0.010510165242,-0.00312468690699,-0.0118278973494,False
258,1492638458.3,40.4503178257,-79.9452206298,5.86000013351,0.0476684570312,-1.02583312988,-0.133361816406,-0.00564723309151,-0.0371929088357,0.00323680598888,False
259,1492638458.5,40.4503178257,-79.9452206298,5.86000013351,0.0718841552734,-1.04339599609,-0.155029296875,-0.0214664099666,-0.0285813111348,-0.00334466401303,False
260,1492638458.7,40.4503178257,-79.9452206298,5.86000013351,0.076171875,-1.03216552734,-0.0900115966797,-0.00219870579597,-0.0170058814568,-0.00424348088093,False
261,1492638458.9,40.4503178257,-79.9452206298,5.86000013351,0.0650787353516,-1.01246643066,0.0189666748047,-0.00139629535953,-0.0265823424206,0.00965023052601,False
262,1492638459.1,40.4503178257,-79.9452206298,5.86000013351,0.0840148925781,-0.961471557617,0.151870727539,0.00603951672008,-0.0191838145963,0.0150383380435,False
263,1492638459.3,40.4503417316,-79.9451932131,3.51999998093,0.0897674560547,-0.953308105469,0.17431640625,-0.0107312076125,-0.00524829156022,0.00310231635383,False
264,1492638459.5,40.4503417316,-79.9451932131,3.51999998093,0.0832061767578,-0.971374511719,0.198211669922,-0.0320671226856,-0.0125557392753,0.00183651588772,False
265,1492638459.7,40.4503417316,-79.9451932131,3.51999998093,0.0972290039062,-0.962020874023,0.19645690918,-0.00534096956615,-0.00422031137945,-0.00111000554235,False
266,1492638459.9,40.4503417316,-79.9451932131,3.51999998093,0.0843200683594,-0.968322753906,0.142242431641,-0.0169611403505,0.00223705531567,-0.00444428322712,False
267,1492638460.1,40.4503417316,-79.9451932131,3.51999998093,0.0679473876953,-0.991958618164,0.124176025391,-0.0160628561148,-0.00627733700543,0.00305038471258,False
268,1492638460.3,40.4503426881,-79.9451921161,1.57000005245,0.0876159667969,-0.977493286133,0.102722167969,-0.0130497556575,-0.0148053114481,0.0116329539576,False
269,1492638460.5,40.4503426881,-79.9451921161,1.57000005245,0.0617523193359,-0.991409301758,0.0901794433594,-0.0054901065872,-0.00847284700809,0.00742915417689,False
270,1492638460.7,40.4503426881,-79.9451921161,1.57000005245,0.0845184326172,-0.970458984375,0.0910797119141,-0.0129845082108,-0.015870309568,0.00630530019687,False
271,1492638460.9,40.4503426881,-79.9451921161,1.57000005245,0.0918731689453,-0.985198974609,0.101715087891,-0.0117093866809,0.0043313651969,0.00200136555919,False
272,1492638461.1,40.4503426881,-79.9451921161,1.57000005245,0.0821533203125,-0.951568603516,0.226364135742,-0.000110521185238,-0.00106180232661,0.0074651068516,False
273,1492638461.3,40.4503581002,-79.9451708774,0.810000002384,0.0852966308594,-0.964874267578,0.219680786133,-0.0234800260668,-0.00729333296129,-0.000221575002695,False
274,1492638461.5,40.4503581002,-79.9451708774,0.810000002384,0.096923828125,-0.949462890625,0.235702514648,-0.0138202081609,-0.000974184326751,-0.00227141009373,False
275,1492638461.7,40.4503581002,-79.9451708774,0.810000002384,0.107635498047,-0.944854736328,0.227752685547,-0.0116028602373,-0.000989630661073,-0.00864595247894,False
276,1492638461.9,40.4503581002,-79.9451708774,0.810000002384,0.0974578857422,-0.961776733398,0.231536865234,-0.00877751263679,-0.0169608740344,0.00954982935292,False
277,1492638462.1,40.4503581002,-79.9451708774,0.810000002384,0.097412109375,-0.969390869141,0.218383789062,-0.00532632218016,-0.00422057769556,-0.0021760689267,False
278,1492638462.3,40.4503637537,-79.9451629737,0.870000004768,0.0896606445312,-0.969619750977,0.219207763672,-0.0174098829942,-0.0243500807949,0.0137453733342,False
279,1492638462.5,40.4503637537,-79.9451629737,0.870000004768,0.0558929443359,-0.96125793457,0.23420715332,-0.0168998876454,0.00649118884096,-0.0065870626402,False
280,1492638462.7,40.4503637537,-79.9451629737,0.870000004768,0.0896759033203,-0.94905090332,0.231475830078,-0.0170530194081,-0.00414414497227,-0.00123011410751,False
281,1492638462.9,40.4503637537,-79.9451629737,0.870000004768,0.0845947265625,-0.926879882812,0.326431274414,0.00626055909056,-0.00535828011324,0.00647520987442,False
282,1492638463.1,40.4503637537,-79.9451629737,0.870000004768,0.105850219727,-0.920989990234,0.346542358398,-0.00852717549432,-0.00313587218357,-0.00114542558484,False
283,1492638463.3,40.4503725388,-79.9451506924,1.09000003338,0.0824584960938,-0.924072265625,0.338424682617,-0.01828419878,-0.0126446888557,0.00624271591125,False
284,1492638463.5,40.4503725388,-79.9451506924,1.09000003338,0.0959167480469,-0.916351318359,0.334396362305,-0.0108403972172,-0.0158844243218,0.00526107473345,False
285,1492638463.7,40.4503725388,-79.9451506924,1.09000003338,0.0822296142578,-0.937240600586,0.351669311523,-0.0069476546518,-0.0276073931242,0.0255892496501,False
286,1492638463.9,40.4503725388,-79.9451506924,1.09000003338,0.0440826416016,-0.8916015625,0.435836791992,-0.0535415221355,-0.0304987871197,0.00486160056994,False
287,1492638464.1,40.4503725388,-79.9451506924,1.09000003338,0.165618896484,-0.921752929688,0.315322875977,-0.0252978998269,0.0107996508525,-0.0130814472745,False
288,1492638464.3,40.4503839162,-79.9451347868,2.5,0.0519409179688,-0.957611083984,0.365692138672,-0.0075596490703,0.0170713952196,0.016937970849,False
289,1492638464.5,40.4503839162,-79.9451347868,2.5,0.0507507324219,-0.99626159668,0.257736206055,0.0623411390093,-0.0269951323896,0.0209660019978,False
290,1492638464.7,40.4503839162,-79.9451347868,2.5,0.112762451172,-0.888488769531,0.400772094727,0.0435807670264,0.0114193684382,0.0121450798352,False
291,1492638464.9,40.4503839162,-79.9451347868,2.5,0.148651123047,-0.936279296875,0.27766418457,-0.0502908677089,0.0992520190856,-0.0061021010057,False
292,1492638465.1,40.4503839162,-79.9451347868,2.5,0.137222290039,-0.939270019531,0.264663696289,-0.0262835357463,0.118237694497,-0.0378917223058,False
293,1492638465.3,40.4503918654,-79.9451236739,3.86999988556,0.234786987305,-0.942581176758,0.283584594727,-0.079534773323,0.130286101584,-0.0310045214107,False
294,1492638465.5,40.4503918654,-79.9451236739,3.86999988556,0.243118286133,-0.925704956055,0.240875244141,-0.0326181307152,0.243795619882,-0.05107516865,False
295,1492638465.7,40.4503918654,-79.9451236739,3.86999988556,0.220703125,-0.943313598633,0.193923950195,-0.0392781639693,0.231076362516,-0.0383159638674,False
296,1492638465.9,40.4503918654,-79.9451236739,3.86999988556,0.205429077148,-0.916641235352,0.235977172852,-0.0428100482069,0.257686135496,-0.0768045005734,False
297,1492638466.1,40.4503918654,-79.9451236739,3.86999988556,0.210571289062,-0.936569213867,0.263305664062,-0.0479970870621,0.237518282876,-0.0202962169836,False
298,1492638466.3,40.4503905469,-79.9451255171,4.51000022888,0.145980834961,-0.973251342773,0.207656860352,-0.0385844105053,0.309785822217,-0.0459754814786,False
299,1492638466.5,40.4503905469,-79.9451255171,4.51000022888,0.152328491211,-0.965347290039,0.211303710938,-0.0361593360167,0.290617986587,-0.0778876081888,False
300,1492638466.7,40.4503905469,-79.9451255171,4.51000022888,0.149948120117,-0.97575378418,0.232345581055,0.000258060309629,0.245710965338,-0.040081373354,False
301,1492638466.9,40.4503905469,-79.9451255171,4.51000022888,0.200332641602,-0.952285766602,0.233947753906,-0.0545047875018,0.250315304547,-0.0822362839328,False
302,1492638467.1,40.4503905469,-79.9451255171,4.51000022888,0.240325927734,-0.973709106445,0.218902587891,-0.0233359490518,0.306491225632,-0.0724662111577,False
303,1492638467.3,40.4503909362,-79.9451249729,4.90000009537,0.213729858398,-0.909790039062,0.257293701172,-0.0255293285256,0.286293811925,-0.0788338293241,False
304,1492638467.5,40.4503909362,-79.9451249729,4.90000009537,0.184143066406,-0.974227905273,0.281341552734,-0.0442058109342,0.294920057012,-0.109967514048,False
305,1492638467.7,40.4503909362,-79.9451249729,4.90000009537,0.211898803711,-1.06739807129,0.24284362793,-0.0778830808149,0.374920350894,-0.0955917704834,False
306,1492638467.9,40.4503909362,-79.9451249729,4.90000009537,0.171722412109,-1.00959777832,0.24397277832,0.0808786044091,0.239858668842,-0.0978826216531,False
307,1492638468.1,40.4503909362,-79.9451249729,4.90000009537,-0.0421295166016,-0.899841308594,0.248245239258,0.098896220764,0.0706336900116,0.0488098838268,False
308,1492638468.3,40.4505327418,-79.9450576931,5.42000007629,0.0989227294922,-0.991821289062,0.252014160156,0.0486780573528,0.0241546047709,0.0356211111604,False
309,1492638468.5,40.4505327418,-79.9450576931,5.42000007629,0.148345947266,-0.984603881836,0.186096191406,0.0215694743008,0.127501500349,-0.0278297670752,False
310,1492638468.7,40.4505327418,-79.9450576931,5.42000007629,0.202362060547,-1.00079345703,0.140228271484,-0.0391476690758,0.182138646957,-0.0744396135255,False
311,1492638468.9,40.4505327418,-79.9450576931,5.42000007629,0.258560180664,-0.913558959961,0.212493896484,0.0295826597047,0.140221024031,0.0159342254342,False
312,1492638469.1,40.4505841817,-79.9450798336,5.82000017166,0.207229614258,-0.948059082031,0.14794921875,-0.0540046458491,0.214149044311,-0.0608135498081,False
313,1492638469.3,40.4505841817,-79.9450798336,5.82000017166,0.158737182617,-0.939086914062,0.152206420898,-0.0143650909199,0.155391188548,-0.032534507457,False
314,1492638469.5,40.4505841817,-79.9450798336,5.82000017166,0.113998413086,-0.964721679688,0.10400390625,-0.0309792213803,0.134230509475,0.00253506304165,False
315,1492638469.7,40.4505841817,-79.9450798336,5.82000017166,0.135131835938,-1.0200958252,0.0869750976562,-0.0204956877492,0.0948032084846,-0.00685178085256,False
316,1492638469.9,40.4505841817,-79.9450798336,5.82000017166,0.104278564453,-0.983840942383,0.121719360352,-0.0413682127927,0.114082630564,-0.0273733012644,False
317,1492638470.1,40.4505841817,-79.9450798336,5.82000017166,0.0716400146484,-0.974197387695,0.192169189453,0.00669864908988,0.0744196398173,0.0180021700206,False
318,1492638470.3,40.4506299604,-79.9450995375,5.01000022888,0.105560302734,-0.889343261719,0.257690429688,-0.063762201767,0.105718174212,-0.0297134209142,False
319,1492638470.5,40.4506299604,-79.9450995375,5.01000022888,0.0443572998047,-0.972534179688,0.273239135742,-0.0173627450429,0.0671244426432,-0.0174104156264,False
320,1492638470.7,40.4506299604,-79.9450995375,5.01000022888,-0.0136260986328,-0.954452514648,0.250076293945,-0.00757829119793,-0.0127149963085,0.00208765197851,False
321,1492638470.9,40.4506299604,-79.9450995375,5.01000022888,0.00259399414062,-0.966735839844,0.282562255859,0.00211162042832,-0.0680850448484,0.0417796711812,False
322,1492638471.1,40.4506688122,-79.9451162599,4.71000003815,0.0249176025391,-0.927520751953,0.271255493164,-0.00929017114663,-0.0637592722898,0.0213937056688,False
323,1492638471.3,40.4506688122,-79.9451162599,4.71000003815,0.0155792236328,-0.955612182617,0.26611328125,-0.00899589184618,-0.0382331395575,0.0138673461122,False
324,1492638471.5,40.4506688122,-79.9451162599,4.71000003815,0.00308227539062,-0.938461303711,0.254653930664,-0.0144979826583,-0.0658543811194,0.0117498667294,False
325,1492638471.7,40.4506688122,-79.9451162599,4.71000003815,0.0560913085938,-0.945159912109,0.270874023438,-0.00377076978744,-0.0552869579139,0.0118324247232,False
326,1492638471.9,40.4506688122,-79.9451162599,4.71000003815,0.0525665283203,-0.881317138672,0.318634033203,-0.0203843676157,-0.0243333028801,-0.00227833431256,False
327,1492638472.1,40.4506688122,-79.9451162599,4.71000003815,0.122772216797,-0.940658569336,0.281051635742,-0.0768066311023,0.0292116813649,-0.0520400319129,False
328,1492638472.3,40.4507094258,-79.9451337406,4.78000020981,0.075927734375,-0.929565429688,0.366882324219,-0.0256281318021,-0.0487678058815,-0.0214608173283,False
329,1492638472.5,40.4507094258,-79.9451337406,4.78000020981,0.00424194335938,-0.901657104492,0.333984375,-0.0266755530588,-0.00940015969965,-0.00131506894628,False
330,1492638472.7,40.4507094258,-79.9451337406,4.78000020981,0.0560607910156,-0.911346435547,0.342529296875,-0.00675723863386,-0.0276108552336,0.0117304256535,False
331,1492638472.9,40.4507094258,-79.9451337406,4.78000020981,0.0241088867188,-0.936981201172,0.333526611328,-0.0715514153233,-0.0261274745064,0.000401072060166,False
332,1492638473.1,40.4507094258,-79.9451337406,4.78000020981,0.112945556641,-0.886581420898,0.368667602539,0.00416704815765,-0.0298127568229,-0.00947632610683,False
333,1492638473.3,40.4507551485,-79.9451534204,5.53000020981,0.0883483886719,-0.91325378418,0.383483886719,0.0233548574956,-0.00547013287902,0.00238565970449,False
334,1492638473.5,40.4507551485,-79.9451534204,5.53000020981,0.0789794921875,-0.915542602539,0.33610534668,-0.00389726993922,-0.0584760933193,0.019302857897,False
335,1492638473.7,40.4507551485,-79.9451534204,5.53000020981,0.129028320312,-0.933395385742,0.284149169922,-0.0371542929999,-0.0486825847266,0.0423937961285,False
336,1492638473.9,40.4507551485,-79.9451534204,5.53000020981,0.0298156738281,-0.96598815918,0.243515014648,-0.050464505812,-0.0422193590771,0.00705577899206,False
337,1492638474.1,40.4508072683,-79.9451758536,6.34999990463,0.0245971679688,-0.949310302734,0.305725097656,-2.79631914458e-05,-0.0212757276325,-0.00954130723743,False
338,1492638474.3,40.4508072683,-79.9451758536,6.34999990463,0.0568389892578,-0.959655761719,0.303817749023,-0.0225005154179,-0.0264473201534,-0.00442697268004,False
339,1492638474.5,40.4508072683,-79.9451758536,6.34999990463,0.0355834960938,-0.964981079102,0.258880615234,-0.0191518566632,-0.0137051596018,-0.00869042726915,False
340,1492638474.7,40.4508072683,-79.9451758536,6.34999990463,0.0494384765625,-0.938583374023,0.238479614258,-0.0290739959365,-0.0295938449813,0.00724220026836,False
341,1492638474.9,40.4508072683,-79.9451758536,6.34999990463,0.0605316162109,-0.93440246582,0.23095703125,0.0155608502493,-0.0352021959209,0.0109123025666,False
342,1492638475.1,40.4508072683,-79.9451758536,6.34999990463,0.0668029785156,-0.947799682617,0.230819702148,-0.0449996992552,-0.0156612514224,0.0113080483046,False
343,1492638475.3,40.4508623308,-79.9451995533,6.48999977112,0.0809631347656,-0.959533691406,0.264495849609,0.0109490541896,-0.0606995665134,0.0226592398188,False
344,1492638475.5,40.4508623308,-79.9451995533,6.48999977112,0.0328826904297,-0.934036254883,0.231170654297,-0.0172367775233,-0.028608475378,-0.00116886140244,False
345,1492638475.7,40.4508623308,-79.9451995533,6.48999977112,0.0782470703125,-0.93913269043,0.171112060547,-0.0134194024168,0.0192309525476,-0.0204450876885,False
346,1492638475.9,40.4508623308,-79.9451995533,6.48999977112,0.0255584716797,-0.945541381836,0.201126098633,-0.0269538533927,-0.044500889183,-0.00016112124595,False
347,1492638476.1,40.4508623308,-79.9451995533,6.48999977112,0.0741271972656,-0.940063476562,0.195495605469,0.00233186385047,-0.00427277565292,-0.0170245235844,False
348,1492638476.3,40.4509151809,-79.9452223008,5.92999982834,0.0525054931641,-0.972839355469,0.271743774414,-0.0142063665189,-0.0211795875172,0.0148362041167,False
349,1492638476.5,40.4509151809,-79.9452223008,5.92999982834,0.0654907226562,-0.940032958984,0.243606567383,-0.035021633599,0.00767309973274,-0.00464322136055,False
350,1492638476.7,40.4509151809,-79.9452223008,5.92999982834,0.0707397460938,-0.975616455078,0.196075439453,0.014121145364,0.00203252454395,-0.0190525207545,False
351,1492638476.9,40.4509151809,-79.9452223008,5.92999982834,0.0753021240234,-0.933029174805,0.29362487793,0.00700038524138,-0.0447203336568,0.00871679256394,False
352,1492638477.1,40.4509151809,-79.9452223008,5.92999982834,0.0923156738281,-0.980499267578,0.251907348633,-0.061866297387,-0.00278779702909,0.0057710700822,False
353,1492638477.3,40.4509638449,-79.9452432465,5.59999990463,0.139923095703,-0.969757080078,0.24186706543,-0.03876204335,0.10342199672,-0.0678352403382,False
354,1492638477.5,40.4509638449,-79.9452432465,5.59999990463,0.0822448730469,-0.93830871582,0.308013916016,-0.0576707534057,0.0407895078879,-0.0433442783216,False
355,1492638477.7,40.4509638449,-79.9452432465,5.59999990463,0.143615722656,-0.907318115234,0.293487548828,0.01195652803,-0.0585778260729,0.0279951493789,False
356,1492638477.9,40.4509638449,-79.9452432465,5.59999990463,0.116287231445,-0.973205566406,0.222320556641,0.00429434725775,-0.0532064964704,0.0460284783843,False
357,1492638478.1,40.4509638449,-79.9452432465,5.59999990463,0.0877227783203,-0.923355102539,0.263442993164,0.00328873763014,0.0106156264212,-0.00105993811385,False
358,1492638478.3,40.4510123854,-79.9452641391,5.84999990463,0.0237884521484,-0.94660949707,0.244384765625,-0.0267234899584,-0.0274840887657,-0.0076661755139,False
359,1492638478.5,40.4510123854,-79.9452641391,5.84999990463,0.0699920654297,-0.917587280273,0.197311401367,-0.0123466811297,0.0202876948681,-0.0204368318892,False
360,1492638478.7,40.4510123854,-79.9452641391,5.84999990463,0.126403808594,-0.91667175293,0.234588623047,-0.0321084016825,-0.020001671367,0.00078909463099,False
361,1492638478.9,40.4510123854,-79.9452641391,5.84999990463,0.129669189453,-0.921463012695,0.277297973633,0.0248624729887,-0.0512165825039,0.0227772178551,False
362,1492638479.1,40.4510123854,-79.9452641391,5.84999990463,0.111923217773,-0.934722900391,0.242080688477,-0.0291352486416,0.00125781098284,0.0284862362839,False
363,1492638479.3,40.4510659636,-79.9452872,6.03000020981,0.117767333984,-0.944808959961,0.211532592773,-0.0134132771463,-0.0222453845854,0.0340389271567,False
364,1492638479.5,40.4510659636,-79.9452872,6.03000020981,0.0807495117188,-0.964294433594,0.175994873047,0.000854342077697,0.00318833645704,0.0170599436269,False
365,1492638479.7,40.4510659636,-79.9452872,6.03000020981,0.0882263183594,-1.02635192871,0.13410949707,0.0129951608552,0.0328911047269,0.00218059630056,False
366,1492638479.9,40.4510659636,-79.9452872,6.03000020981,-0.00360107421875,-1.02645874023,0.0478515625,-0.0468268940791,0.0109423962869,0.00375718766588,False
367,1492638480.1,40.4510659636,-79.9452872,6.03000020981,0.0720062255859,-1.00433349609,-0.0964813232422,-0.0155115817692,0.0320098647222,-0.0162346300051,False
368,1492638480.3,40.4511158679,-79.9453086796,5.57000017166,0.0682067871094,-1.02742004395,-0.0696868896484,-0.0111727597212,0.0309169034108,-0.0225846713083,False
369,1492638480.5,40.4511158679,-79.9453086796,5.57000017166,0.0256652832031,-1.02799987793,-0.0593872070312,-0.0107298760319,-0.00312069216535,0.00416305341601,False
370,1492638480.7,40.4511158679,-79.9453086796,5.57000017166,0.0498352050781,-1.00823974609,-0.0877990722656,-0.0117533288388,-0.00736976568458,-0.00116752982189,False
371,1492638480.9,40.4511158679,-79.9453086796,5.57000017166,0.0178527832031,-1.01251220703,-0.0365447998047,0.00804514333702,-0.0181315996496,0.0246520832625,False
372,1492638481.1,40.4511158679,-79.9453086796,5.57000017166,0.0796051025391,-1.00189208984,-0.0476379394531,-0.0281512106188,0.0406009560827,-0.0217172797413,False
373,1492638481.3,40.4511513116,-79.9453239351,3.15000009537,0.05517578125,-1.00828552246,0.128036499023,-0.00535162221051,-0.00953917670855,-0.00322881650561,False
374,1492638481.5,40.4511513116,-79.9453239351,3.15000009537,0.0563049316406,-0.947021484375,0.218475341797,0.00412443758021,-0.0159824286499,0.00114968664259,False
375,1492638481.7,40.4511513116,-79.9453239351,3.15000009537,0.0598754882812,-0.917907714844,0.362075805664,0.0126542762356,-0.0085913576766,0.00441658635179,False
376,1492638481.9,40.4511513116,-79.9453239351,3.15000009537,0.133056640625,-0.917602539062,0.386535644531,-0.0438164567829,-0.0135427067753,0.00385119725236,False
377,1492638482.1,40.4511513116,-79.9453239351,3.15000009537,0.0679779052734,-0.818923950195,0.526763916016,-0.0492945791451,-0.037972948719,0.00172572838637,False
378,1492638482.3,40.4511618905,-79.9453284885,1.87999999523,0.116607666016,-0.882308959961,0.631805419922,-0.0565261267691,0.0514192490628,-0.043359990972,False
379,1492638482.5,40.4511618905,-79.9453284885,1.87999999523,0.106109619141,-0.899932861328,0.475524902344,0.0486106793772,0.0262710188892,-0.0358213808743,False
380,1492638482.7,40.4511618905,-79.9453284885,1.87999999523,0.0679626464844,-0.928482055664,0.284561157227,-0.0840152755409,-0.00583764910945,-0.0115072527541,False
381,1492638482.9,40.4511618905,-79.9453284885,1.87999999523,0.0481262207031,-0.978561401367,0.0962219238281,-0.0599325761195,-0.0230105107666,0.00904169821693,False
382,1492638483.1,40.4511618905,-79.9453284885,1.87999999523,0.0409088134766,-1.00830078125,0.0791168212891,-0.0252246628969,0.0107983192719,-0.0184117641963,False
383,1492638483.3,40.4511830033,-79.9453375757,3.38000011444,0.0620727539062,-1.00326538086,0.0356903076172,-0.0177568928842,0.010749583424,-0.0194013948573,False
384,1492638483.5,40.4511830033,-79.9453375757,3.38000011444,0.0430755615234,-1.01611328125,-0.0128479003906,-0.0225338049315,-0.0211276558759,0.000890028436304,False
385,1492638483.7,40.4511830033,-79.9453375757,3.38000011444,0.0491027832031,-0.980560302734,0.205139160156,0.00863636509902,0.00207007511532,-0.00738041832894,False
386,1492638483.9,40.4511830033,-79.9453375757,3.38000011444,0.104934692383,-0.932754516602,0.262512207031,-0.0124971497313,0.0022056300148,-0.0193254947663,False
387,1492638484.1,40.4511830033,-79.9453375757,3.38000011444,0.106918334961,-0.882965087891,0.395355224609,0.0451062256988,0.0220421853943,-0.0155882808086,False
388,1492638484.3,40.4512122587,-79.9453501677,1.91999995708,0.0847473144531,-0.896392822266,0.452377319336,0.00876552841189,0.00951440931042,-0.0127293773784,False
389,1492638484.5,40.4512122587,-79.9453501677,1.91999995708,0.0673370361328,-0.89387512207,0.578857421875,-0.0372509657475,0.0119440111729,0.00491885853338,False
390,1492638484.7,40.4512122587,-79.9453501677,1.91999995708,0.110763549805,-0.886260986328,0.509674072266,0.00366291176329,0.0233745648876,-0.0213471003497,False
391,1492638484.9,40.4512122587,-79.9453501677,1.91999995708,0.103530883789,-0.856369018555,0.457672119141,-0.0231551204138,-0.0147459229558,-0.0279205808684,False
392,1492638485.1,40.4512122587,-79.9453501677,1.91999995708,0.0808715820312,-0.925750732422,0.395156860352,-0.0270137745172,0.000180296005798,0.028510737366,False
393,1492638485.3,40.4512397376,-79.945361995,4.01000022888,0.0333557128906,-0.933715820312,0.189514160156,-0.0950181255846,-0.00044288368928,0.0171539532134,False
394,1492638485.5,40.4512397376,-79.945361995,4.01000022888,0.106246948242,-0.877059936523,0.132614135742,-0.0482612726422,0.0566875143312,-0.0219646874065,False
395,1492638485.7,40.4512397376,-79.945361995,4.01000022888,0.000457763671875,-1.01591491699,0.0111999511719,-0.00823742356772,-0.0361068717432,0.0373263332063,False
396,1492638485.9,40.4512397376,-79.945361995,4.01000022888,-0.034912109375,-1.04534912109,-0.120635986328,-0.0186338718312,0.0416036362331,-0.0162913553363,False
397,1492638486.1,40.4512693468,-79.9453747393,3.73000001907,0.0123138427734,-1.09452819824,-0.173355102539,-0.0493078949506,-0.0124412233484,0.0165866999012,False
398,1492638486.3,40.4512693468,-79.9453747393,3.73000001907,-0.00503540039062,-1.0897064209,-0.182647705078,-0.00237580600846,-0.00742835522856,0.0138556282034,False
399,1492638486.5,40.4512693468,-79.9453747393,3.73000001907,0.00399780273438,-1.02578735352,-0.12287902832,-0.0261088323788,-0.0328018888304,0.0222078340141,False
400,1492638486.7,40.4512693468,-79.9453747393,3.73000001907,0.0332489013672,-0.982086181641,0.0577392578125,0.0156207713739,-0.0213737319606,0.0140758716255,False
401,1492638486.9,40.4512693468,-79.9453747393,3.73000001907,0.0565490722656,-0.963134765625,0.213516235352,-0.00109802131744,-0.00637534133354,-0.00106100337829,False
402,1492638487.1,40.4512693468,-79.9453747393,3.73000001907,0.0572357177734,-0.937789916992,0.270004272461,-0.00851785443051,5.53937506736e-05,-8.73516837546e-05,False
403,1492638487.3,40.4512788316,-79.9453788217,0.620000004768,0.0649719238281,-0.957946777344,0.257507324219,-0.0181989776252,-0.00519955571227,0.00409194701491,False
404,1492638487.5,40.4512788316,-79.9453788217,0.620000004768,0.0547485351562,-0.941192626953,0.254531860352,-0.0159629875739,0.00116752982189,-0.00016644756813,False
405,1492638487.7,40.4512788316,-79.9453788217,0.620000004768,0.0630798339844,-0.950286865234,0.253829956055,-0.0139267346045,-0.00735511829858,0.00200882241025,False
406,1492638487.9,40.4512788316,-79.9453788217,0.620000004768,0.059326171875,-0.950668334961,0.256408691406,-0.0170596773108,-0.00308021211679,-0.000166713884239,False
407,1492638488.1,40.4512788316,-79.9453788217,0.620000004768,0.0597381591797,-0.952056884766,0.253616333008,-0.0181563670477,-0.00732795405546,-0.000166980200348,False
408,1492638488.3,40.4512801995,-79.9453794105,0.0,0.0525970458984,-0.944030761719,0.282867431641,-0.0117413446139,7.66990393943e-05,0.00201201820355,False
409,1492638488.5,40.4512801995,-79.9453794105,0.0,0.0577392578125,-0.948059082031,0.281524658203,-0.0128034132567,-0.00736310778185,-0.00224451216672,False
410,1492638488.7,40.4512801995,-79.9453794105,0.0,0.0529632568359,-0.942306518555,0.270492553711,-0.0160788350814,-0.00840467008418,0.00305571103476,False
411,1492638488.9,40.4512801995,-79.9453794105,0.0,0.0682678222656,-0.946762084961,0.266021728516,-0.0192117777877,-0.00412976390239,0.000880174740271,False
412,1492638489.1,40.4512801995,-79.9453794105,0.0,0.0581512451172,-0.944213867188,0.272537231445,-0.014998124311,-0.00628426122426,0.00306130367305,False
413,1492638489.3,40.4512810565,-79.9453797793,0.25,0.0629577636719,-0.947830200195,0.261749267578,-0.0138588239967,-0.00416491762877,-0.0011973572261,False
414,1492638489.5,40.4512810565,-79.9453797793,0.25,0.0590209960938,-0.947708129883,0.257598876953,-0.0159643191545,-0.000960069572974,-0.00122718463031,False
415,1492638489.7,40.4512810565,-79.9453797793,0.25,0.0532684326172,-0.950088500977,0.24821472168,-0.0202538727223,-0.00305943946028,-0.000199470765647,False
416,1492638489.9,40.4512810565,-79.9453797793,0.25,0.0670471191406,-0.941558837891,0.236175537109,-0.0233948049119,0.000151800182135,-0.00237234389904,False
417,1492638490.1,40.4512810565,-79.9453797793,0.25,0.0674133300781,-0.95198059082,0.244720458984,-0.0149927979888,-0.00947579347461,0.000937166387599,False
418,1492638490.3,40.4512842243,-79.9453811428,0.469999998808,0.0584716796875,-0.947265625,0.259841918945,-0.0192890094593,-0.0105112305064,0.00302828047553,False
419,1492638490.5,40.4512842243,-79.9453811428,0.469999998808,0.0554504394531,-0.943923950195,0.251388549805,-0.0203590675853,-0.00731277403725,0.00514149880051,False
420,1492638490.7,40.4512842243,-79.9453811428,0.469999998808,0.0588836669922,-0.95068359375,0.246383666992,-0.0161107930144,-0.0126593362417,0.00306636367912,False
421,1492638490.9,40.4512842243,-79.9453811428,0.469999998808,0.0569610595703,-0.948791503906,0.245025634766,-0.0181923197224,-0.00626348856776,0.00302854679164,False
422,1492638491.1,40.4512892175,-79.9453832919,0.449999988079,0.0586242675781,-0.927703857422,0.326873779297,-0.00540355385177,-0.0106020442996,-2.79631914458e-05,False
423,1492638491.3,40.4512892175,-79.9453832919,0.449999988079,0.0709228515625,-0.913543701172,0.397186279297,-0.00642168033651,-0.00634072023937,-0.00111559818063,False
424,1492638491.5,40.4512892175,-79.9453832919,0.449999988079,0.0696411132812,-0.929092407227,0.374313354492,-0.0244781788434,0.00547812236229,0.00186767487247,False
425,1492638491.7,40.4512892175,-79.9453832919,0.449999988079,0.0673828125,-0.919586181641,0.314056396484,-0.0267434636666,-0.00088843053965,0.00825819622423,False
426,1492638491.9,40.4512892175,-79.9453832919,0.449999988079,0.0629119873047,-0.938735961914,0.312133789062,-0.0181550354672,-0.0052003546606,0.000893756861831,False
427,1492638492.1,40.4512892175,-79.9453832919,0.449999988079,0.0750885009766,-0.910430908203,0.368026733398,0.00304239522931,-0.00852850707487,0.00645044247628,False
428,1492638492.3,40.4512971517,-79.945386707,1.36000001431,0.030029296875,-0.888320922852,0.431091308594,-0.0174506293589,0.0437221808803,-0.0237482063886,False
429,1492638492.5,40.4512971517,-79.945386707,1.36000001431,0.0526885986328,-0.911010742188,0.406097412109,0.0326932318579,-0.107641509152,0.0421948579951,False
430,1492638492.7,40.4512971517,-79.945386707,1.36000001431,0.121063232422,-0.868728637695,0.414016723633,0.00355904848078,0.00954689987572,-0.0213124792556,False
431,1492638492.9,40.4512971517,-79.945386707,1.36000001431,0.118850708008,-0.887283325195,0.484298706055,-0.00235849546137,-0.00317342275494,0.0149110389434,False
432,1492638493.1,40.4512971517,-79.945386707,1.36000001431,0.0185852050781,-0.838180541992,0.524597167969,-0.0227761525907,-0.0338889911874,0.011582620213,False
433,1492638493.3,40.4513167663,-79.9453951494,2.82999992371,0.131256103516,-0.903686523438,0.477279663086,-0.0383196922929,-0.0178357224525,-0.011008442682,False
434,1492638493.5,40.4513167663,-79.9453951494,2.82999992371,0.0536499023438,-0.883026123047,0.492584228516,-0.0417343974426,0.0321757796581,-0.0452913153945,False
435,1492638493.7,40.4513167663,-79.9453951494,2.82999992371,0.187606811523,-0.955612182617,0.47526550293,-0.0438497462965,0.061988536481,0.0473707115737,False
436,1492638493.9,40.4513167663,-79.9453951494,2.82999992371,0.134613037109,-0.914306640625,0.466094970703,0.034711375332,-0.000220776054368,0.0312761638419,False
437,1492638494.1,40.4513167663,-79.9453951494,2.82999992371,-0.00288391113281,-0.937103271484,0.473709106445,0.0809768750533,-0.0260587649503,-0.0172293206723,False
438,1492638494.3,40.4513555339,-79.9454118356,5.09999990463,0.105163574219,-0.884552001953,0.47151184082,-0.0131669347455,-0.0031012510894,0.0265285465666,False
439,1492638494.5,40.4513555339,-79.9454118356,5.09999990463,0.0760650634766,-0.869781494141,0.410415649414,0.0116928750821,-0.105380751702,0.0217159481607,False
440,1492638494.7,40.4513555339,-79.9454118356,5.09999990463,-0.00517272949219,-0.710525512695,0.421127319336,0.0898936710151,0.01006062365,0.0510064590939,False
441,1492638494.9,40.4513555339,-79.9454118356,5.09999990463,0.0197601318359,-0.957382202148,0.391693115234,-0.0138207407931,-0.0998962377533,0.021440577304,False
442,1492638495.1,40.4513799531,-79.945422346,6.90999984741,0.0912780761719,-0.998977661133,0.436019897461,0.0602164690917,-0.129094869629,0.0425320141891,False
443,1492638495.3,40.4513799531,-79.945422346,6.90999984741,0.0804443359375,-0.802474975586,0.455642700195,0.0295701428476,-0.0129552134388,0.0109983226698,False
444,1492638495.5,40.4513799531,-79.945422346,6.90999984741,-0.125061035156,-1.0199432373,0.686111450195,-0.242780156558,-0.0675686579131,-0.0385625725843,False
445,1492638495.7,40.4513799531,-79.945422346,6.90999984741,0.162963867188,-0.98095703125,0.532440185547,0.129087679094,-0.0774244844752,0.0185808749255,False
446,1492638495.9,40.4513799531,-79.945422346,6.90999984741,0.0621032714844,-0.861236572266,0.581130981445,-0.0728683484823,0.232340565085,-0.150615608082,False
447,1492638496.1,40.4513799531,-79.945422346,6.90999984741,0.00482177734375,-0.934799194336,0.553466796875,0.0569634178201,0.00813382660132,-0.0335566286833,False
448,1492638496.3,40.4514852728,-79.9454681787,9.27000045776,0.15657043457,-0.827728271484,0.442337036133,-0.00879508949999,0.0808852623118,-0.090926977518,False
449,1492638496.5,40.4514852728,-79.9454681787,9.27000045776,0.197189331055,-0.914398193359,0.489440917969,0.0190274870403,-0.0724489006106,0.0483614074992,False
450,1492638496.7,40.4514852728,-79.9454681787,9.27000045776,0.0215454101562,-0.818649291992,0.484619140625,-0.00428262934896,-0.128668231222,0.086651538704,False
451,1492638496.9,40.4514852728,-79.9454681787,9.27000045776,0.0433654785156,-0.829559326172,0.454376220703,0.0591810320598,-0.117386548212,0.0467560539941,False
452,1492638497.1,40.4514852728,-79.9454681787,9.27000045776,0.19677734375,-0.911544799805,0.447769165039,-0.000113983294655,0.0680735932557,-0.032163262801,False
453,1492638497.3,40.4515858202,-79.9455119389,12.2700004578,0.176712036133,-0.851013183594,0.422164916992,-0.124256172244,0.0912159304963,-0.0526858484773,False
454,1492638497.5,40.4515858202,-79.9455119389,12.2700004578,0.149017333984,-0.924011230469,0.383514404297,0.025342108301,-0.112901518621,0.109304653252,False
455,1492638497.7,40.4515858202,-79.9455119389,12.2700004578,0.0626678466797,-0.93342590332,0.36100769043,0.0520480213962,0.0358325661509,0.0292281929636,False
456,1492638497.9,40.4515858202,-79.9455119389,12.2700004578,-0.00253295898438,-0.924468994141,0.362594604492,-0.009862750781,-0.0541745555266,0.0682765261308,False
457,1492638498.1,40.4515858202,-79.9455119389,12.2700004578,0.005859375,-0.871505737305,0.317993164062,-0.0895426663834,0.0197321594647,0.0171579479551,False
458,1492638498.3,40.4517010219,-79.9455620769,14.3999996185,0.0429077148438,-0.984832763672,0.28498840332,-0.00594683871415,-0.00101786016863,0.0447227305018,False
459,1492638498.5,40.4517010219,-79.9455620769,14.3999996185,0.114868164062,-0.975067138672,0.203155517578,0.00990749188731,0.0275908815254,-0.00849947861899,False
460,1492638498.7,40.4517010219,-79.9455620769,14.3999996185,0.0630645751953,-1.00933837891,0.231246948242,-0.00759293858392,-0.00101280016256,0.00952080089703,False
461,1492638498.9,40.4517010219,-79.9455620769,14.3999996185,0.146713256836,-1.04563903809,0.267883300781,-0.112778480578,0.0443363058276,-0.060977067899,False
462,1492638499.1,40.4517010219,-79.9455620769,14.3999996185,-0.0545349121094,-0.919128417969,0.317031860352,-0.061468154804,0.0248640708853,-0.0081569961028,False
463,1492638499.3,40.451829595,-79.9456180345,15.1700000763,0.0812377929688,-0.987686157227,0.232818603516,-0.0888915234969,0.00695457887063,-0.0371793267142,False
464,1492638499.5,40.451829595,-79.9456180345,15.1700000763,0.0766448974609,-0.867889404297,0.276245117188,-0.0510983381515,-0.048590705669,0.0497142933329,False
465,1492638499.7,40.451829595,-79.9456180345,15.1700000763,-0.0602722167969,-0.946762084961,0.148544311523,-0.0248542171893,-0.0966285390958,0.0511731729781,False
466,1492638499.9,40.451829595,-79.9456180345,15.1700000763,0.00874328613281,-0.964904785156,0.155136108398,-0.0507388114043,-0.0475334307163,0.0241261089472,False
467,1492638500.1,40.451829595,-79.9456180345,15.1700000763,0.0464630126953,-1.00274658203,0.189147949219,0.0462170301895,-0.0258246730905,0.0325262516576,False
468,1492638500.3,40.4519575858,-79.9456737387,15.0699996948,0.0314636230469,-0.942199707031,0.213760375977,-0.0176793948965,-0.0966719486215,0.0715048100042,False
469,1492638500.5,40.4519575858,-79.9456737387,15.0699996948,-0.102661132812,-0.920181274414,0.177200317383,-0.0602388396448,-0.00917538890365,0.0388568518848,False
470,1492638500.7,40.4519575858,-79.9456737387,15.0699996948,-0.0252990722656,-0.946029663086,0.171630859375,0.0121069966316,-0.0873034805389,0.00141547011938,False
471,1492638500.9,40.4519575858,-79.9456737387,15.0699996948,0.134704589844,-0.983184814453,0.195495605469,-0.00447863800519,0.0234355512766,0.0286814459918,False
472,1492638501.1,40.4519575858,-79.9456737387,15.0699996948,0.12255859375,-1.01606750488,0.1630859375,0.0846877237162,0.0505055184928,-0.0131240578519,False
473,1492638501.3,40.4520826776,-79.9457281811,14.7600002289,0.0896606445312,-0.989776611328,0.195709228516,-0.0717647345266,0.110019445689,-0.0649915169262,False
474,1492638501.5,40.4520826776,-79.9457281811,14.7600002289,0.0916900634766,-0.98796081543,0.146194458008,-0.017876202501,0.0703127791003,-0.055807605907,False
475,1492638501.7,40.4520826776,-79.9457281811,14.7600002289,0.0716705322266,-1.02899169922,0.191970825195,0.0444798502104,-0.0821875480848,0.050779557769,False
476,1492638501.9,40.4520826776,-79.9457281811,14.7600002289,-0.0325469970703,-0.99446105957,0.218154907227,-0.0875157344777,-0.0036836844198,0.0119080584982,False
477,1492638502.1,40.4520826776,-79.9457281811,14.7600002289,6.103515625e-05,-1.06047058105,0.178909301758,-0.0166314410075,-0.0722233308663,0.00854581762196,False
478,1492638502.3,40.4522076604,-79.9457825761,14.3699998856,0.0933532714844,-0.86962890625,0.158218383789,-0.0714209204299,0.00684831874314,0.00884702114124,False
479,1492638502.5,40.4522076604,-79.9457825761,14.3699998856,0.0487365722656,-0.993087768555,0.162246704102,-0.0146266133389,0.0256233381121,-0.00661316161888,False
480,1492638502.7,40.4522076604,-79.9457825761,14.3699998856,0.0446929931641,-1.07257080078,0.216583251953,0.120868098705,-0.0688640194673,0.00141520380327,False
481,1492638502.9,40.4522076604,-79.9457825761,14.3699998856,0.00154113769531,-1.23129272461,0.0636596679688,0.228518662605,-0.0578510494115,0.0781901432886,False
482,1492638503.1,40.4522076604,-79.9457825761,14.3699998856,-0.0013427734375,-0.989974975586,0.170181274414,0.0481739209584,-0.0279754419868,-0.03355343289,False
483,1492638503.3,40.4523240381,-79.945833226,13.6300001144,0.162200927734,-0.946319580078,0.153900146484,-0.1155777292,0.0273413433313,-0.0215119500212,False
484,1492638503.5,40.4523240381,-79.945833226,13.6300001144,0.0949859619141,-0.949966430664,0.150238037109,0.0038642467417,-0.0617091708827,0.072701368282,False
485,1492638503.7,40.4523240381,-79.945833226,13.6300001144,0.0626068115234,-0.98908996582,0.20930480957,0.0183063030171,-0.0267043151986,0.0482359726118,False
486,1492638503.9,40.4523240381,-79.945833226,13.6300001144,0.0652618408203,-0.910858154297,0.129577636719,0.0565266594014,0.0358008745339,0.0132809180401,False
487,1492638504.1,40.4523240381,-79.945833226,13.6300001144,0.0963134765625,-0.925765991211,0.176208496094,-0.0599426961316,0.0471888176712,-0.0295232712124,False
488,1492638504.3,40.4524370752,-79.945882422,13.0,0.0771636962891,-0.956161499023,0.177383422852,-0.0642162707329,0.0355148510329,-0.0348679692041,False
489,1492638504.5,40.4524370752,-79.945882422,13.0,-0.0140533447266,-0.956695556641,0.184097290039,-0.101768173684,0.0581024518184,-0.00225809428828,False
490,1492638504.7,40.4524370752,-79.945882422,13.0,-0.0327911376953,-0.90690612793,0.161911010742,0.0365345754143,-0.00980336228869,0.0483789843624,False
491,1492638504.9,40.4524370752,-79.945882422,13.0,0.0411224365234,-0.960159301758,0.177459716797,-0.0367154040523,-0.053997188998,0.0850605662688,False
492,1492638505.1,40.4524370752,-79.945882422,13.0,-0.00726318359375,-0.934921264648,0.178634643555,0.00897538550579,-0.0691990451324,0.00666775642123,False
493,1492638505.3,40.4525437169,-79.9459302973,12.4200000763,-0.0687866210938,-0.909133911133,0.206329345703,-0.0372363183615,0.0236456746866,0.0102198806832,False
494,1492638505.5,40.4525437169,-79.9459302973,12.4200000763,0.0104522705078,-1.00564575195,0.162994384766,0.0458148928649,-0.0481574093597,0.0496391921902,False
495,1492638505.7,40.4525437169,-79.9459302973,12.4200000763,0.00244140625,-0.932693481445,0.189910888672,0.0279022050569,-0.0522983585386,0.0334732717412,False
496,1492638505.9,40.4525437169,-79.9459302973,12.4200000763,0.0626678466797,-0.960632324219,0.118621826172,-0.0404025505815,-0.0135674741734,-0.0121069966316,False
497,1492638506.1,40.4525437169,-79.9459302973,12.4200000763,0.0506439208984,-0.89143371582,0.205993652344,-0.0605672074072,0.00890294752413,-0.00490793957291,False
498,1492638506.3,40.4526431081,-79.9459761299,12.1899995804,0.0313110351562,-0.974227905273,0.165176391602,0.0110028500437,0.00630716440963,-0.0222941204334,False
499,1492638506.5,40.4526431081,-79.9459761299,12.1899995804,-0.0260162353516,-1.00842285156,0.236358642578,-0.0407474299426,-0.0146250154423,0.0124151243697,False
500,1492638506.7,40.4526431081,-79.9459761299,12.1899995804,-0.0416717529297,-1.00291442871,0.248443603516,-0.0344495865968,-0.042324021308,0.00402137324602,False
501,1492638506.9,40.4526431081,-79.9459761299,12.1899995804,0.000259399414062,-1.00059509277,0.177581787109,0.0143368614123,-0.00435426838228,-0.0382256827065,False
502,1492638507.1,40.4526431081,-79.9459761299,12.1899995804,-0.0160980224609,-0.878631591797,0.214782714844,0.0225119670105,-0.0416244088896,0.0440526791715,False
503,1492638507.3,40.4527465734,-79.9460238411,12.0699996948,0.0390930175781,-0.999603271484,0.176467895508,-0.0580662328275,0.029094768593,-0.0209276524781,False
504,1492638507.5,40.4527465734,-79.9460238411,12.0699996948,0.0467224121094,-0.953948974609,0.241729736328,-0.00594497450138,0.0415221435038,-0.00976394750456,False
505,1492638507.7,40.4527465734,-79.9460238411,12.0699996948,0.0644989013672,-0.995834350586,0.167007446289,-0.0222581677587,0.0214198046475,0.00398169214578,False
506,1492638507.9,40.4527465734,-79.9460238411,12.0699996948,0.0105590820312,-0.948974609375,0.191345214844,-0.00760678702159,-0.0627011983887,0.0544608453438,False
507,1492638508.1,40.4527465734,-79.9460238411,12.0699996948,-0.0448913574219,-0.962432861328,0.212417602539,0.0168945613232,-0.0267035162502,-0.00402297114267,False
508,1492638508.3,40.4528497862,-79.946071436,11.9099998474,0.0167541503906,-0.921035766602,0.175140380859,-0.0602388396448,-0.0442811783931,0.0197555952823,False
509,1492638508.5,40.4528497862,-79.946071436,11.9099998474,0.0559692382812,-0.968414306641,0.169769287109,-0.00897938024742,0.051114317118,-0.0162170531419,False
510,1492638508.7,40.4528497862,-79.946071436,11.9099998474,-0.0307769775391,-0.940994262695,0.211578369141,0.00146101017402,-0.0265969898066,0.0342024452477,False
511,1492638508.9,40.4528497862,-79.946071436,11.9099998474,0.0281372070312,-1.05709838867,0.203811645508,-0.0856019869184,-0.0207145995909,0.0183688873027,False
512,1492638509.1,40.4528497862,-79.946071436,11.9099998474,0.0798950195312,-0.872589111328,0.187225341797,-0.0279325650933,-0.0870355665332,0.0479182574938,False
513,1492638509.3,40.4529527789,-79.9461189293,11.8299999237,0.0725555419922,-0.987106323242,0.192642211914,-0.00366637387271,0.0574627605245,-0.0119141837687,False
514,1492638509.5,40.4529527789,-79.9461189293,11.8299999237,-0.0254058837891,-0.998306274414,0.247680664062,-0.00877085473407,0.0170809825996,0.0275876857321,False
515,1492638509.7,40.4529527789,-79.9461189293,11.8299999237,-0.0460510253906,-0.980895996094,0.189514160156,0.01617817099,-0.0479667270256,0.0365407006848,False
516,1492638509.9,40.4529527789,-79.9461189293,11.8299999237,0.001220703125,-0.927947998047,0.185440063477,-0.0311693710822,-0.119992185023,0.0330431712252,False
517,1492638510.1,40.4529527789,-79.9461189293,11.8299999237,-0.0335083007812,-0.944717407227,0.196441650391,0.00730931192783,-0.00749253741083,0.00649145515707,False
518,1492638510.3,40.4530529684,-79.94616513,11.9300003052,-0.0171508789062,-0.970031738281,0.203811645508,-0.0300801381963,0.00551780346254,0.0220682843729,False
519,1492638510.5,40.4530529684,-79.94616513,11.9300003052,-0.0731811523438,-0.938995361328,0.214660644531,-0.0540342069372,-0.0687870541118,0.0198823617502,False
520,1492638510.7,40.4530529684,-79.94616513,11.9300003052,-0.0139312744141,-1.01063537598,0.185180664062,-0.0358133913911,-0.0125373634638,-0.0355193784067,False
521,1492638510.9,40.4530529684,-79.94616513,11.9300003052,-0.0191650390625,-0.985778808594,0.185516357422,0.0303046426762,-0.0374238049022,0.0217311281789,False
522,1492638511.1,40.4531522049,-79.9462108912,11.7600002289,0.0233917236328,-0.998809814453,0.0750274658203,-0.0125871645762,0.0383644333992,-0.070598003653,False
523,1492638511.3,40.4531522049,-79.9462108912,11.7600002289,-0.0260772705078,-0.994903564453,0.0890808105469,-0.0377596295157,-0.0284715888979,0.0199449460358,False
524,1492638511.5,40.4531522049,-79.9462108912,11.7600002289,0.00668334960938,-1.06387329102,0.0735015869141,0.0334447759175,-0.00235023966199,-0.0327041508184,False
525,1492638511.7,40.4531522049,-79.9462108912,11.7600002289,0.0546875,-1.02856445312,-0.0126800537109,-0.0154924070093,0.0671028710384,-0.0760329828057,False
526,1492638511.9,40.4531522049,-79.9462108912,11.7600002289,0.0203857421875,-0.969696044922,0.0187072753906,-0.00850853336669,-0.0435610596343,-0.0244976199193,False
527,1492638512.1,40.4532457886,-79.9462540457,10.7299995422,0.012939453125,-0.948822021484,0.0098876953125,-0.041872082871,-0.0284465551837,0.00924063635036,False
528,1492638512.3,40.4532457886,-79.9462540457,10.7299995422,-0.0511169433594,-1.04200744629,0.00460815429688,-0.0304644323416,0.0161504741147,-0.0216778649571,False
529,1492638512.5,40.4532457886,-79.9462540457,10.7299995422,-0.13606262207,-1.00578308105,0.0937652587891,-0.101119693958,0.0293677426047,-0.065083928616,False
530,1492638512.7,40.4532457886,-79.9462540457,10.7299995422,0.0284271240234,-1.05755615234,0.0864868164062,0.00111133712289,0.0159494054524,0.00530128846591,False
531,1492638512.9,40.4532457886,-79.9462540457,10.7299995422,0.0238494873047,-0.933975219727,0.0368804931641,-0.0623198337206,0.025930933218,-0.0230954656054,False
532,1492638513.1,40.4532457886,-79.9462540457,10.7299995422,-0.0463256835938,-0.973190307617,0.0179901123047,-0.00220802685978,-0.0201971473911,-0.00530155478202,False
533,1492638513.3,40.4533322239,-79.9462939039,9.21000003815,-0.028076171875,-1.04516601562,-0.0450134277344,-0.0314138492702,-0.0848943850168,-0.00756604065692,False
534,1492638513.5,40.4533322239,-79.9462939039,9.21000003815,-0.0530548095703,-1.03706359863,-0.0526580810547,-0.0160708455981,-0.0424467930342,-0.0160482087288,False
535,1492638513.7,40.4533322239,-79.9462939039,9.21000003815,-0.0783233642578,-0.999053955078,-0.0587005615234,-0.0411655462338,-0.0741908742796,0.0104321346221,False
536,1492638513.9,40.4533322239,-79.9462939039,9.21000003815,-0.104782104492,-1.04708862305,-0.0241851806641,-0.0441546782413,-0.0858757598785,-0.0108925951745,False
537,1492638514.1,40.4534004319,-79.9463253569,7.17999982834,-0.0763702392578,-0.995162963867,-0.0584411621094,-0.0115554559699,-0.140337404171,-0.0104182861844,False
538,1492638514.3,40.4534004319,-79.9463253569,7.17999982834,-0.0172882080078,-1.02409362793,-0.0264587402344,-0.0164934892631,-0.160509784164,0.0279669198714,False
539,1492638514.5,40.4534004319,-79.9463253569,7.17999982834,-0.0862121582031,-1.00411987305,-0.0273284912109,0.0123639916768,-0.0979462712032,-0.02307735611,False
540,1492638514.7,40.4534004319,-79.9463253569,7.17999982834,0.0638427734375,-1.01443481445,-0.0170593261719,-0.0152005245538,-0.107342702477,-0.037196104629,False
541,1492638514.9,40.4534004319,-79.9463253569,7.17999982834,0.135681152344,-1.00553894043,0.00813293457031,-0.0230366097453,-0.000918524259968,-0.0290212653469,False
542,1492638515.1,40.4534004319,-79.9463253569,7.17999982834,0.0833587646484,-1.01792907715,0.0318450927734,-0.018792329916,0.0224579048404,-0.0151773550524,False
543,1492638515.3,40.4534456841,-79.9463462242,4.90999984741,0.128036499023,-0.975234985352,0.0260467529297,-0.0459134298252,0.0662440015868,-0.032627451779,False
544,1492638515.5,40.4534456841,-79.9463462242,4.90999984741,0.136795043945,-0.99690246582,-0.0235748291016,-0.0383591070771,0.0991718579368,-0.0219729432059,False
545,1492638515.7,40.4534456841,-79.9463462242,4.90999984741,0.0775299072266,-1.02223205566,-0.0841369628906,-0.00166474199741,0.0872379667761,0.0136186068663,False
546,1492638515.9,40.4534456841,-79.9463462242,4.90999984741,0.0534515380859,-1.05557250977,-0.148849487305,-0.0257953783185,0.0980288291969,-0.00691436513817,False
547,1492638516.1,40.4534456841,-79.9463462242,4.90999984741,0.0388336181641,-1.03524780273,-0.128707885742,-0.0204450876885,0.0703346170212,-0.0238475422972,False
548,1492638516.3,40.4534797081,-79.9463619137,3.27999997139,0.0241088867188,-1.02813720703,-0.0834350585938,-0.000975515907296,0.0372387152065,0.013754694398,False
549,1492638516.5,40.4534797081,-79.9463619137,3.27999997139,0.0383605957031,-1.0132598877,-0.102783203125,-0.00482431631468,0.0372589552308,-0.0161387562059,False
550,1492638516.7,40.4534797081,-79.9463619137,3.27999997139,0.0767211914062,-0.978622436523,0.180694580078,0.00451192751881,0.0180525037652,-0.00853010497152,False
551,1492638516.9,40.4534797081,-79.9463619137,3.27999997139,0.070556640625,-0.935180664062,0.236968994141,-0.0124918234091,0.0224179574241,-0.00871546098339,False
552,1492638517.1,40.4534797081,-79.9463619137,3.27999997139,0.0868377685547,-0.961608886719,0.266616821289,-0.0123813022239,0.0351816895805,-0.00981348230083,False
553,1492638517.3,40.4534928387,-79.9463679687,1.36000001431,0.121017456055,-0.942504882812,0.28923034668,-0.0163885607161,0.0511619877015,-0.0194916760183,False
554,1492638517.5,40.4534928387,-79.9463679687,1.36000001431,0.125885009766,-0.934936523438,0.316909790039,0.00616654950408,0.0829273742357,-0.0161440825281,False
555,1492638517.7,40.4534928387,-79.9463679687,1.36000001431,0.0989532470703,-0.898422241211,0.419998168945,0.0318625919139,0.0997795912976,-0.0169907014386,False
556,1492638517.9,40.4534928387,-79.9463679687,1.36000001431,0.212478637695,-0.943862915039,0.265487670898,-0.049567819473,0.154557086495,-0.0286279164539,False
557,1492638518.1,40.4534928387,-79.9463679687,1.36000001431,0.167556762695,-0.997482299805,-0.00379943847656,-0.0654229490228,0.152531219854,-0.038380944998,False
558,1492638518.3,40.4535201229,-79.9463805503,2.75,-0.0489501953125,-0.953231811523,-0.0955047607422,0.00713807066974,0.0861135801638,-0.00761264597599,False
559,1492638518.5,40.4535201229,-79.9463805503,2.75,0.0122528076172,-1.02853393555,-0.0422668457031,-0.00445680008425,0.0744856862123,-0.0226283471502,False
560,1492638518.7,40.4535201229,-79.9463805503,2.75,-0.00196838378906,-1.0445098877,-0.0679931640625,-0.0299802696555,0.0129626702899,0.0188514520922,False
561,1492638518.9,40.4535201229,-79.9463805503,2.75,0.00511169433594,-1.05142211914,-0.0818328857422,-0.0198903512335,0.0394864231665,-0.00350418736233,False
562,1492638519.1,40.4535201229,-79.9463805503,2.75,0.0266876220703,-0.992935180664,0.16682434082,0.0333182757658,0.00616255476244,-0.0188666321104,False
563,1492638519.3,40.4535280509,-79.9463842062,0.699999988079,0.185073852539,-0.876922607422,0.323379516602,-0.0265463897459,-0.0136577553344,-0.0130311135299,False
564,1492638519.5,40.4535280509,-79.9463842062,0.699999988079,0.140197753906,-0.984786987305,0.29524230957,-0.0005528722423,0.120195916846,-0.0493616908046,False
565,1492638519.7,40.4535280509,-79.9463842062,0.699999988079,0.0576629638672,-0.927032470703,0.35041809082,0.00237447442791,0.0287046154933,-0.00218219419721,False
566,1492638519.9,40.4535280509,-79.9463842062,0.699999988079,0.128921508789,-0.913879394531,0.374298095703,0.00969497163232,0.0903472073487,-0.0363851720771,False
567,1492638520.1,40.4535358843,-79.9463878184,1.11000001431,0.102523803711,-0.929672241211,0.299331665039,-0.0137624175652,0.10752113427,-0.0249413025569,False
568,1492638520.3,40.4535358843,-79.9463878184,1.11000001431,0.148208618164,-0.913360595703,0.412155151367,0.0199540007835,0.153037486777,-0.0513689153182,False
569,1492638520.5,40.4535358843,-79.9463878184,1.11000001431,0.0898590087891,-0.982116699219,0.317306518555,0.0873950932804,0.14303278951,-0.00480540787094,False
570,1492638520.7,40.4535358843,-79.9463878184,1.11000001431,0.206649780273,-0.860305786133,0.374633789062,0.0519976876516,0.191112700882,-0.115111942325,False
571,1492638520.9,40.4535358843,-79.9463878184,1.11000001431,0.298812866211,-0.904220581055,0.403747558594,-0.058482751222,0.395016298163,-0.0240086635432,False
572,1492638521.1,40.4535358843,-79.9463878184,1.11000001431,0.0556640625,-1.01943969727,0.363876342773,-0.0823766325222,0.488755307476,-0.171632742772,False
573,1492638521.3,40.4535554895,-79.946396859,2.97000002861,0.350250244141,-0.933578491211,0.229385375977,0.00411192072308,0.403109911032,-0.0798980284957,False
574,1492638521.5,40.4535554895,-79.946396859,2.97000002861,0.35417175293,-0.890380859375,0.321578979492,-0.154466006386,0.48072241468,-0.12223802877,False
575,1492638521.7,40.4535554895,-79.946396859,2.97000002861,0.350997924805,-0.900848388672,0.247650146484,-0.104973021739,0.508053637999,-0.144192329848,False
576,1492638521.9,40.4535554895,-79.946396859,2.97000002861,0.615310668945,-0.988479614258,0.199172973633,-0.0137922449694,0.545762401138,-0.0943102573669,False
577,1492638522.1,40.4535554895,-79.946396859,2.97000002861,0.255004882812,-0.952209472656,0.408386230469,-0.0552392873304,0.718331245034,-0.239118842692,False
578,1492638522.3,40.4535712611,-79.9464041318,3.99000000954,0.333648681641,-0.947708129883,0.159210205078,-0.141036750273,0.469989342855,-0.175383538852,False
579,1492638522.5,40.4535712611,-79.9464041318,3.99000000954,0.113418579102,-1.02969360352,0.231781005859,-0.0394789663154,0.438486011372,-0.143342248829,False
580,1492638522.7,40.4535712611,-79.9464041318,3.99000000954,0.0983276367188,-0.916534423828,0.357849121094,-0.0149552474174,0.274523971488,-0.0797614083318,False
581,1492638522.9,40.4535712611,-79.9464041318,3.99000000954,0.112335205078,-0.955673217773,0.214584350586,-0.143393115205,0.278533626825,-0.185575722659,False
582,1492638523.1,40.4535712611,-79.9464041318,3.99000000954,0.012939453125,-1.03837585449,0.685943603516,-0.0291456349698,0.23206785739,-0.0776647016055,False
583,1492638523.3,40.4535495482,-79.9464723841,4.90999984741,0.0540618896484,-0.888626098633,0.40544128418,-0.00444747902043,0.0893788819764,-0.0152031877149,False
584,1492638523.5,40.4535495482,-79.9464723841,4.90999984741,-0.0747985839844,-0.877365112305,0.3662109375,0.0175651452857,0.383865908995,-0.139418613595,False
585,1492638523.7,40.4535495482,-79.9464723841,4.90999984741,0.00953674316406,-0.920883178711,0.307556152344,0.0237777674767,-0.0129120702291,0.0450577561669,False
586,1492638523.9,40.4535495482,-79.9464723841,4.90999984741,0.148574829102,-0.91828918457,0.298950195312,0.0241343647466,0.167904583562,-0.0375036997349,False
587,1492638524.1,40.4535291883,-79.9465333697,6.23999977112,0.266754150391,-0.891738891602,0.308929443359,0.0479507480591,0.158183246635,0.00648000356438,False
588,1492638524.3,40.4535291883,-79.9465333697,6.23999977112,0.220672607422,-0.878997802734,0.340072631836,-0.0196980710028,0.187340333198,-0.0145459195579,False
589,1492638524.5,40.4535291883,-79.9465333697,6.23999977112,0.34521484375,-0.817657470703,0.237487792969,-0.0446082145749,0.118371917816,0.0557471521503,False
590,1492638524.7,40.4535291883,-79.9465333697,6.23999977112,0.285247802734,-1.03590393066,0.2724609375,-0.0271229641219,0.0714576720529,0.0752390944847,False
591,1492638524.9,40.4535291883,-79.9465333697,6.23999977112,0.271362304688,-1.0313873291,0.226211547852,0.0139736062396,0.271142289535,-0.0943834942968,False
592,1492638525.1,40.4535291883,-79.9465333697,6.23999977112,0.307678222656,-0.761856079102,0.604446411133,-0.222426681611,0.31418110328,0.00544163705536,False
593,1492638525.3,40.4535041971,-79.9466082277,7.42000007629,0.111404418945,-1.08442687988,0.333801269531,-0.121418574103,0.353925853072,-0.116241388944,False
594,1492638525.5,40.4535041971,-79.9466082277,7.42000007629,0.247833251953,-0.606872558594,0.328109741211,0.000207726565026,0.23829006696,0.114538297427,False
595,1492638525.7,40.4535041971,-79.9466082277,7.42000007629,0.0198211669922,-0.738677978516,0.520736694336,-0.233450304311,-0.152706455853,0.0886321316067,False
596,1492638525.9,40.4535041971,-79.9466082277,7.42000007629,-0.229095458984,-1.02275085449,0.298599243164,0.0210536199976,-0.0809837992721,-0.0262308051567,False
597,1492638526.1,40.4534754627,-79.9466942977,8.51000022888,0.196594238281,-1.01733398438,0.315948486328,-0.159927883465,0.157385629889,-0.133187881908,False
598,1492638526.3,40.4534754627,-79.9466942977,8.51000022888,0.0743560791016,-0.830490112305,0.337783813477,-0.123155487766,0.07844261096,-0.0622375420429,False
599,1492638526.5,40.4534754627,-79.9466942977,8.51000022888,0.199829101562,-0.956573486328,0.224258422852,0.0660882066631,-0.158913751722,0.0639933641496,False
600,1492638526.7,40.4534754627,-79.9466942977,8.51000022888,0.0975952148438,-0.873321533203,0.437347412109,-0.176639219306,0.109631423118,-0.105514176073,False
601,1492638526.9,40.4534754627,-79.9466942977,8.51000022888,-0.0514068603516,-0.869293212891,0.264022827148,-0.124181337418,-0.00875887050916,0.0424659677941,False
602,1492638527.1,40.4534754627,-79.9466942977,8.51000022888,-0.0232086181641,-0.970474243164,0.214111328125,0.0669947466981,0.0697644342318,-0.032546757998,False
603,1492638527.3,40.4534426243,-79.9467950983,9.86999988556,0.103439331055,-0.963851928711,0.278778076172,0.113885556643,0.0439275106003,-0.0490594220209,False
604,1492638527.5,40.4534426243,-79.9467950983,9.86999988556,0.0768585205078,-0.783233642578,0.307693481445,-0.109112639338,-0.018433069485,0.0255857875407,False
605,1492638527.7,40.4534426243,-79.9467950983,9.86999988556,0.170196533203,-0.968078613281,0.261520385742,-0.21226006415,0.0726353218869,-0.0908564037491,False
606,1492638527.9,40.4534426243,-79.9467950983,9.86999988556,0.0214385986328,-0.924133300781,0.0665588378906,0.167776219198,-0.0670421509655,-0.00130787841134,False
607,1492638528.1,40.4534426243,-79.9467950983,9.86999988556,-0.0455017089844,-0.853576660156,0.385192871094,0.0659521191314,-0.00468343509301,0.00281975496218,False
608,1492638528.3,40.4534062583,-79.9469094726,10.6099996567,0.0350036621094,-0.867736816406,0.233169555664,-0.217848974013,-0.235793353438,-0.00695298097398,False
609,1492638528.5,40.4534062583,-79.9469094726,10.6099996567,0.00230407714844,-0.904541015625,0.255447387695,-0.048109206144,-0.0837135393894,0.0455706809929,False
610,1492638528.7,40.4534062583,-79.9469094726,10.6099996567,0.407196044922,-0.696136474609,0.331115722656,-0.311378658865,0.0796639366359,-0.0812272121957,False
611,1492638528.9,40.4534062583,-79.9469094726,10.6099996567,0.240310668945,-0.930114746094,0.264633178711,0.15044117103,-0.179665102936,0.113956396728,False
612,1492638529.1,40.4534062583,-79.9469094726,10.6099996567,-0.00790405273438,-0.968414306641,0.271881103516,0.0334588906713,-0.101272559405,-0.010058226805,False
613,1492638529.3,40.4533678175,-79.9470303723,11.1999998093,-0.0448760986328,-0.940963745117,0.240539550781,-0.146148421669,-0.0298843958562,0.079613070259,False
614,1492638529.5,40.4533678175,-79.9470303723,11.1999998093,0.138641357422,-0.816970825195,0.218292236328,-0.14395131377,-0.00652048361295,-0.0675622663264,False
615,1492638529.7,40.4533678175,-79.9470303723,11.1999998093,0.0800170898438,-0.882263183594,0.245910644531,-0.038872031903,0.177878388161,-0.0968162919526,False
616,1492638529.9,40.4533678175,-79.9470303723,11.1999998093,0.0761260986328,-0.988464355469,0.217498779297,-0.138958153042,0.188103595166,-0.0925363257648,False
617,1492638530.1,40.4533678175,-79.9470303723,11.1999998093,0.104507446289,-0.905624389648,0.286529541016,0.0564728635473,-0.0663116458785,0.0391330216898,False
618,1492638530.3,40.4533280743,-79.9471553682,11.6199998856,0.0839080810547,-1.0472869873,0.176300048828,0.00404587432805,-0.012789564819,0.00860414084983,False
619,1492638530.5,40.4533280743,-79.9471553682,11.6199998856,0.0760955810547,-0.869781494141,0.252182006836,0.0202765095915,-0.00757909014626,-0.00723634131396,False
620,1492638530.7,40.4533280743,-79.9471553682,11.6199998856,0.0585784912109,-1.00434875488,0.236724853516,-0.141934768192,-0.0554427528377,0.0690600281235,False
621,1492638530.9,40.4533280743,-79.9471553682,11.6199998856,-0.221527099609,-0.861724853516,0.274032592773,-0.0731863299165,-0.28351533596,0.13432531801,False
622,1492638531.1,40.4533280743,-79.9471553682,11.6199998856,-0.029296875,-0.8193359375,0.213806152344,-0.0127586721504,-0.139264150251,0.000228765537638,False
623,1492638531.3,40.4532875357,-79.9472828658,11.9600000381,-0.00294494628906,-1.06813049316,0.410049438477,0.0195896803464,-0.189453551523,0.0987811722049,False
624,1492638531.5,40.4532875357,-79.9472828658,11.9600000381,-0.0813751220703,-0.864517211914,0.285369873047,-0.0219543010783,-0.133877374314,0.052365203882,False
625,1492638531.7,40.4532875357,-79.9472828658,11.9600000381,0.184097290039,-1.10858154297,0.205078125,0.215452395349,0.106014584042,-0.121748539762,False
626,1492638531.9,40.4532875357,-79.9472828658,11.9600000381,-0.00575256347656,-0.687896728516,0.0714111328125,0.2647040976,0.0270063176662,0.0484876413349,False
627,1492638532.1,40.4532875357,-79.9472828658,11.9600000381,0.0306701660156,-0.745544433594,0.266540527344,-0.0586380135136,-0.0464130388457,0.057094977978,False
628,1492638532.3,40.4532486879,-79.9474050453,12.6400003433,-0.0379791259766,-0.881423950195,0.260726928711,0.14649676314,0.1022296995,0.0118982048021,False
629,1492638532.5,40.4532486879,-79.9474050453,12.6400003433,-0.0205535888672,-0.910980224609,0.3701171875,0.0458492476429,0.132665103386,-0.00946886925578,False
630,1492638532.7,40.4532486879,-79.9474050453,12.6400003433,0.0169372558594,-1.03358459473,0.0964202880859,-0.0125347003027,-0.199880626139,0.105942678692,False
631,1492638532.9,40.4532486879,-79.9474050453,12.6400003433,0.0548400878906,-0.867736816406,0.170593261719,0.0547575214892,-0.130134035086,-0.0257588930116,False
632,1492638533.1,40.4532486879,-79.9474050453,12.6400003433,0.100280761719,-1.11657714844,0.198959350586,-0.062645804638,-0.0942490046618,0.0902300282608,False
633,1492638533.3,40.4532008645,-79.9475675945,13.1199998856,-0.537002563477,-0.0936584472656,0.505996704102,-0.337462191213,0.110690295968,-0.026131202932,True
634,1492638533.5,40.4532008645,-79.9475675945,13.1199998856,-0.810394287109,-0.660171508789,0.232925415039,-0.0362818414268,-0.0678221908488,0.12348438816,True
635,1492638533.7,40.4532008645,-79.9475675945,13.1199998856,0.108825683594,-0.843078613281,0.342010498047,-0.0652442509136,0.00787443471115,0.0249008225083,True
636,1492638533.9,40.4532008645,-79.9475675945,13.1199998856,0.23307800293,-1.14944458008,0.0478057861328,0.0985390908618,0.175932682668,-0.0229018537941,True
637,1492638534.1,40.4532008645,-79.9475675945,13.1199998856,0.00985717773438,-1.08668518066,0.110961914062,-0.0143376603607,0.0543410030947,-0.0120153838901,True
638,1492638534.3,40.453157128,-79.94771488,13.6199998856,-0.210678100586,-0.919448852539,0.21110534668,-0.00819641088694,0.0383343396789,-0.0801488982704,False
639,1492638534.5,40.453157128,-79.94771488,13.6199998856,-0.221893310547,-0.923629760742,0.185562133789,-0.0937581840729,-0.102566855694,0.0248938982895,False
640,1492638534.7,40.453157128,-79.94771488,13.6199998856,0.153747558594,-0.876098632812,-0.0736999511719,-0.0653752784393,0.354629726548,-0.0868816358222,False
641,1492638534.9,40.453157128,-79.94771488,13.6199998856,0.205154418945,-1.02558898926,0.181030273438,-0.196461659931,0.152308046954,-0.112224543072,False
642,1492638535.1,40.453157128,-79.94771488,13.6199998856,0.129745483398,-0.930328369141,0.171417236328,0.0185353348708,-0.105430552815,-0.0112665029916,False
643,1492638535.3,40.4531134149,-79.9478639731,13.5200004578,0.124603271484,-1.05328369141,0.16845703125,0.159742527453,-0.0818764908695,0.0327670014201,False
644,1492638535.5,40.4531134149,-79.9478639731,13.5200004578,-0.000946044921875,-0.796371459961,0.236755371094,0.104855842651,-0.0411002987871,0.019305254742,False
645,1492638535.7,40.4531134149,-79.9478639731,13.5200004578,-0.0102996826172,-1.0150604248,0.216796875,-0.181420126094,0.0596694558038,-0.0947720494999,False
646,1492638535.9,40.4531134149,-79.9478639731,13.5200004578,0.101852416992,-0.888427734375,0.247970581055,0.0267746226513,-0.00337981773942,-0.090345343136,False
647,1492638536.1,40.4530704782,-79.9480120917,13.1800003052,0.216400146484,-1.02508544922,-0.0460662841797,-0.0787336944671,0.0600723920767,-0.0500069747367,False
648,1492638536.3,40.4530704782,-79.9480120917,13.1800003052,0.134490966797,-0.94921875,0.106292724609,0.0170809825996,0.0605256620942,0.0298726779474,False
649,1492638536.5,40.4530704782,-79.9480120917,13.1800003052,0.268112182617,-0.974197387695,0.185607910156,-0.101542071307,-0.179094387515,0.0847196816493,False
650,1492638536.7,40.4530704782,-79.9480120917,13.1800003052,0.275009155273,-0.792922973633,0.123489379883,-0.260155418458,0.289926896284,-0.207058644225,False
651,1492638536.9,40.4530704782,-79.9480120917,13.1800003052,0.425216674805,-0.875930786133,0.182067871094,0.0351995327598,-0.102343150163,0.0176839222703,False
652,1492638537.1,40.4530704782,-79.9480120917,13.1800003052,0.242660522461,-0.748977661133,0.321166992188,-0.18358740659,-0.156195196881,0.255481038113,False
653,1492638537.3,40.4530282904,-79.9481576266,13.0900001526,-0.0348968505859,-0.923706054688,0.0967712402344,0.0934119731312,0.0876797852009,-0.00779959988452,False
654,1492638537.5,40.4530282904,-79.9481576266,13.0900001526,0.00358581542969,-0.593353271484,0.0451049804688,-0.0921906474553,-0.0408694027206,0.0993857097723,False
655,1492638537.7,40.4530282904,-79.9481576266,13.0900001526,0.481674194336,-1.4595489502,-0.313201904297,-0.0507297566566,0.0928646935272,-0.0551359566801,False
656,1492638537.9,40.4530282904,-79.9481576266,13.0900001526,0.123687744141,-0.991180419922,-0.157363891602,0.391344331652,-0.0525012914137,0.244040364386,False
657,1492638538.1,40.4530282904,-79.9481576266,13.0900001526,0.188629150391,-0.702758789062,0.161987304688,-0.141479367646,0.156185343185,-0.236418663662,False
658,1492638538.3,40.4529870385,-79.9483002329,12.8800001144,0.296020507812,-0.813842773438,0.103164672852,0.0626340867292,-0.0387023885416,-0.00672235122358,False
659,1492638538.5,40.4529870385,-79.9483002329,12.8800001144,0.235000610352,-0.70002746582,0.178192138672,-0.138751225425,0.207236010753,-0.17468206222,False
660,1492638538.7,40.4529870385,-79.9483002329,12.8800001144,0.114608764648,-0.396240234375,0.370178222656,-0.201838315856,-0.0699681660552,-0.0743884808325,False
661,1492638538.9,40.4529870385,-79.9483002329,12.8800001144,0.281600952148,-0.869110107422,-0.102905273438,0.0525617451705,-0.0928606987855,0.154312608307,False
662,1492638539.1,40.4529870385,-79.9483002329,12.8800001144,0.29133605957,-0.853286743164,0.219497680664,0.033074596526,-0.276744781521,0.232421258866,False
663,1492638539.3,40.4529473142,-79.9484422769,12.720000267,0.151824951172,-0.714279174805,0.171249389648,-0.103772202404,-0.101432881702,0.056774866015,False
664,1492638539.5,40.4529473142,-79.9484422769,12.720000267,0.384979248047,-1.13334655762,0.245635986328,-0.0593669207039,0.234396791763,-0.0470599206745,False
665,1492638539.7,40.4529473142,-79.9484422769,12.720000267,0.157180786133,-0.820648193359,0.241134643555,-0.0932684287484,0.0803750006469,-0.0662013910094,False
666,1492638539.9,40.4529473142,-79.9484422769,12.720000267,-0.0633239746094,-1.02142333984,0.20426940918,-0.0961808617165,0.0229572475448,-0.0404938970069,True
667,1492638540.1,40.4529473142,-79.9484422769,12.720000267,0.131637573242,-1.1787109375,0.170486450195,0.249060156725,-0.0282015443634,0.0719266547209,True
668,1492638540.3,40.452907326,-79.9485852647,12.6999998093,0.161834716797,-0.371353149414,-0.0428161621094,0.360546205226,0.0540046458491,-0.169174645086,True
669,1492638540.5,40.452907326,-79.9485852647,12.6999998093,0.146713256836,-1.13168334961,0.21012878418,-0.056643039541,-0.0155738997387,0.0836911688363,True
670,1492638540.7,40.452907326,-79.9485852647,12.6999998093,0.0390319824219,-0.768661499023,0.205184936523,-0.294734967316,-0.0129789155725,-0.0253745988663,True
671,1492638540.9,40.452907326,-79.9485852647,12.6999998093,0.139587402344,-1.16383361816,0.344161987305,0.00574816689683,0.160568373707,-0.0984472118042,True
672,1492638541.1,40.452907326,-79.9485852647,12.6999998093,-0.0946197509766,-0.922988891602,0.328414916992,0.056620935304,0.20704799158,-0.0553977454153,False
673,1492638541.3,40.4528671384,-79.9487289653,12.8100004196,0.121932983398,-1.08720397949,0.0294494628906,0.0963172155644,0.0121336282425,-0.0278329628685,False
674,1492638541.5,40.4528671384,-79.9487289653,12.8100004196,0.0603942871094,-0.991317749023,0.104431152344,0.016385897555,-0.0554171864912,0.0173702018939,False
675,1492638541.7,40.4528671384,-79.9487289653,12.8100004196,-0.107986450195,-0.950881958008,0.200790405273,0.170515280379,-0.171283336037,0.130133502454,False
676,1492638541.9,40.4528671384,-79.9487289653,12.8100004196,0.232711791992,-0.947357177734,0.186386108398,-0.0376443146405,-0.082715652929,0.0595360314332,False
677,1492638542.1,40.4528671384,-79.9487289653,12.8100004196,0.102111816406,-0.724594116211,0.21842956543,-0.209799036986,0.146018459408,-0.075027373178,False
678,1492638542.3,40.4528653901,-79.948886158,12.4200000763,0.0132446289062,-0.860504150391,0.0197448730469,-0.13877146545,0.0679143362225,-0.0165230503512,False
679,1492638542.5,40.4528653901,-79.948886158,12.4200000763,-0.010498046875,-0.839172363281,0.265167236328,0.141596546734,0.0299174190537,-0.0583354784137,False
680,1492638542.7,40.4528653901,-79.948886158,12.4200000763,0.100723266602,-0.997039794922,0.150375366211,-0.0229460622682,0.0501427959523,-0.00782782939207,False
681,1492638542.9,40.4528653901,-79.948886158,12.4200000763,-0.115097045898,-0.894012451172,0.225570678711,0.104966630153,-0.14213956528,0.111261544021,False
682,1492638543.1,40.4528653901,-79.948886158,12.4200000763,-0.568008422852,-0.937103271484,0.289947509766,0.347552375951,0.0349430703468,-0.16392741879,False
683,1492638543.3,40.4528249475,-79.9490174186,11.9799995422,0.0481414794922,-1.10046386719,0.186706542969,0.166501097668,0.00637161290801,0.0539327404996,False
684,1492638543.5,40.4528249475,-79.9490174186,11.9799995422,0.0906372070312,-0.936477661133,0.160263061523,0.0298385894855,0.00194570549241,0.0770678872053,False
685,1492638543.7,40.4528249475,-79.9490174186,11.9799995422,0.150894165039,-0.9150390625,0.10026550293,-0.0182903240506,0.0405335781071,-0.0418742133999,False
686,1492638543.9,40.4528249475,-79.9490174186,11.9799995422,-0.0421447753906,-0.985061645508,0.160736083984,0.00226049113326,0.0382685596,-0.066180884669,False
687,1492638544.1,40.4528249475,-79.9490174186,11.9799995422,0.116134643555,-1.00508117676,0.181716918945,0.0159190454159,-0.0479744501928,-0.0221037044154,False
688,1492638544.3,40.4527840857,-79.9491462485,11.8699998856,0.00468444824219,-0.997299194336,0.26628112793,0.0473683147287,-0.0513646542605,0.0123458821814,False
689,1492638544.5,40.4527840857,-79.9491462485,11.8699998856,0.0689849853516,-1.00555419922,0.245880126953,-0.145210988965,0.0286082090618,0.0432204413309,False
690,1492638544.7,40.4527840857,-79.9491462485,11.8699998856,0.0377197265625,-0.993438720703,0.174285888672,0.201778927364,0.0380424572235,-0.0161579309657,False
691,1492638544.9,40.4527840857,-79.9491462485,11.8699998856,0.0157928466797,-1.13031005859,0.00224304199219,-0.1901409134,-0.0817459959761,-0.0795693944172,False
692,1492638545.1,40.4527840857,-79.9491462485,11.8699998856,0.0247344970703,-0.70573425293,0.128143310547,0.095458878745,-0.067649085378,-0.086277630887,False
693,1492638545.3,40.4527157665,-79.9492546742,11.1599998474,-0.0704193115234,-1.13636779785,0.100601196289,-0.0653758110715,-0.187839675902,0.0829801048252,False
694,1492638545.5,40.4527157665,-79.9492546742,11.1599998474,-0.00526428222656,-0.942565917969,0.0553436279297,-0.0137168775106,-0.0977705025712,0.0150388706757,False
695,1492638545.7,40.4527157665,-79.9492546742,11.1599998474,-0.0505065917969,-1.12603759766,0.0190277099609,0.0722949698996,-0.12596139429,0.172725704084,False
696,1492638545.9,40.4527157665,-79.9492546742,11.1599998474,0.0951538085938,-1.19282531738,-0.112411499023,-0.133970584953,0.0327709961618,-0.0750249763331,False
697,1492638546.1,40.4526805247,-79.9493705765,9.64999961853,-0.0718841552734,-0.872436523438,0.000350952148438,-0.16619296993,-0.163771623867,0.147991062827,False
698,1492638546.3,40.4526805247,-79.9493705765,9.64999961853,0.00331115722656,-1.0005645752,-0.180801391602,-0.0409887123374,0.11194810695,-0.0561516863199,False
699,1492638546.5,40.4526805247,-79.9493705765,9.64999961853,0.0920562744141,-1.06268310547,-0.130020141602,-0.0973739578849,0.00063889234551,0.0341864662811,False
700,1492638546.7,40.4526805247,-79.9493705765,9.64999961853,-0.0321502685547,-1.04632568359,-0.166366577148,0.0285173952687,-0.0406076139854,-0.0049343048677,False
701,1492638546.9,40.4526805247,-79.9493705765,9.64999961853,0.0293731689453,-0.955810546875,-0.215438842773,0.0546427392462,0.0698398016907,-0.06359362367,False
702,1492638547.1,40.4526805247,-79.9493705765,9.64999961853,0.0424652099609,-1.14233398438,-0.151672363281,0.113162508407,0.04713209234,0.00530182109813,False
703,1492638547.3,40.4526566977,-79.9494489382,6.94000005722,0.209136962891,-0.899230957031,-0.0708618164062,-0.038114628889,0.0289682684412,-0.000464987926328,False
704,1492638547.5,40.4526566977,-79.9494489382,6.94000005722,-7.62939453125e-05,-1.08302307129,-0.111633300781,-0.0141264716862,-0.0573506414426,-0.0106587696308,False
705,1492638547.7,40.4526566977,-79.9494489382,6.94000005722,0.0847015380859,-1.06031799316,-0.186416625977,-0.0820211005167,0.0398824352206,-0.0542533850949,False
706,1492638547.9,40.4526566977,-79.9494489382,6.94000005722,0.0210723876953,-1.05116271973,-0.109939575195,-0.0151059823351,-0.00309086476115,0.012647884649,False
707,1492638548.1,40.4526566977,-79.9494489382,6.94000005722,0.031005859375,-0.989486694336,-0.0536193847656,0.014436197321,-0.0139179461729,0.0268390711497,False
708,1492638548.3,40.4526417613,-79.9494980608,3.41000008583,0.0394134521484,-1.0567779541,-0.0219421386719,-0.00839002269819,0.00537212855091,-0.00649704779536,False
709,1492638548.5,40.4526417613,-79.9494980608,3.41000008583,0.0406341552734,-1.00706481934,-0.0156402587891,-0.00871492835118,-0.0105791411142,0.00846778700202,False
710,1492638548.7,40.4526417613,-79.9494980608,3.41000008583,0.0420379638672,-1.005859375,-0.00215148925781,-0.0190053828032,0.00969603689676,-0.00661689004441,False
711,1492638548.9,40.4526417613,-79.9494980608,3.41000008583,0.0155944824219,-0.991790771484,0.0318145751953,-0.00606614833098,0.0117376161884,-0.0171518226845,False
712,1492638549.1,40.4526417613,-79.9494980608,3.41000008583,0.0335693359375,-1.01083374023,0.0443267822266,-0.023619842024,-0.00835460265569,0.00937565861762,False
713,1492638549.3,40.4526350655,-79.9495200816,1.38999998569,0.0132141113281,-0.999160766602,0.0794677734375,-0.0244142629772,0.00228552484751,-0.00452071595041,False
714,1492638549.5,40.4526350655,-79.9495200816,1.38999998569,0.0419006347656,-0.981735229492,0.123168945312,-0.0159603244128,-0.00627920121819,-0.00441205897793,False
715,1492638549.7,40.4526350655,-79.9495200816,1.38999998569,0.03857421875,-0.967498779297,0.169952392578,-0.00963318629503,-0.0105748800565,-0.00220376580204,False
716,1492638549.9,40.4526350655,-79.9495200816,1.38999998569,0.0546569824219,-0.963043212891,0.157073974609,-0.0118425447354,-0.00949576718279,0.00416811342208,False
717,1492638550.1,40.4526350655,-79.9495200816,1.38999998569,0.0317687988281,-0.974273681641,0.160278320312,-0.0129285818279,-0.00842464379236,0.00628665806924,False
718,1492638550.3,40.452632501,-79.9495285159,0.219999998808,0.0435485839844,-0.96565246582,0.162704467773,-0.0212893097541,-0.00305304787367,-0.00234251649483,False
719,1492638550.5,40.452632501,-79.9495285159,0.219999998808,0.0469818115234,-0.964065551758,0.156829833984,-0.0118784974101,-0.00843130169508,0.00736364041407,False
720,1492638550.7,40.452632501,-79.9495285159,0.219999998808,0.0508728027344,-0.977981567383,0.159744262695,-0.0181164196314,-0.00200962135857,-0.000180296005798,False
721,1492638550.9,40.452632501,-79.9495285159,0.219999998808,0.0445404052734,-0.976272583008,0.172332763672,-0.0201779726312,0.0011944277489,-0.00340831356308,False
722,1492638551.1,40.452632501,-79.9495285159,0.219999998808,0.0463409423828,-0.965606689453,0.181289672852,-0.0128553448979,-0.0084259753729,0.000956341147447,False
723,1492638551.3,40.4526321804,-79.94952957,0.0,0.0444183349609,-0.966217041016,0.191116333008,-0.0128846396699,-0.00842544274068,0.00308846791616,False
724,1492638551.5,40.4526321804,-79.94952957,0.0,0.0516662597656,-0.962951660156,0.185150146484,-0.0160548666315,-0.00521367046605,0.00304772155149,False
725,1492638551.7,40.4526321804,-79.94952957,0.0,0.0393218994141,-0.964477539062,0.196701049805,-0.0160322297623,-0.00415027024278,0.00197899500604,False
726,1492638551.9,40.4526321804,-79.94952957,0.0,0.0513000488281,-0.952041625977,0.220397949219,-0.0107019128405,-0.00524882419244,0.000970189585116,False
727,1492638552.1,40.4526321804,-79.94952957,0.0,0.0422668457031,-0.945724487305,0.25260925293,-0.0223314046886,-0.00198272343156,-0.00342216200075,False
728,1492638552.3,40.4526318169,-79.9495307656,0.0,0.054443359375,-0.951400756836,0.241607666016,-0.00849122281961,-0.00420033767127,-0.00434095257683,False
729,1492638552.5,40.4526318169,-79.9495307656,0.0,0.0419616699219,-0.95295715332,0.244125366211,-0.0161840299444,-0.0126580046611,0.00839668060091,False
730,1492638552.7,40.4526318169,-79.9495307656,0.0,0.0466766357422,-0.944061279297,0.24479675293,-0.00639105398397,-0.00421365347672,-0.00218698788717,False
731,1492638552.9,40.4526318169,-79.9495307656,0.0,0.0398254394531,-0.964309692383,0.239990234375,-0.00856579133013,-0.00632660548559,-7.13727172141e-05,False
732,1492638553.1,40.4526318169,-79.9495307656,0.0,0.046142578125,-0.950637817383,0.241134643555,-0.00435746417559,-0.00528957055712,0.00423389350101,False
733,1492638553.3,40.4526308984,-79.9495337866,0.649999976158,0.0379333496094,-0.944534301758,0.250427246094,-0.00751437533177,-0.00420566399345,0.00206634668979,False
734,1492638553.5,40.4526308984,-79.9495337866,0.649999976158,0.035888671875,-0.961196899414,0.233581542969,-0.0232110467967,0.0012122709282,-0.0151677676724,False
735,1492638553.7,40.4526308984,-79.9495337866,0.649999976158,0.0448608398438,-0.957992553711,0.226043701172,-0.0151073139157,-0.0169203939858,0.00522006205266,False
736,1492638553.9,40.4526308984,-79.9495337866,0.649999976158,0.0387115478516,-0.965637207031,0.219818115234,-0.0158391505832,0.000101466437532,-0.00975835486627,False
737,1492638554.1,40.4526308984,-79.9495337866,0.649999976158,0.0630340576172,-0.959274291992,0.1962890625,-0.0182908566828,-0.0115807560002,0.00730611613452,False
738,1492638554.3,40.4526278892,-79.9495436831,0.959999978542,0.0194702148438,-0.972915649414,0.171493530273,-0.0098182759908,-0.0137629501974,0.00953092090918,False
739,1492638554.5,40.4526278892,-79.9495436831,0.959999978542,0.0304107666016,-0.977874755859,0.171417236328,-0.0297019693215,-0.0104462493758,-0.0141379232789,False
740,1492638554.7,40.4526278892,-79.9495436831,0.959999978542,0.0594787597656,-0.970077514648,0.145263671875,-0.0213758624895,-0.000923850582148,0.0051146008735,False
741,1492638554.9,40.4526278892,-79.9495436831,0.959999978542,0.0184326171875,-0.98388671875,0.142669677734,-0.01801521951,-0.0041390849662,-0.00870347675849,False
742,1492638555.1,40.4526278892,-79.9495436831,0.959999978542,0.0560913085938,-0.976638793945,0.124786376953,-0.0181443828228,-0.0115834191613,-0.00335451770906,False
