timestamp,latitude,longitude,speed,accelerometerX,accelerometerY,accelerometerZ,gyroX,gyroY,gyroZ
1492637237.8,40.4445168888573,-79.9444221240282,1.11000001430511,0.005828857421875,-0.954635620117188,0.158447265625,-100.0,-100.0,-100.0
1492637237.9,40.4445168888573,-79.9444221240282,1.11000001430511,0.0040435791015625,-0.975112915039062,0.157470703125,-0.0345308130100764,-0.0199824966071915,0.0220885243972262
1492637238.1,40.4445251031224,-79.9444204476475,0.959999978542328,-0.0260467529296875,-0.96453857421875,0.18603515625,-0.0302891963419072,-0.024265125956148,0.0210767894991051
1492637238.3,40.4445251031224,-79.9444204476475,0.959999978542328,-0.0102996826171875,-0.982711791992188,0.2098388671875,-0.0404930980585458,-0.00611914523667507,-0.00146500491565259
1492637238.5,40.4445251031224,-79.9444204476475,0.959999978542328,-0.0207977294921875,-0.935104370117188,0.271026611328125,-0.0427557197206771,-0.0199324291786981,0.00067990502629723
1492637238.7,40.4445251031224,-79.9444204476475,0.959999978542328,-0.0265045166015625,-0.94439697265625,0.268020629882812,-0.0580121706574141,-0.041105358793155,0.0144391267981916
1492637238.9,40.4445251031224,-79.9444204476475,0.959999978542328,-0.0441741943359375,-0.931137084960938,0.276901245117188,-0.0444050153837632,-0.0528930424100637,0.0252710018998709
1492637239.1,40.4445324791972,-79.9444187712669,0.709999978542328,-0.02825927734375,-0.939285278320312,0.290390014648438,-0.0721439686658105,-0.0601586784960179,0.025005751055299
1492637239.3,40.4445324791972,-79.9444187712669,0.709999978542328,-0.063507080078125,-0.921859741210938,0.26324462890625,-0.0769634912905269,-0.0782055896229399,0.0559231870983559
1492637239.5,40.4445324791972,-79.9444187712669,0.709999978542328,-0.190780639648438,-1.00648498535156,0.206161499023438,-0.112192052506204,-0.136472624796675,0.107957360056869
1492637239.7,40.4445324791972,-79.9444187712669,0.709999978542328,-0.280654907226562,-0.952133178710938,0.185333251953125,-0.0370831865988084,-0.199757588096336,-0.122478778532744
1492637239.9,40.4445324791972,-79.9444187712669,0.709999978542328,0.081573486328125,-1.03068542480469,0.128936767578125,-0.0235785630271255,-0.211543407500482,-0.104184459740554
1492637240.1,40.4445440881331,-79.9444147479534,1.32000005245209,0.0478668212890625,-0.961471557617188,0.224227905273438,0.0817643717876128,-0.178148432695325,0.152699265318527
1492637240.3,40.4445440881331,-79.9444147479534,1.32000005245209,-0.175460815429688,-0.960952758789062,0.236038208007812,0.0827971456583455,-0.205813882731286,0.139986665855034
1492637240.5,40.4445440881331,-79.9444147479534,1.32000005245209,-0.190521240234375,-0.906768798828125,0.306472778320312,0.101171092967129,-0.279352016227753,0.00282295075548399
1492637240.7,40.4445440881331,-79.9444147479534,1.32000005245209,-0.0130157470703125,-0.929290771484375,0.28607177734375,-0.000438622631536051,-0.248911552335929,-0.0260174859534201
1492637240.9,40.4445440881331,-79.9444147479534,1.32000005245209,-0.27862548828125,-0.967437744140625,0.393508911132812,0.108505172293098,-0.333640288732909,0.0595474830258447
1492637241.1,40.4445613967631,-79.9444029294699,2.14000010490417,-0.236175537109375,-0.923385620117188,0.353973388671875,0.0233905438541659,-0.476702106698658,-0.0241194510445206
1492637241.3,40.4445613967631,-79.9444029294699,2.14000010490417,-0.0181884765625,-0.934432983398438,0.333526611328125,-0.0434545331907139,-0.373080372896437,0.0143786730414468
1492637241.5,40.4445613967631,-79.9444029294699,2.14000010490417,-0.11712646484375,-0.96337890625,0.32452392578125,0.0166500831351754,-0.353239556459238,0.146087168964079
1492637241.7,40.4445613967631,-79.9444029294699,2.14000010490417,-0.157501220703125,-0.963043212890625,0.3388671875,0.0225729533995116,-0.390518485398167,0.0822711713430549
1492637241.9,40.4445613967631,-79.9444029294699,2.14000010490417,-0.0698699951171875,-0.910232543945312,0.341796875,-0.047154196577052,-0.321999877924282,0.00141440485494108
1492637242.1,40.4445776576553,-79.9443723355233,3.20000004768372,-0.004364013671875,-0.958404541015625,0.287261962890625,0.0459043750774778,-0.288555634638958,0.067319918667241
1492637242.3,40.4445776576553,-79.9443723355233,3.20000004768372,-0.089508056640625,-0.92742919921875,0.29827880859375,0.0536006443116978,-0.290723714082391,0.126046082812905
1492637242.5,40.4445776576553,-79.9443723355233,3.20000004768372,-0.0747833251953125,-0.944000244140625,0.346923828125,0.0323877672808896,-0.272514350128974,0.0522131373837665
1492637242.7,40.4445776576553,-79.9443723355233,3.20000004768372,0.013427734375,-0.909255981445312,0.342727661132812,0.0236547294343018,-0.213957829344748,0.0221186181175441
1492637242.9,40.4445776576553,-79.9443723355233,3.20000004768372,0.0149993896484375,-0.88092041015625,0.308319091796875,-0.0695569739829076,-0.129316178315414,0.0316079937137144
1492637243.1,40.4445878835772,-79.9443257321417,4.13000011444092,-0.0336151123046875,-0.916412353515625,0.364364624023438,0.0277871564977778,-0.193770801965838,0.0423668982015256
1492637243.3,40.4445878835772,-79.9443257321417,4.13000011444092,-0.016326904296875,-0.9097900390625,0.317047119140625,0.00734473197032953,-0.119180986154899,0.0206408300286591
1492637243.5,40.4445878835772,-79.9443257321417,4.13000011444092,-0.0316314697265625,-0.930099487304688,0.24749755859375,-0.0637659301925303,-0.0963811314305127,0.0155890797568878
1492637243.7,40.4445878835772,-79.9443257321417,4.13000011444092,-0.040557861328125,-0.96075439453125,0.307220458984375,-0.022921827502312,-0.154084641717587,0.034281807448154
1492637243.9,40.4445878835772,-79.9443257321417,4.13000011444092,0.0074462890625,-0.916534423828125,0.321762084960938,-0.00992799822770639,-0.146724996045153,0.0226674956182094
1492637244.1,40.4446414807856,-79.9442712993735,4.84000015258789,-0.0345916748046875,-0.97137451171875,0.330307006835938,0.00474921517193831,-0.150009206301438,0.0377532379290723
1492637244.3,40.4446414807856,-79.9442712993735,4.84000015258789,-0.05108642578125,-0.924041748046875,0.302810668945312,-0.0412220052489005,-0.15715473382223,0.0468969352157503
1492637244.5,40.4446414807856,-79.9442712993735,4.84000015258789,-0.0508575439453125,-0.931396484375,0.260025024414062,-0.0941563266558605,-0.130218723608841,0.0388219644745211
1492637244.7,40.4446414807856,-79.9442712993735,4.84000015258789,0.0328826904296875,-0.95245361328125,0.252639770507812,0.00286529501681625,-0.0457587001658505,-0.000918790576077337
1492637244.9,40.4446414807856,-79.9442712993735,4.84000015258789,0.0073089599609375,-0.927963256835938,0.240509033203125,-0.0475965476341142,-0.0603190007936407,0.0209926336086586
1492637245.1,40.4446414807856,-79.9442712993735,4.84000015258789,-0.01129150390625,-0.964996337890625,0.254913330078125,-0.0891370669493881,-0.0855801489974783,0.00783794940421221
1492637245.3,40.4446439092561,-79.9442019843246,5.78999996185303,0.0172882080078125,-0.940109252929688,0.22418212890625,-0.0910654618947145,-0.0334431780208881,0.021544440586523
1492637245.5,40.4446439092561,-79.9442019843246,5.78999996185303,-0.093292236328125,-0.921875,0.329147338867188,-0.00245916295057917,0.0510703749600135,-0.025746109838341
1492637245.7,40.4446439092561,-79.9442019843246,5.78999996185303,0.0106353759765625,-0.980987548828125,0.31573486328125,0.000687894509567467,-0.0638287807942561,-0.00729173506463695
1492637245.9,40.4446439092561,-79.9442019843246,5.78999996185303,0.089263916015625,-0.987152099609375,0.362411499023438,-0.0725548944220098,-0.0101644869325054,0.0046144592207803
1492637246.1,40.4446439092561,-79.9442019843246,5.78999996185303,0.009307861328125,-0.939239501953125,0.181838989257812,-0.0279133903334475,-0.00513484089778178,0.0135882468299113
1492637246.3,40.4446464452039,-79.9441296015872,6.11999988555908,0.046966552734375,-0.984375,0.275054931640625,-0.0111834123655697,0.0255980380817326,-0.024703482271575
1492637246.5,40.4446464452039,-79.9441296015872,6.11999988555908,0.0516510009765625,-0.9735107421875,0.237838745117188,-0.00262614315092714,0.00215050258023898,0.0372850542094364
1492637246.7,40.4446464452039,-79.9441296015872,6.11999988555908,0.0084075927734375,-0.945907592773438,0.239974975585938,-0.0257506372121942,-0.0104683536128835,0.00829308363450675
1492637246.9,40.4446464452039,-79.9441296015872,6.11999988555908,0.0479888916015625,-0.971145629882812,0.18316650390625,-0.0190386723168675,0.0033137713443856,-0.00766697446222912
1492637247.1,40.4446464452039,-79.9441296015872,6.11999988555908,0.04632568359375,-0.937789916992188,0.186111450195312,-0.0135898447265653,0.00434068626072015,-0.0161435498958423
1492637247.3,40.444648945022,-79.9440582500896,6.1100001335144,-0.00201416015625,-0.993728637695312,0.170166015625,-0.00266076424509817,-0.0297632220266166,0.0224400616611167
1492637247.5,40.444648945022,-79.9440582500896,6.1100001335144,-0.0563812255859375,-0.966293334960938,0.256790161132812,-0.0311520605350929,-0.0923333928897012,0.0468327530334794
1492637247.7,40.444648945022,-79.9440582500896,6.1100001335144,0.00982666015625,-0.99542236328125,0.228240966796875,0.00497611649681306,-0.0287512208123864,0.00972107061100723
1492637247.9,40.444648945022,-79.9440582500896,6.1100001335144,0.045989990234375,-0.996292114257812,0.227813720703125,-0.0215316574132906,-0.0158143831851085,0.00835007528183444
1492637248.1,40.444648945022,-79.9440582500896,6.1100001335144,0.0648651123046875,-1.00077819824219,0.182235717773438,0.00364506858399145,-0.056398561352935,0.0140436473763148
1492637248.3,40.4446513247624,-79.9439903259298,5.67000007629395,-0.0092010498046875,-0.937576293945312,0.19842529296875,-0.0488437059725983,-0.0592449479260117,0.0348378754837625
1492637248.5,40.4446513247624,-79.9439903259298,5.67000007629395,-0.0677490234375,-0.983673095703125,0.249038696289062,-0.0559841734873187,0.0865151848562051,-0.0637030795908044
1492637248.7,40.4446513247624,-79.9439903259298,5.67000007629395,-0.0126495361328125,-0.955230712890625,0.179168701171875,0.013812218677587,-0.0117914120424348,-0.00409301227934278
1492637248.9,40.4446513247624,-79.9439903259298,5.67000007629395,0.007965087890625,-0.974746704101562,0.214370727539062,-0.00186634329192753,-0.0521052793596183,0.0299693506949887
1492637249.1,40.4446513247624,-79.9439903259298,5.67000007629395,0.047943115234375,-0.982101440429688,0.197906494140625,-0.0253591525319525,0.00654551732719675,-0.0109386678613915
1492637249.3,40.4446532571971,-79.9439211611198,5.28000020980835,0.0343780517578125,-0.964004516601562,0.170578002929688,0.00064395235158116,-0.0287221923565046,0.0150077116909235
1492637249.5,40.4446532571971,-79.9439211611198,5.28000020980835,0.034454345703125,-0.951858520507812,0.190078735351562,-0.0279386903638033,0.00124848991902915,0.0189025847851644
1492637249.7,40.4446532571971,-79.9439211611198,5.28000020980835,0.060272216796875,-0.9549560546875,0.207809448242188,-0.0443072773717573,0.0141128895646569,-0.0228805485054158
1492637249.9,40.4446532571971,-79.9439211611198,5.28000020980835,0.0121612548828125,-0.949569702148438,0.191299438476562,-0.0354597235982961,-0.0252971008785537,0.00929816062990265
1492637250.1,40.4446532571971,-79.9439211611198,5.28000020980835,0.0616607666015625,-0.981521606445312,0.199630737304688,-0.00490287956683588,0.0287498892318414,-0.0150513875328008
1492637250.3,40.4446545963014,-79.9438595779819,4.69999980926514,0.0828704833984375,-0.944046020507812,0.183944702148438,-0.0136577553343624,0.0362562750803387,0.0061638863429884
1492637250.5,40.4446545963014,-79.9438595779819,4.69999980926514,0.0617218017578125,-0.94573974609375,0.20623779296875,-0.0127141973601473,0.0181667533759755,0.00515401565763035
1492637250.7,40.4446545963014,-79.9438595779819,4.69999980926514,0.0172882080078125,-0.974136352539062,0.178329467773438,-0.0273634475683462,0.0427266912647953,-0.000390419415805616
1492637250.9,40.4446545963014,-79.9438595779819,4.69999980926514,0.0537109375,-0.935348510742188,0.177139282226562,-0.0192378767664054,0.0756441612865017,-0.0313123828327157
1492637251.1,40.4446555520914,-79.9438103551089,3.98000001907349,0.06982421875,-0.965225219726562,0.167800903320312,-0.0117488014649936,0.0628292964371494,-0.0407985626355779
1492637251.3,40.4446555520914,-79.9438103551089,3.98000001907349,0.054901123046875,-0.962799072265625,0.217193603515625,-0.0187830088522199,0.0256491707746621,-0.0141192811512731
1492637251.5,40.4446555520914,-79.9438103551089,3.98000001907349,0.054168701171875,-0.957046508789062,0.147430419921875,-0.00904196453303703,0.0447325841978429,-0.0151350107910293
1492637251.7,40.4446555520914,-79.9438103551089,3.98000001907349,0.0232696533203125,-0.984268188476562,0.232452392578125,-0.0137216712005243,0.0277469427653176,0.00618519163170903
1492637251.9,40.4446555520914,-79.9438103551089,3.98000001907349,0.03106689453125,-0.938186645507812,0.186141967773438,-0.0164982829530409,-0.0349923388269871,0.0191132408273897
1492637252.1,40.4446555520914,-79.9438103551089,3.98000001907349,0.0382080078125,-0.935012817382812,0.152786254882812,2.26368692656735e-05,-0.0106385296065395,-0.00743581207961024
1492637252.3,40.4446557927779,-79.9437635424836,3.65000009536743,-0.0070648193359375,-0.964202880859375,0.221160888671875,-0.0163265090627308,-0.0530802626346963,-0.00322881650561207
1492637252.5,40.4446557927779,-79.9437635424836,3.65000009536743,0.00897216796875,-0.978713989257812,0.205902099609375,-0.0226629682443563,-0.0168700602412159,0.0126060730198901
1492637252.7,40.4446557927779,-79.9437635424836,3.65000009536743,0.011260986328125,-0.96282958984375,0.210159301757812,-0.034247186353983,-0.0114771590338055,0.00607626834312479
1492637252.9,40.4446557927779,-79.9437635424836,3.65000009536743,0.0232696533203125,-0.962799072265625,0.204498291015625,-0.0127847711290344,-0.000980575913367176,-0.000128364364541819
1492637253.1,40.4446557927779,-79.9437635424836,3.65000009536743,0.024810791015625,-0.957473754882812,0.207138061523438,-0.0256347897047757,-0.0125980835366198,-0.00129616050254157
1492637253.3,40.444655979116,-79.9437273004294,3.14000010490417,-0.0054168701171875,-0.985870361328125,0.212326049804688,-0.000536626959650966,-0.0382874680437422,0.0182189513333411
1492637253.5,40.444655979116,-79.9437273004294,3.14000010490417,0.0284881591796875,-0.954132080078125,0.203872680664062,-0.027258252705288,0.0235761661821445,-0.0184655600502824
1492637253.7,40.444655979116,-79.9437273004294,3.14000010490417,0.04119873046875,-0.954391479492188,0.18280029296875,0.00777802827968542,0.00420087030349099,-0.0212554876082494
1492637253.9,40.444655979116,-79.9437273004294,3.14000010490417,0.0404205322265625,-0.974777221679688,0.1934814453125,0.00427623776234023,-0.0074746942315254,-0.00526799895228574
1492637254.1,40.4446561419531,-79.9436956292105,2.65000009536743,0.0323028564453125,-0.985702514648438,0.21002197265625,-0.0255322580028077,0.0108039119102335,0.00397556687527029
1492637254.3,40.4446561419531,-79.9436956292105,2.65000009536743,0.0351409912109375,-0.962509155273438,0.201690673828125,-0.0179513036437881,-0.00733168248098814,-0.01509186758137
1492637254.5,40.4446561419531,-79.9436956292105,2.65000009536743,0.050506591796875,-0.965072631835938,0.183517456054688,-0.0213652098451607,-0.0190088449126586,-0.00550075923155867
1492637254.7,40.4446561419531,-79.9436956292105,2.65000009536743,0.0295562744140625,-0.9754638671875,0.181838989257812,-0.00755032800648365,-0.00314119850574846,0.00526187368177856
1492637254.9,40.4446561419531,-79.9436956292105,2.65000009536743,0.0224761962890625,-0.976303100585938,0.170516967773438,0.00791864318524161,-0.0447245947145727,0.0193883453679949
1492637255.1,40.4446561419531,-79.9436956292105,2.65000009536743,0.0503082275390625,-0.956817626953125,0.183181762695312,-0.0254603526533755,0.00867498093482411,-0.00241548710870187
1492637255.3,40.4446562881806,-79.9436671885139,2.27999997138977,0.0488433837890625,-0.9783935546875,0.191436767578125,-0.0233548574955589,0.00547013287902276,-0.00238565970449298
1492637255.5,40.4446562881806,-79.9436671885139,2.27999997138977,0.0261688232421875,-0.95904541015625,0.160598754882812,-0.0107099023237537,-0.018014420561623,-0.0053942327879555
1492637255.7,40.4446562881806,-79.9436671885139,2.27999997138977,0.04937744140625,-0.959442138671875,0.167709350585938,-0.0267408005054856,-0.00833516157973,0.00401258481442239
1492637255.9,40.4446562881806,-79.9436671885139,2.27999997138977,0.0644073486328125,-0.974822998046875,0.197463989257812,-0.038887744553446,0.0268422669430177,-0.0228579116361501
1492637256.1,40.4446564133711,-79.9436428394302,1.42999994754791,-0.0009002685546875,-0.98321533203125,0.18731689453125,-0.0357161860112707,0.0491619537228627,-0.00902225714097044
1492637256.3,40.4446564133711,-79.9436428394302,1.42999994754791,0.03045654296875,-0.99176025390625,0.206787109375,-0.00750771742904238,-0.016971526678748,-0.0053641390676376
1492637256.5,40.4446564133711,-79.9436428394302,1.42999994754791,0.020751953125,-0.986480712890625,0.191192626953125,-0.00105940548163352,-0.00318460803151675,-0.00213505624591653
1492637256.7,40.4446564133711,-79.9436428394302,1.42999994754791,0.02545166015625,-0.954574584960938,0.174560546875,0.0100987068535805,-0.0341012451262466,0.0215156784467502
1492637256.9,40.4446564133711,-79.9436428394302,1.42999994754791,0.0383453369140625,-0.955703735351562,0.215850830078125,-0.0102638228411654,0.0277213764188528,-0.0129711924053399
1492637257.1,40.4446564994087,-79.9436261054251,1.02999997138977,0.019134521484375,-0.98291015625,0.214065551757812,0.00184983169316904,-0.0255402474860779,0.00648213409325287
1492637257.3,40.4446564994087,-79.9436261054251,1.02999997138977,0.054656982421875,-0.983078002929688,0.213485717773438,0.0116814234894146,-0.00220323316982255,0.00119149827170145
1492637257.5,40.4446564994087,-79.9436261054251,1.02999997138977,0.0120697021484375,-1.00569152832031,0.221603393554688,0.0128886344115475,0.00310631109546842,-0.00627334226379065
1492637257.7,40.4446564994087,-79.9436261054251,1.02999997138977,0.0002899169921875,-0.971817016601562,0.232513427734375,0.00266555793506031,-0.0372445741608672,0.018249045053659
1492637257.9,40.4446564994087,-79.9436261054251,1.02999997138977,0.0045166015625,-0.956497192382812,0.25,-0.0114697021827533,0.012837501718618,-0.0108127003418307
1492637258.1,40.4446565336018,-79.9436194549967,0.46000000834465,0.0226593017578125,-0.954437255859375,0.230743408203125,-0.00554736455063505,-0.0180461121785949,0.00638705924233704
1492637258.3,40.4446565336018,-79.9436194549967,0.46000000834465,0.050628662109375,-0.956878662109375,0.239944458007812,-0.0151139718184177,-0.0158564611303318,0.00628346227593295
1492637258.5,40.4446565336018,-79.9436194549967,0.46000000834465,0.03839111328125,-0.953659057617188,0.234710693359375,-0.0202498779806355,-0.00837857110549829,-0.0033843451132727
1492637258.7,40.4446565336018,-79.9436194549967,0.46000000834465,0.0280914306640625,-0.946319580078125,0.23187255859375,-0.0191345461161103,-0.00945022712814618,-0.00763501652914817
1492637258.9,40.4446565336018,-79.9436194549967,0.46000000834465,0.0351409912109375,-0.967239379882812,0.267791748046875,-0.00112997925052062,-0.0106300074910513,-0.00105035073392725
1492637259.1,40.4446564697513,-79.9436104551262,0.540000021457672,0.0452728271484375,-0.971893310546875,0.251663208007812,-0.0041643849965569,-0.00103783387680388,-0.00750345637129825
1492637259.3,40.4446564697513,-79.9436104551262,0.540000021457672,0.0465850830078125,-0.968124389648438,0.266708374023438,-0.00215875837961823,1.43810698864279e-05,0.00211028884777879
1492637259.5,40.4446564697513,-79.9436104551262,0.540000021457672,0.0361785888671875,-0.948348999023438,0.231475830078125,-0.0267794163412918,-0.0115258948817539,0.00508663768205134
1492637259.7,40.4446564697513,-79.9436104551262,0.540000021457672,0.045440673828125,-0.972061157226562,0.250701904296875,-0.0116894129726848,0.00113956663044491,-0.00118883511061137
1492637259.9,40.4446564697513,-79.9436104551262,0.540000021457672,0.048492431640625,-0.949569702148438,0.229766845703125,-0.0160561982120877,-0.00734126986091243,0.00198698448930812
1492637260.1,40.4446564318856,-79.9436058035405,0.600000023841858,0.0442047119140625,-0.94537353515625,0.23895263671875,-0.0108497182809828,-0.0190756902560196,0.00420300083236305
1492637260.3,40.4446564318856,-79.9436058035405,0.600000023841858,0.051025390625,-0.949188232421875,0.237640380859375,-0.00879482318387768,-0.0212158065080072,0.00849441861291674
1492637260.5,40.4446564318856,-79.9436058035405,0.600000023841858,0.0464630126953125,-0.950729370117188,0.23223876953125,-0.00954530197906201,0.00112545187666749,-0.00223306057403144
1492637260.7,40.4446564318856,-79.9436058035405,0.600000023841858,0.0374908447265625,-0.951095581054688,0.246475219726562,-0.0160335613428221,-0.00627786963764379,0.000918257943859321
1492637260.9,40.4446564318856,-79.9436058035405,0.600000023841858,0.0308380126953125,-0.959442138671875,0.247573852539062,-0.0138827924464741,-0.00735591724690786,-0.00118936774282939
1492637261.1,40.4446564381225,-79.9436065697107,0.540000021457672,0.0445556640625,-0.952346801757812,0.241790771484375,-0.01485564519268,-0.000967792740134795,-0.00441445582291535
1492637261.3,40.4446564381225,-79.9436065697107,0.540000021457672,0.03009033203125,-0.948348999023438,0.234664916992188,-0.0127954237733947,-0.00629944124247343,-0.00224717532780886
1492637261.5,40.4446564381225,-79.9436065697107,0.540000021457672,0.04180908203125,-0.960311889648438,0.2489013671875,-0.0117067235197703,-0.00311536584317469,-0.00224424585060977
1492637261.7,40.4446564381225,-79.9436065697107,0.540000021457672,0.044036865234375,-0.953445434570312,0.222930908203125,-0.0180724774733867,-0.00201042030690082,-0.00337848615887452
1492637261.9,40.4446564381225,-79.9436065697107,0.540000021457672,0.04547119140625,-0.94793701171875,0.230484008789062,-0.0159736402182953,-0.00415133550721552,-0.00228525853139699
1492637262.1,40.4446564402949,-79.9436068365722,0.0,0.04656982421875,-0.963150024414062,0.226364135742188,-0.0180724774733867,-0.00201042030690082,-0.00337848615887452
1492637262.3,40.4446564402949,-79.9436068365722,0.0,0.039947509765625,-0.9564208984375,0.241729736328125,-0.0106792759712177,-0.00418542396916853,-9.85369603329318e-05
1492637262.5,40.4446564402949,-79.9436068365722,0.0,0.0408477783203125,-0.941864013671875,0.232452392578125,-0.0149275505421121,0.00116113823527455,0.00197659816105681
1492637262.7,40.4446564402949,-79.9436068365722,0.0,0.049102783203125,-0.947036743164062,0.221176147460938,-0.0159496717684846,-0.000960335889082573,-0.00229324801466723
1492637262.9,40.4446564402949,-79.9436068365722,0.0,0.0481109619140625,-0.954391479492188,0.235671997070312,-0.0202831674942615,-0.00305890682806501,0.0019326560030705
1492637263.1,40.4446564251137,-79.9436049716535,0.0,0.0414581298828125,-0.958877563476562,0.249465942382812,-0.0127781132263092,-0.00204450876885383,-0.00119176458781046
1492637263.3,40.4446564251137,-79.9436049716535,0.0,0.0366668701171875,-0.950790405273438,0.243515014648438,-0.0107019128404834,-0.00524882419243717,0.000970189585115866
1492637263.5,40.4446564251137,-79.9436049716535,0.0,0.0588836669921875,-0.947952270507812,0.227005004882812,-0.00548744342610827,0.00748428161144968,0.0159177138354036
1492637263.7,40.4446564251137,-79.9436049716535,0.0,0.0465087890625,-0.948959350585938,0.251556396484375,-0.013914750379555,9.13464253897179e-05,0.00518837043569237
1492637263.9,40.4446564251137,-79.9436049716535,0.0,0.047210693359375,-0.957168579101562,0.246688842773438,-0.0148769504814006,9.64064314608684e-05,-0.00228499221528799
1492637264.1,40.4446564457593,-79.9436075078411,0.0,0.0399627685546875,-0.947036743164062,0.251998901367188,-0.013881460865929,-0.00522831785204356,-0.000128630680650827
1492637264.3,40.4446564457593,-79.9436075078411,0.0,0.0482635498046875,-0.95379638671875,0.24859619140625,-0.0180724774733867,-0.00201042030690082,-0.00337848615887452
1492637264.5,40.4446564457593,-79.9436075078411,0.0,0.0399932861328125,-0.954147338867188,0.253585815429688,-0.0160402192455473,-0.00521393678215713,0.00198165816712796
1492637264.7,40.4446564457593,-79.9436075078411,0.0,0.0481109619140625,-0.948654174804688,0.25030517578125,-0.0149155663172068,-0.00309432687056307,-0.00121093934765903
1492637264.9,40.4446564457593,-79.9436075078411,0.0,0.0404510498046875,-0.946609497070312,0.249176025390625,-0.0138654818993885,-0.00310098477328826,-0.000133957002830986
1492637265.1,40.4446564310786,-79.9436057043989,0.0,0.034912109375,-0.950393676757812,0.253753662109375,-0.0192503936235288,-0.00732049720440981,0.00195422760790014
1492637265.3,40.4446564310786,-79.9436057043989,0.0,0.047119140625,-0.952606201171875,0.248214721679688,-0.012739497390503,0.0011462245331701,-0.00226581745543942
1492637265.5,40.4446564310786,-79.9436057043989,0.0,0.04107666015625,-0.947891235351562,0.2384033203125,-0.0181403880811837,-0.00520062097670674,-0.000172306522528127
1492637265.7,40.4446564310786,-79.9436057043989,0.0,0.0394287109375,-0.945114135742188,0.243850708007812,-0.0203151254273424,-0.0073135729855756,0.00194330864743082
1492637265.9,40.4446564310786,-79.9436057043989,0.0,0.0477447509765625,-0.952896118164062,0.243087768554688,-0.0159723086377502,-0.00202373611235121,-0.00122452146921843
1492637266.1,40.4446564658672,-79.9436099779864,0.0,0.0489501953125,-0.954025268554688,0.242828369140625,-0.0148689609981304,0.00116007297083852,-0.00228765537637807
1492637266.3,40.4446564658672,-79.9436099779864,0.0,0.04364013671875,-0.945327758789062,0.2501220703125,-0.0202618622055409,-0.00412310599966068,-0.000196807604556856
1492637266.5,40.4446564658672,-79.9436099779864,0.0,0.0392303466796875,-0.951507568359375,0.24676513671875,-0.0160029349902861,-0.0041508028749975,-0.000153131762679556
1492637266.7,40.4446564658672,-79.9436099779864,0.0,0.0441436767578125,-0.954132080078125,0.251998901367188,-0.00854981236359039,-0.00419927240683694,-7.66990393942821e-05
1492637266.9,40.4446564658672,-79.9436099779864,0.0,0.04144287109375,-0.953140258789062,0.250686645507812,-0.0117440077750314,-0.00417849975033432,-0.000109455920802257
1492637267.1,40.4446564809082,-79.9436118256777,0.0,0.038909912109375,-0.950363159179688,0.244583129882812,-0.016064187695358,-0.00840493640029008,0.0019896476503982
1492637267.3,40.4446564809082,-79.9436118256777,0.0,0.0352325439453125,-0.954086303710938,0.24847412109375,-0.0149768190222786,-0.00734846039585564,0.000931840065418725
1492637267.5,40.4446564809082,-79.9436118256777,0.0,0.0468902587890625,-0.950607299804688,0.251312255859375,-0.0160109244735564,-0.00521446941437515,-0.000150468601589477
1492637267.7,40.4446564809082,-79.9436118256777,0.0,0.03704833984375,-0.953125,0.245162963867188,-0.0139054293157397,-0.0084193174701765,-0.000120641197380589
1492637267.9,40.4446564809082,-79.9436118256777,0.0,0.039794921875,-0.952301025390625,0.247207641601562,-0.0128633343811917,-0.00948964191227935,0.000959004308537534
1492637268.1,40.4446564385577,-79.9436066231692,0.0,0.0389404296875,-0.95526123046875,0.245635986328125,-0.0107099023237537,-0.00631249073181482,0.000972852746205946
1492637268.3,40.4446564385577,-79.9436066231692,0.0,0.0428466796875,-0.950531005859375,0.244232177734375,-0.0160109244735564,-0.00521446941437515,-0.000150468601589477
1492637268.5,40.4446564385577,-79.9436066231692,0.0,0.043487548828125,-0.949249267578125,0.249755859375,-0.0139347240877306,-0.00841878483795849,0.00201148557133685
1492637268.7,40.4446564385577,-79.9436066231692,0.0,0.0377960205078125,-0.952774047851562,0.246932983398438,-0.0192437357208036,-0.00838443005989647,0.000890827384631505
1492637268.9,40.4446564385577,-79.9436066231692,0.0,0.0446014404296875,-0.957412719726562,0.245208740234375,-0.0117733025470223,-0.00417796711811631,0.00202267084791518
1492637269.1,40.4446564368761,-79.9436064165956,0.0,0.0382537841796875,-0.94659423828125,0.245742797851562,-0.018116419631373,-0.00200962135857379,-0.000180296005798364
1492637269.3,40.4446564368761,-79.9436064165956,0.0,0.04779052734375,-0.9527587890625,0.247283935546875,-0.0128313764481108,-0.00523497575476876,0.000948351664177217
1492637269.5,40.4446564368761,-79.9436064165956,0.0,0.0381011962890625,-0.954757690429688,0.247970581054688,-0.0191971304017272,-0.00413003021849488,-0.000185888644087531
1492637269.7,40.4446564368761,-79.9436064165956,0.0,0.04913330078125,-0.950790405273438,0.248367309570312,-0.0117360182917612,-0.00311483321095668,-0.000112119081892336
1492637269.9,40.4446564368761,-79.9436064165956,0.0,0.0391998291015625,-0.94854736328125,0.249664306640625,-0.01502209276081,-0.00947526084239292,0.00306929315631632
1492637270.1,40.4446564096076,-79.9436030668153,0.0,0.0451202392578125,-0.956207275390625,0.24444580078125,-0.0139573609569963,-0.00948218506122713,0.00308021211678565
1492637270.3,40.4446564096076,-79.9436030668153,0.0,0.0413055419921875,-0.952865600585938,0.25311279296875,-0.0181869934002601,-0.00945502081810832,0.000904409506190909
1492637270.5,40.4446564096076,-79.9436030668153,0.0,0.042236328125,-0.9527587890625,0.249130249023438,-0.0116920761337749,-0.0031156321592837,-0.00331030923496849
1492637270.7,40.4446564096076,-79.9436030668153,0.0,0.03814697265625,-0.948272705078125,0.25140380859375,-0.0149009189312114,-0.00309459318667207,-0.00227700273201775
1492637270.9,40.4446564096076,-79.9436030668153,0.0,0.043243408203125,-0.950393676757812,0.245285034179688,-0.0117440077750314,-0.00417849975033432,-0.000109455920802257
1492637271.1,40.444656442015,-79.9436070478757,0.0,0.0359344482421875,-0.952789306640625,0.249969482421875,-0.0170450299248341,-0.00308047843289465,-0.00123277726859768
1492637271.3,40.444656442015,-79.9436070478757,0.0,0.0487060546875,-0.9559326171875,0.24749755859375,-0.0128167290621153,-0.00523524207087777,-0.000117711720181502
1492637271.5,40.444656442015,-79.9436070478757,0.0,0.043670654296875,-0.94903564453125,0.243515014648438,-0.0160348929233671,-0.00840546903250809,-0.000142479118319239
1492637271.7,40.444656442015,-79.9436070478757,0.0,0.04583740234375,-0.953521728515625,0.251495361328125,-0.0107032444210285,-0.00737642358730147,-9.05474770626941e-05
1492637271.9,40.444656442015,-79.9436070478757,0.0,0.0378570556640625,-0.950515747070312,0.248199462890625,-0.0181563670477242,-0.00732795405546203,-0.000166980200347968
1492637272.1,40.444656442015,-79.9436070478757,0.0,0.0414886474609375,-0.95184326171875,0.24755859375,-0.0149541821530129,-0.006285060172587,-0.000136886480030073
1492637272.3,40.4446564445359,-79.943607357551,0.0,0.03961181640625,-0.946136474609375,0.251129150390625,-0.0160109244735564,-0.00521446941437515,-0.000150468601589477
1492637272.5,40.4446564445359,-79.943607357551,0.0,0.04522705078125,-0.951339721679688,0.248016357421875,-0.0127861027095794,-0.00310817530823148,-0.00118910142672038
1492637272.7,40.4446564445359,-79.943607357551,0.0,0.0391998291015625,-0.94598388671875,0.252365112304688,-0.0117519972583017,-0.00524216628971197,-0.000106792759712177
1492637272.9,40.4446564445359,-79.943607357551,0.0,0.04766845703125,-0.952056884765625,0.243865966796875,-0.0127341710683229,-0.00204530771718085,-0.00438995474088662
1492637273.1,40.4446564316273,-79.9436057718018,0.0,0.04095458984375,-0.952911376953125,0.2554931640625,-0.013881460865929,-0.00522831785204356,-0.000128630680650827
1492637273.3,40.4446564316273,-79.9436057718018,0.0,0.0463409423828125,-0.950149536132812,0.257476806640625,-0.00854981236359039,-0.00419927240683694,-7.66990393942821e-05
1492637273.5,40.4446564316273,-79.9436057718018,0.0,0.03814697265625,-0.941421508789062,0.27252197265625,-0.01391341879901,-0.00948298400955415,-0.00011797803629051
1492637273.7,40.4446564316273,-79.9436057718018,0.0,0.038238525390625,-0.958511352539062,0.25445556640625,-0.00959057571759335,-0.00100134856986979,-9.56074831338447e-05
1492637273.9,40.4446564316273,-79.9436057718018,0.0,0.0475616455078125,-0.950820922851562,0.25799560546875,-0.0127794448068542,-0.00417210816371813,-0.00225250164998902
1492637274.1,40.4446564157874,-79.9436038259618,0.0,0.0423126220703125,-0.95147705078125,0.25250244140625,-0.0170596773108296,-0.00308021211678565,-0.00016671388423896
1492637274.3,40.4446564157874,-79.9436038259618,0.0,0.041839599609375,-0.946304321289062,0.260772705078125,-0.0139360556682756,-0.0105463842328228,0.000950748509158288
1492637274.5,40.4446564157874,-79.9436038259618,0.0,0.03997802734375,-0.945159912109375,0.261383056640625,-0.019122561891205,-0.00200376240417562,-0.00445546850370257
1492637274.7,40.4446564157874,-79.9436038259618,0.0,0.0449371337890625,-0.953598022460938,0.261993408203125,-0.0128180606426604,-0.00736284146574207,-0.00117844878236006
1492637274.9,40.4446564157874,-79.9436038259618,0.0,0.0438995361328125,-0.951461791992188,0.247238159179688,-0.0191531882437409,-0.00413082916682191,-0.00338407879716369
1492637275.1,40.4446564610178,-79.9436093822655,0.0,0.0471343994140625,-0.953720092773438,0.263534545898438,-0.0149741558611885,-0.00309326160612704,0.00305331418977585
1492637275.3,40.4446564610178,-79.9436093822655,0.0,0.0329437255859375,-0.947921752929688,0.255157470703125,-0.0150593770160711,-0.0105383947495526,0.00520408308612384
1492637275.5,40.4446564610178,-79.9436093822655,0.0,0.0430908203125,-0.955780029296875,0.242950439453125,-0.0117906130941078,-0.00843289959173591,0.000967260107916779
1492637275.7,40.4446564610178,-79.9436093822655,0.0,0.0446319580078125,-0.941146850585938,0.238357543945312,-0.0160615245342679,-0.00414973761056147,0.00411112177475532
1492637275.9,40.4446564610178,-79.9436093822655,0.0,0.0439605712890625,-0.948562622070312,0.233596801757812,-0.0202818359137165,-0.00093130743320071,0.00299339306524906
1492637276.1,40.4446563006992,-79.9435896880446,0.340000003576279,0.0434722900390625,-0.961898803710938,0.245330810546875,-0.0201926200171988,0.00119469406500955,-0.00234225017872469
1492637276.3,40.4446563006992,-79.9435896880446,0.340000003576279,0.0490264892578125,-0.952468872070312,0.2447509765625,-0.0169611403504967,0.00223705531566656,-0.00444428322712423
1492637276.5,40.4446563006992,-79.9435896880446,0.340000003576279,0.0489044189453125,-0.954360961914062,0.24212646484375,-0.014991466408274,-0.00734819407974663,0.00199790344977744
1492637276.7,40.4446563006992,-79.9435896880446,0.340000003576279,0.045654296875,-0.952682495117188,0.2369384765625,-0.0118505342186346,-0.0105594337221642,0.0041707765831731
1492637276.9,40.4446563006992,-79.9435896880446,0.340000003576279,0.044708251953125,-0.953033447265625,0.242538452148438,-0.013881460865929,-0.00522831785204356,-0.000128630680650827
1492637277.1,40.4446563006938,-79.9435896873728,0.0,0.0452117919921875,-0.9532470703125,0.23492431640625,-0.0159896191848357,-0.00627866858597081,-0.00227993220921684
1492637277.3,40.4446563006938,-79.9435896873728,0.0,0.0397491455078125,-0.95172119140625,0.2525634765625,-0.0161187824977046,-0.0137230027810693,0.00306902684020731
1492637277.5,40.4446563006938,-79.9435896873728,0.0,0.0420379638671875,-0.952392578125,0.246673583984375,-0.0159723086377502,-0.00202373611235121,-0.00122452146921843
1492637277.7,40.4446563006938,-79.9435896873728,0.0,0.04071044921875,-0.94647216796875,0.249099731445312,-0.0118438763159094,-0.0116233665776508,0.00310737635990445
1492637277.9,40.4446563006938,-79.9435896873728,0.0,0.0361480712890625,-0.951629638671875,0.25689697265625,-0.0171382405629869,-0.0115892781156978,0.000920654788840393
1492637278.1,40.4446562992748,-79.9435895130673,0.0,0.050048828125,-0.955764770507812,0.254119873046875,-0.0138508345133931,-0.00310125108939727,-0.0012000203871897
1492637278.3,40.4446562992748,-79.9435895130673,0.0,0.04754638671875,-0.954620361328125,0.2470703125,-0.0160335613428221,-0.00627786963764379,0.000918257943859321
1492637278.5,40.4446562992748,-79.9435895130673,0.0,0.0355682373046875,-0.952835083007812,0.241531372070312,-0.0149075768339366,-0.00203066033118542,-0.00121360250874911
1492637278.7,40.4446562992748,-79.9435895130673,0.0,0.046539306640625,-0.953277587890625,0.25341796875,-0.0137882502277762,0.00328048183075961,-0.0022820627380889
1492637278.9,40.4446562992748,-79.9435895130673,0.0,0.0534515380859375,-0.950363159179688,0.245697021484375,-0.018115088050828,0.00011797803629051,0.000880441056380196
1492637279.1,40.4446562977945,-79.9435893312188,0.0,0.046905517578125,-0.950454711914062,0.245086669921875,-0.0182628934913274,-0.0137088880272919,0.00411325230362738
1492637279.3,40.4446562977945,-79.9435893312188,0.0,0.030731201171875,-0.950592041015625,0.250518798828125,-0.0171528879489824,-0.0115890117995888,0.00198671817319911
1492637279.5,40.4446562977945,-79.9435893312188,0.0,0.0390625,-0.9498291015625,0.248489379882812,-0.0138588239966633,-0.00416491762877492,-0.00119735722609963
1492637279.7,40.4446562977945,-79.9435893312188,0.0,0.045806884765625,-0.951339721679688,0.244308471679688,-0.0212959676568186,-0.00198911501818018,-0.00127911627156506
1492637279.9,40.4446562977945,-79.9435893312188,0.0,0.0437774658203125,-0.951370239257812,0.248199462890625,-0.0170530194081044,-0.0041441449722723,-0.0012301141075076
1492637280.1,40.4446562941052,-79.943588878009,0.0,0.0319976806640625,-0.95465087890625,0.256942749023438,-0.00861239664920725,-0.0105810053269938,0.00100534331150491
1492637280.3,40.4446562941052,-79.943588878009,0.0,0.0436859130859375,-0.951828002929688,0.250778198242188,-0.0172421038455,-0.0137150132977991,0.00732236141717287
1492637280.5,40.4446562941052,-79.943588878009,0.0,0.0405426025390625,-0.950424194335938,0.2412109375,-0.0181230775340982,-0.000945688503087137,0.000883104217470275
1492637280.7,40.4446562941052,-79.943588878009,0.0,0.037689208984375,-0.952682495117188,0.249847412109375,-0.0201619936646629,0.00332176082765583,-0.00341363988526357
1492637280.9,40.4446562941052,-79.943588878009,0.0,0.0555572509765625,-0.957656860351562,0.2457275390625,-0.0169984246057578,0.00117392140850693,-0.00230949329731672
1492637281.1,40.4446563333634,-79.9435937006534,0.0,0.048919677734375,-0.95355224609375,0.254150390625,-0.021342572975895,-0.00624351485958177,-0.000202400242846022
1492637281.3,40.4446563333634,-79.9435937006534,0.0,0.042236328125,-0.951187133789062,0.24090576171875,-0.021309283462269,0.000138750692793128,0.000847684174972222
1492637281.5,40.4446563333634,-79.9435937006534,0.0,0.0440826416015625,-0.947357177734375,0.268768310546875,-0.0181257406951883,-0.00520088729281574,-0.00123836990688685
1492637281.7,40.4446563333634,-79.9435937006534,0.0,0.058990478515625,-0.934005737304688,0.345260620117188,-0.0149475242502877,-0.00734899302807366,-0.00120028670329871
1492637281.9,40.4446563333634,-79.9435937006534,0.0,0.028656005859375,-0.935623168945312,0.36883544921875,0.00196301603949741,-0.0202232463697347,0.00113850136600887
1492637282.1,40.4446562742846,-79.9435864431552,0.25,0.0546875,-0.910614013671875,0.388229370117188,-0.0052970274081676,-0.00422111032777559,-0.00430819569542118
1492637282.3,40.4446562742846,-79.9435864431552,0.25,0.0733489990234375,-0.871078491210938,0.345230102539062,-0.0494517056494634,-0.0315872210572118,0.0166346368008529
1492637282.5,40.4446562742846,-79.9435864431552,0.25,-0.00372314453125,-0.9166259765625,0.537551879882812,-0.00992080769276318,-0.0254630158144656,0.0106262790655252
1492637282.7,40.4446562742846,-79.9435864431552,0.25,0.047393798828125,-0.880828857421875,0.386962890625,-0.0266222898369771,-0.0179116225435459,-0.00982227073243025
1492637282.9,40.4446562742846,-79.9435864431552,0.25,0.0874786376953125,-0.958328247070312,0.311050415039062,-0.0548467373857459,0.0226906651196931,-0.0262092335519058
1492637283.1,40.4446561526718,-79.9435715037266,1.9099999666214,0.032012939453125,-0.946807861328125,0.265380859375,-0.00233452701156346,-0.0116843529666137,0.00853596392592198
1492637283.3,40.4446561526718,-79.9435715037266,1.9099999666214,0.0464630126953125,-0.93902587890625,0.360931396484375,0.027895547154144,-0.0629363555129706,0.0281695864303131
1492637283.5,40.4446561526718,-79.9435715037266,1.9099999666214,0.03802490234375,-0.915725708007812,0.415557861328125,-0.0283248487218648,-0.0306588431012102,0.029643113461454
1492637283.7,40.4446561526718,-79.9435715037266,1.9099999666214,0.0591888427734375,-0.875518798828125,0.407516479492188,-0.0521931636755909,-0.0102984439353364,-0.004772650989531
1492637283.9,40.4446561526718,-79.9435715037266,1.9099999666214,0.113449096679688,-0.940933227539062,0.324005126953125,-0.111384049431474,0.0166767147460762,-0.0225077059528047
1492637284.1,40.4446558688991,-79.9435366438762,2.64000010490417,0.0300140380859375,-0.912612915039062,0.354904174804688,0.0427570513012222,0.0103580987437542,-0.00598625349828011
1492637284.3,40.4446558688991,-79.9435366438762,2.64000010490417,0.06243896484375,-0.914794921875,0.406158447265625,-0.0702017252828157,0.00790239790259212,-0.00180535690296472
1492637284.5,40.4446558688991,-79.9435366438762,2.64000010490417,0.0285491943359375,-0.928314208984375,0.340957641601562,-0.050549726966903,-0.0379625623907525,0.0155736334225654
1492637284.7,40.4446558688991,-79.9435366438762,2.64000010490417,0.046295166015625,-0.947006225585938,0.36480712890625,-0.0429740989300636,-0.0295027648720068,0.0113645073196951
1492637284.9,40.4446558688991,-79.9435366438762,2.64000010490417,0.0058746337890625,-0.910781860351562,0.318359375,-0.00756497539247908,-0.0148428620194476,-3.91484680241648e-05
1492637285.1,40.4446558688991,-79.9435366438762,2.64000010490417,0.0155029296875,-0.921859741210938,0.421890258789062,-0.0482604736938709,-0.0284050098706761,0.00917512258754099
1492637285.3,40.4446554802924,-79.9434889057699,3.91000008583069,0.0122528076171875,-0.898056030273438,0.437942504882812,0.0178700772305407,-0.0171345121374608,0.00769067659593082
1492637285.5,40.4446554802924,-79.9434889057699,3.91000008583069,0.0291748046875,-0.950775146484375,0.354705810546875,0.00155821555380536,-0.0468111814286498,0.0161299677742829
1492637285.7,40.4446554802924,-79.9434889057699,3.91000008583069,0.104690551757812,-0.93389892578125,0.398086547851562,-0.0364413647760993,0.0534179514609184,-0.0314311598173332
1492637285.9,40.4446554802924,-79.9434889057699,3.91000008583069,0.02581787109375,-0.918624877929688,0.397247314453125,-0.045036983510439,-0.040128244989205,0.000708667166070085
1492637286.1,40.4446550163509,-79.943431913229,5.1399998664856,0.0600738525390625,-0.92059326171875,0.333953857421875,-0.0687047624340822,-0.0314609872215421,0.0228344758185574
1492637286.3,40.4446550163509,-79.943431913229,5.1399998664856,0.026458740234375,-0.912643432617188,0.316192626953125,-0.037811561156945,-0.0412363863187869,0.0167787138158262
1492637286.5,40.4446550163509,-79.943431913229,5.1399998664856,0.0330963134765625,-0.94854736328125,0.321197509765625,-0.00271003272526463,-0.0265708908279386,0.02776238909964
1492637286.7,40.4446550163509,-79.943431913229,5.1399998664856,0.020172119140625,-0.919998168945312,0.28277587890625,-0.055219579938357,0.023761255877905,0.0015057512803308
1492637286.9,40.4446550163509,-79.943431913229,5.1399998664856,0.0529022216796875,-0.912261962890625,0.346176147460938,-0.0151153033989627,-0.0179840605251961,0.00522272521375439
1492637287.1,40.4446550163509,-79.943431913229,5.1399998664856,0.03338623046875,-0.91455078125,0.283889770507812,-0.0182362618804266,-0.0296665492790467,-0.00650743412360862
1492637287.3,40.4446542202266,-79.943359126748,5.98000001907349,0.016998291015625,-0.919906616210938,0.283050537109375,0.0188961931985482,-0.00863023982851078,0.0151427339581905
1492637287.5,40.4446542202266,-79.943359126748,5.98000001907349,0.0525665283203125,-0.91827392578125,0.30029296875,-0.0638506187151948,-0.00490421114738092,-0.00597213874450269
1492637287.7,40.4446542202266,-79.943359126748,5.98000001907349,0.068756103515625,-0.941177368164062,0.294845581054688,-0.0253804578206732,0.0193116463286006,-0.00244211871960266
1492637287.9,40.4446542202266,-79.943359126748,5.98000001907349,0.039031982421875,-0.925369262695312,0.30535888671875,-0.0457107632662291,-0.0635198541078069,0.0370134117782483
1492637288.1,40.4446542202266,-79.943359126748,5.98000001907349,0.0760498046875,-0.925811767578125,0.367965698242188,-0.0328895068302606,0.000212520254988323,-0.00886699484941882
1492637288.3,40.4446521677978,-79.9432934940952,5.30000019073486,0.036041259765625,-0.921890258789062,0.313995361328125,-0.0390968026990173,0.032165127013759,-0.00474814990750227
1492637288.5,40.4446521677978,-79.9432934940952,5.30000019073486,-0.062530517578125,-0.957077026367188,0.38916015625,0.063050338807626,-0.0333784632063991,0.0433802309963007
1492637288.7,40.4446521677978,-79.9432934940952,5.30000019073486,0.01763916015625,-0.951004028320312,0.30877685546875,0.000335558297349984,0.032972064824053,-0.00647893829994477
1492637288.9,40.4446521677978,-79.9432934940952,5.30000019073486,0.02685546875,-1.01020812988281,0.306228637695312,0.0205787783752603,-0.0160950803640029,-0.0338666206342106
1492637289.1,40.4446521677978,-79.9432934940952,5.30000019073486,0.0756988525390625,-0.919769287109375,0.3375244140625,-0.0354357551484853,-0.0221061012604207,0.00929017114663241
1492637289.3,40.4446480161904,-79.9432000394322,7.46999979019165,0.0021514892578125,-0.937881469726562,0.305892944335938,0.0053910369946474,-0.072362614191306,0.0332945736320616
1492637289.5,40.4446480161904,-79.9432000394322,7.46999979019165,-0.057281494140625,-0.914077758789062,0.280746459960938,-0.0190852776359439,0.0224632311626004,0.0061439126348128
1492637289.7,40.4446480161904,-79.9432000394322,7.46999979019165,0.015472412109375,-0.993423461914062,0.260635375976562,0.0200794356708704,0.00519023464845543,0.0140529684401301
1492637289.9,40.4446480161904,-79.9432000394322,7.46999979019165,0.0201263427734375,-0.955337524414062,0.277389526367188,0.0128020816761199,0.0286393680466031,0.0139179461728631
1492637290.1,40.4446480161904,-79.9432000394322,7.46999979019165,0.0792236328125,-0.951980590820312,0.26153564453125,0.0252592839910745,-0.0490961736439378,-0.00494575646038615
1492637290.3,40.4446432740246,-79.943102936288,8.35999965667725,0.309188842773438,-1.30233764648438,0.172653198242188,0.0182008418379285,0.106249208533692,-0.0267431973504667
1492637290.5,40.4446432740246,-79.943102936288,8.35999965667725,-0.104049682617188,-1.02357482910156,0.199050903320312,0.0739290855444906,-0.238730287488556,0.147444315855583
1492637290.7,40.4446432740246,-79.943102936288,8.35999965667725,0.0208282470703125,-0.877944946289062,0.181106567382812,-0.0935147711492604,-0.265297183574859,0.151129598172035
1492637290.9,40.4446432740246,-79.943102936288,8.35999965667725,0.120498657226562,-1.00996398925781,0.281463623046875,0.0700683009122028,0.0452657490480768,-0.114550547967578
1492637291.1,40.4446432740246,-79.943102936288,8.35999965667725,-0.01287841796875,-0.962860107421875,0.276748657226562,0.107383448841957,-0.0602699986295832,-0.0200693156587281
1492637291.3,40.4446393635495,-79.9430228632919,8.35999965667725,0.04681396484375,-0.941986083984375,0.23779296875,0.0980072575921151,-0.0229780202013127,-0.0149304800193112
1492637291.5,40.4446393635495,-79.9430228632919,8.35999965667725,0.0098876953125,-0.955108642578125,0.27191162109375,0.00776817458365213,-0.0394027999082674,0.0332338535592078
1492637291.7,40.4446393635495,-79.9430228632919,8.35999965667725,-0.077362060546875,-1.28425598144531,0.540512084960938,0.14185354177918,-0.213637983697829,0.177928988221502
1492637291.9,40.4446393635495,-79.9430228632919,8.35999965667725,0.0014495849609375,-1.04280090332031,0.3642578125,-0.146696500221489,-0.0820136436656442,0.0136367163617507
1492637292.1,40.4446393635495,-79.9430228632919,8.35999965667725,-0.0278472900390625,-1.07176208496094,0.4332275390625,0.140846600571021,-0.268962758499245,0.066108979319582
1492637292.3,40.4446227211789,-79.9428957427116,8.52999973297119,-0.103851318359375,-0.976852416992188,0.415420532226562,-0.0240603288683209,-0.171084930536107,0.107882791546347
1492637292.5,40.4446227211789,-79.9428957427116,8.52999973297119,-0.0576934814453125,-0.98565673828125,0.267654418945312,0.0563197317846687,-0.0769469796917684,0.0444899702225367
1492637292.7,40.4446227211789,-79.9428957427116,8.52999973297119,0.095184326171875,-0.964248657226562,0.312286376953125,0.0537694887248088,-0.0822445397321541,0.0721990961003752
1492637292.9,40.4446227211789,-79.9428957427116,8.52999973297119,0.021697998046875,-0.97088623046875,0.394378662109375,0.030987210863617,-0.0629552639567101,0.0356647870022321
1492637293.1,40.4446227211789,-79.9428957427116,8.52999973297119,0.116378784179688,-0.890869140625,0.355010986328125,0.0271522588939029,-0.0129485555360743,-0.0455357935826108
1492637293.3,40.4446073576329,-79.9427805338075,9.28999996185303,0.2186279296875,-0.625167846679688,0.406082153320312,-0.262809524800616,0.294205530891561,-0.166580726184456
1492637293.5,40.4446073576329,-79.9427805338075,9.28999996185303,-0.073028564453125,-1.01454162597656,0.55694580078125,0.136307775125199,-0.098744953214067,0.0240408877923633
1492637293.7,40.4446073576329,-79.9427805338075,9.28999996185303,0.04058837890625,-0.948333740234375,0.366592407226562,0.0606468359238295,-0.222693264036317,0.115280520422369
1492637293.9,40.4446073576329,-79.9427805338075,9.28999996185303,0.0353546142578125,-0.944549560546875,0.319015502929688,-0.00539822752959062,0.00961028310965994,0.0105820705914299
1492637294.1,40.4446073576329,-79.9427805338075,9.28999996185303,-0.0873260498046875,-0.958847045898438,0.272323608398438,-0.0368379094624121,-0.0976112455380203,0.070244868492475
1492637294.3,40.444592690132,-79.9426705444399,9.75,-0.003021240234375,-0.907073974609375,0.3282470703125,0.0207766512442532,-0.0437453503817506,0.0141863928107431
1492637294.5,40.444592690132,-79.9426705444399,9.75,0.0573272705078125,-0.878875732421875,0.267974853515625,-0.0439802411898956,-0.0177949760878005,0.0134564203559524
1492637294.7,40.444592690132,-79.9426705444399,9.75,-0.044464111328125,-1.02366638183594,0.268478393554688,-0.0316889538108529,-0.0402217219434667,-0.0407367772982881
1492637294.9,40.444592690132,-79.9426705444399,9.75,-0.128250122070312,-0.951568603515625,0.26849365234375,0.113690080619374,-0.101786283178937,0.0408765932555172
1492637295.1,40.444592690132,-79.9426705444399,9.75,0.0655975341796875,-0.934112548828125,0.29510498046875,-0.0468034582614886,-0.0964905873513149,0.0210941000461906
1492637295.3,40.4445778643823,-79.942561766855,10.0,0.0008392333984375,-0.905868530273438,0.276580810546875,-0.049977679964754,-0.0528538939420396,0.0433394846316225
1492637295.5,40.4445778643823,-79.942561766855,10.0,0.00250244140625,-0.95367431640625,0.227859497070312,-0.0132668032863387,-0.0573538372359465,0.00427703671066726
1492637295.7,40.4445778643823,-79.942561766855,10.0,0.0614013671875,-0.916107177734375,0.225936889648438,-0.0526799895228574,0.0237399505891843,-0.0283221855607747
1492637295.9,40.4445778643823,-79.942561766855,10.0,0.0473175048828125,-0.945556640625,0.310760498046875,0.0160402192455473,-0.00648799304765104,-0.0083487437012894
1492637296.1,40.4445778643823,-79.942561766855,10.0,0.0618743896484375,-0.909103393554688,0.243148803710938,-0.0166913621320716,-0.109455654486148,-0.00735192250527274
1492637296.3,40.4445595476195,-79.9424451692074,10.039999961853,0.0405426025390625,-0.899246215820312,0.323776245117188,-0.0216275312125335,-0.00517452199802396,0.0211162042832383
1492637296.5,40.4445595476195,-79.9424451692074,10.039999961853,-0.021575927734375,-1.03912353515625,0.218185424804688,0.00903583926252985,0.00844568276496829,-0.0329819185200863
1492637296.7,40.4445595476195,-79.9424451692074,10.039999961853,0.039764404296875,-0.97906494140625,0.258926391601562,0.033845581661599,0.00615296738251907,-0.0572449139473622
1492637296.9,40.4445595476195,-79.9424451692074,10.039999961853,0.0034027099609375,-0.977584838867188,0.2879638671875,-0.0317312980721851,-0.163598252079677,0.0502093749795909
1492637297.1,40.4445595476195,-79.9424451692074,10.039999961853,-0.02276611328125,-0.990020751953125,0.248794555664062,0.0593759754516436,-0.0120851587106706,0.012367453786219
1492637297.3,40.4445416757891,-79.9423314038333,10.0200004577637,0.0092926025390625,-0.992080688476562,0.341690063476562,0.0486301204531739,-0.0173331839547807,0.016535833524411
1492637297.5,40.4445416757891,-79.9423314038333,10.0200004577637,0.12017822265625,-0.862060546875,0.243026733398438,-0.0667553285161442,0.111054350088522,-0.0414861908290364
1492637297.7,40.4445416757891,-79.9423314038333,10.0200004577637,-0.0010528564453125,-0.770065307617188,0.452743530273438,-0.0691167534547175,0.217428727193448,-0.121750936606826
1492637297.9,40.4445416757891,-79.9423314038333,10.0200004577637,-0.18658447265625,-1.00605773925781,0.27447509765625,-0.0700722956538379,0.263177573663265,-0.104819357344429
1492637298.1,40.4445416757891,-79.9423314038333,10.0200004577637,-0.173080444335938,-0.945846557617188,0.368972778320312,0.127704166907589,-0.158249026714143,0.075284634539341
1492637298.3,40.4445226943076,-79.9422159703248,10.1899995803833,-0.0025787353515625,-0.893875122070312,0.281478881835938,0.0226017155392845,0.0126159267159234,-0.0104632936068123
1492637298.5,40.4445226943076,-79.9422159703248,10.1899995803833,0.0894927978515625,-0.9761962890625,0.316146850585938,-0.00238432812394794,-0.0957121453646848,0.0439373642963453
1492637298.7,40.4445226943076,-79.9422159703248,10.1899995803833,0.113372802734375,-0.964141845703125,0.310745239257812,-0.0271623789060452,0.0363401646546762,-0.0184975179833634
1492637298.9,40.4445226943076,-79.9422159703248,10.1899995803833,-0.00921630859375,-0.904129028320312,0.352218627929688,-0.0709269040476443,0.0238603254704559,-0.017847174045166
1492637299.1,40.4445226943076,-79.9422159703248,10.1899995803833,0.0030059814453125,-0.99578857421875,0.310302734375,0.0103991114245414,-0.10856109867599,0.0366379060645471
1492637299.3,40.444502034589,-79.942094855947,10.7700004577637,0.124801635742188,-0.838607788085938,0.234619140625,-0.0341174904088961,0.0948892285878503,-0.0229846781040379
1492637299.5,40.444502034589,-79.942094855947,10.7700004577637,0.014923095703125,-0.980697631835938,0.20843505859375,-0.0605219336687047,0.0344336076302885,0.00568877840451826
1492637299.7,40.444502034589,-79.942094855947,10.7700004577637,-0.0939788818359375,-0.918136596679688,0.316909790039062,0.0301240803543223,0.0295871870785623,-0.00616521792353344
1492637299.9,40.444502034589,-79.942094855947,10.7700004577637,0.0332489013671875,-0.956878662109375,0.222412109375,-0.0173845829638193,-0.0307334116117324,0.00843103537897285
1492637300.1,40.444502034589,-79.942094855947,10.7700004577637,-0.0658111572265625,-0.9659423828125,0.184524536132812,-0.0122553347043266,-0.0371473687810793,0.0191622429914471
1492637300.3,40.4444844219959,-79.9419953415248,11.1199998855591,-0.0407867431640625,-0.955337524414062,0.290542602539062,-0.0135024930428107,-0.0711791054028748,0.0139062282640668
1492637300.5,40.4444844219959,-79.9419953415248,11.1199998855591,0.0475311279296875,-0.890777587890625,0.258514404296875,-0.0412542294980905,-0.000798682010914764,-0.0206783806000293
1492637300.7,40.4444844219959,-79.9419953415248,11.1199998855591,0.002044677734375,-0.936965942382812,0.169296264648438,-0.0485267898028788,-0.056059274630059,0.0135086183133179
1492637300.9,40.4444844219959,-79.9419953415248,11.1199998855591,-0.012451171875,-0.996383666992188,0.125869750976562,-0.0256920476682124,-0.0338732785369358,-0.00870534097125101
1492637301.1,40.4444844219959,-79.9419953415248,11.1199998855591,0.0731048583984375,-1.02151489257812,0.0647430419921875,0.0590276339810613,0.0208869061133825,-0.0218400514675218
1492637301.3,40.4444588030332,-79.9418499375198,10.6099996566772,0.0806884765625,-0.9874267578125,0.0659332275390625,-0.13891927089013,0.0657893999887725,-0.00692315356976999
1492637301.5,40.4444588030332,-79.9418499375198,10.6099996566772,0.0978546142578125,-0.974868774414062,0.00048828125,-0.0609035646529131,0.0727253367317748,-0.0232017257328793
1492637301.7,40.4444588030332,-79.9418499375198,10.6099996566772,-0.0272216796875,-1.0689697265625,-0.1143798828125,0.00795459585995768,-0.0340871303724692,0.0225599039101702
1492637301.9,40.4444588030332,-79.9418499375198,10.6099996566772,-0.137298583984375,-0.899200439453125,0.058685302734375,-0.0591706457315985,-0.136827357853873,0.0466607128270603
1492637302.1,40.4444391681224,-79.9417384890824,8.82999992370605,-0.009185791015625,-0.953933715820312,0.121124267578125,-0.134120787238026,-0.0757102076815356,0.0318748424549404
1492637302.3,40.4444391681224,-79.9417384890824,8.82999992370605,0.054779052734375,-1.03666687011719,-0.013580322265625,-0.0153203668028988,-0.01798033209967,0.0201476125947765
1492637302.5,40.4444391681224,-79.9417384890824,8.82999992370605,0.0787811279296875,-1.03471374511719,0.0046234130859375,0.0240014730082301,-0.0182351966159906,0.0258819310539351
1492637302.7,40.4444391681224,-79.9417384890824,8.82999992370605,0.0104522705078125,-1.01133728027344,-0.014801025390625,-0.0505031216478266,-0.0454100923791591,0.00812983185968489
1492637302.9,40.4444391681224,-79.9417384890824,8.82999992370605,0.0742950439453125,-0.9879150390625,-0.0533905029296875,-0.0262001788041995,0.0129312449889887,-0.0237583264007059
1492637303.1,40.4444241427161,-79.9416532043537,6.30000019073486,0.004638671875,-1.00743103027344,-0.0325469970703125,-0.023494673452788,0.0278127228442425,0.0199457449841485
1492637303.3,40.4444241427161,-79.9416532043537,6.30000019073486,0.0072021484375,-0.997100830078125,0.03436279296875,-0.0065841331630029,-0.020167319986843,0.00318327645097171
1492637303.5,40.4444241427161,-79.9416532043537,6.30000019073486,0.0029754638671875,-0.99029541015625,0.0607147216796875,-0.0296979745799096,-0.0040634511912429,-0.010955712092368
1492637303.7,40.4444241427161,-79.9416532043537,6.30000019073486,0.0390167236328125,-0.933380126953125,0.167266845703125,0.0113392072893394,-0.0575152247980053,-0.00400033427340802
1492637303.9,40.4444241427161,-79.9416532043537,6.30000019073486,0.0195770263671875,-0.997467041015625,0.199111938476562,0.0506277575868423,-0.0524504250368926,0.00705098530209379
1492637304.1,40.4444135247406,-79.9415929363551,4.3600001335144,-0.0536651611328125,-0.977188110351562,0.26885986328125,0.0228909348336671,-0.130979056100059,0.0453533670479404
1492637304.3,40.4444135247406,-79.9415929363551,4.3600001335144,0.013397216796875,-0.892807006835938,0.384429931640625,-0.0477843004909647,-0.0911661293839195,0.0178716751271947
1492637304.5,40.4444135247406,-79.9415929363551,4.3600001335144,0.0437164306640625,-0.887664794921875,0.29827880859375,-0.031861260333381,-0.062546202413274,0.0371526951032594
1492637304.7,40.4444135247406,-79.9415929363551,4.3600001335144,-0.027679443359375,-0.934326171875,0.330535888671875,0.0415466445857812,-0.0864267679080145,0.0294361858447548
1492637304.9,40.4444135247406,-79.9415929363551,4.3600001335144,-0.075897216796875,-0.919204711914062,0.391952514648438,0.00121413514096712,-0.156365106559021,0.0590577277013792
1492637305.1,40.4444044418336,-79.9415413814585,4.82000017166138,-0.00653076171875,-0.918182373046875,0.371246337890625,-0.0809752771566223,-0.190934002772686,0.0540405985237789
1492637305.3,40.4444044418336,-79.9415413814585,4.82000017166138,-0.0212554931640625,-0.966033935546875,0.27215576171875,-0.029510754355277,-0.118946095346754,-0.00959110834981137
1492637305.5,40.4444044418336,-79.9415413814585,4.82000017166138,0.0628204345703125,-0.913009643554688,0.340057373046875,0.0219106252364089,-0.108646053514764,-0.0261506440079241
1492637305.7,40.4444044418336,-79.9415413814585,4.82000017166138,0.09771728515625,-0.918930053710938,0.333526611328125,-0.0691742777342632,-0.0399753795426344,-0.0251279901493336
1492637305.9,40.4444044418336,-79.9415413814585,4.82000017166138,0.167892456054688,-1.04832458496094,0.39776611328125,-0.0509025958113385,-0.063487629858617,0.0273642465166732
1492637306.1,40.4443930991549,-79.9414770000191,5.51999998092651,0.063018798828125,-0.825515747070312,0.349990844726562,-0.0530768005252792,0.0216195417292633,-0.000599211245267829
1492637306.3,40.4443930991549,-79.9414770000191,5.51999998092651,0.168914794921875,-0.955657958984375,0.35552978515625,-0.0311723005593775,0.0246614043263518,-0.0430313568935003
1492637306.5,40.4443930991549,-79.9414770000191,5.51999998092651,0.203750610351562,-0.890350341796875,0.31121826171875,-0.0505345469486896,0.0843630843793121,0.00352975370879102
1492637306.7,40.4443930991549,-79.9414770000191,5.51999998092651,0.137557983398438,-0.926773071289062,0.351806640625,0.021476263662617,0.0955888410062141,-0.0384105060861038
1492637306.9,40.4443930991549,-79.9414770000191,5.51999998092651,0.154998779296875,-0.924468994140625,0.404815673828125,-0.0125299066127138,0.094745417888986,-0.0440875665818258
1492637307.1,40.444381099429,-79.9414088891575,6.44000005722046,0.19586181640625,-0.948272705078125,0.3775634765625,0.00893250861223477,0.116943930839232,-0.0439251137553309
1492637307.3,40.444381099429,-79.9414088891575,6.44000005722046,0.163787841796875,-0.868438720703125,0.309982299804688,-0.00906726456339278,0.0628178448444621,-0.00345358730161476
1492637307.5,40.444381099429,-79.9414088891575,6.44000005722046,0.126907348632812,-0.939346313476562,0.265609741210938,-0.0547063887962987,0.134375918070455,-0.0531513690358014
1492637307.7,40.444381099429,-79.9414088891575,6.44000005722046,0.12518310546875,-0.87451171875,0.274978637695312,-0.0300409897283118,0.0842267305315,-0.0154519269607487
1492637307.9,40.444381099429,-79.9414088891575,6.44000005722046,0.124862670898438,-0.915237426757812,0.329086303710938,-0.0200176503335806,0.0979859523033944,-0.0399077352509464
1492637308.1,40.4443672005473,-79.941329998621,7.34000015258789,0.216629028320312,-0.977310180664062,0.25543212890625,0.035996883190165,0.139102762689237,-0.0639632704293051
1492637308.3,40.4443672005473,-79.941329998621,7.34000015258789,0.144393920898438,-0.943466186523438,0.342208862304688,0.0602588133530049,0.0761951693160391,-0.00384453934963839
1492637308.5,40.4443672005473,-79.941329998621,7.34000015258789,0.108642578125,-0.994247436523438,0.231903076171875,-0.0394984073914012,0.0970525143413216,-0.0177142823067711
1492637308.7,40.4443672005473,-79.941329998621,7.34000015258789,0.148574829101562,-0.952072143554688,0.312362670898438,-0.0170804499673322,0.0852041106515591,-0.0281163232085116
1492637308.9,40.4443672005473,-79.941329998621,7.34000015258789,0.0928802490234375,-0.945343017578125,0.346511840820312,-0.0105354652723535,0.0149605737396291,-0.000146473859954358
1492637309.1,40.4443672005473,-79.941329998621,7.34000015258789,0.0121917724609375,-0.937774658203125,0.31414794921875,-0.0126329709468999,0.00752715850499996,-0.00654604995941477
1492637309.3,40.4443595996386,-79.9412868555985,8.0600004196167,0.06707763671875,-0.92181396484375,0.322219848632812,0.00356117900965396,-0.0617160951014963,0.0172551533348414
1492637309.5,40.4443595996386,-79.9412868555985,8.0600004196167,0.0434722900390625,-0.918853759765625,0.349273681640625,0.0343060422140737,-0.137432694369648,0.0636125321137417
1492637309.7,40.4443595996386,-79.9412868555985,8.0600004196167,0.1365966796875,-0.930511474609375,0.396377563476562,-0.0550097228444587,-0.0666541283947212,0.0145357995457615
1492637309.9,40.4443595996386,-79.9412868555985,8.0600004196167,0.136123657226562,-0.924285888671875,0.300033569335938,0.00142106275766628,-0.00851146284389325,0.0469499321214429
1492637310.1,40.4443595996386,-79.9412868555985,8.0600004196167,0.07464599609375,-0.908248901367188,0.300262451171875,0.00119069932337443,-0.0372301930909807,0.0480879008552338
1492637310.3,40.4443323758119,-79.9411359091571,9.27000045776367,-0.01422119140625,-0.921051025390625,0.372604370117188,0.00187326751076174,-0.0861655118050777,0.0492873886102055
1492637310.5,40.4443323758119,-79.9411359091571,9.27000045776367,0.05645751953125,-0.907211303710938,0.33660888671875,0.0517438883996946,-0.126912675431617,0.0403072094144583
1492637310.7,40.4443323758119,-79.9411359091571,9.27000045776367,0.084716796875,-0.931884765625,0.340591430664062,0.00648905831208707,-0.0542853430279572,0.0407226625445106
1492637310.9,40.4443323758119,-79.9411359091571,9.27000045776367,-0.0749664306640625,-0.950973510742188,0.355270385742188,-0.0149794821833687,-0.0233055890153924,-0.00755671959309984
1492637311.1,40.4443323758119,-79.9411359091571,9.27000045776367,0.101974487304688,-0.93865966796875,0.284378051757812,-0.0171435668851671,-0.00839774586534686,0.00304479207428759
1492637311.3,40.444313699997,-79.9410323675596,9.81999969482422,0.0931243896484375,-0.98193359375,0.2562255859375,-0.0457256769683335,0.0619853406877033,-0.0486077499000172
1492637311.5,40.444313699997,-79.9410323675596,9.81999969482422,0.0734100341796875,-0.942886352539062,0.225723266601562,-0.0158663148263651,-0.0594590660776541,0.0373084900270291
1492637311.7,40.444313699997,-79.9410323675596,9.81999969482422,0.147811889648438,-0.919326782226562,0.2462158203125,-0.0437152566614327,0.0194336191065262,0.0144292731021583
1492637311.9,40.444313699997,-79.9410323675596,9.81999969482422,0.022125244140625,-1.01446533203125,0.292083740234375,0.0306974589370164,-0.0299842643970931,-0.00280697178894352
1492637312.1,40.44429261411,-79.9409154641504,10.5,0.081329345703125,-0.874496459960938,0.308929443359375,0.017577928458959,-0.0905197801873573,0.0665188398113452
1492637312.3,40.44429261411,-79.9409154641504,10.5,0.101394653320312,-0.953109741210938,0.29974365234375,-0.0168239875543576,0.0575527753693754,0.0156724366990073
1492637312.5,40.44429261411,-79.9409154641504,10.5,-0.0153045654296875,-0.993988037109375,0.275894165039062,-0.0426145721829029,0.00666029957017917,0.00487757953648013
1492637312.7,40.44429261411,-79.9409154641504,10.5,0.0340118408203125,-0.937667846679688,0.313690185546875,-0.0410736671761831,-0.0210019546724739,0.0326863076390875
1492637312.9,40.44429261411,-79.9409154641504,10.5,0.0558319091796875,-0.980560302734375,0.311843872070312,-0.00175049578450908,-0.0542350092833547,0.0203801065579404
1492637313.1,40.4442699041301,-79.9407895565198,11.0200004577637,0.044036865234375,-0.89886474609375,0.216705322265625,-0.116299445855433,-0.0258361246831857,0.00207460248917173
1492637313.3,40.4442699041301,-79.9407895565198,11.0200004577637,0.078155517578125,-1.00048828125,0.151351928710938,-0.00496812701354282,-0.00529090213766042,-0.0288249903745816
1492637313.5,40.4442699041301,-79.9407895565198,11.0200004577637,0.0385894775390625,-1.03103637695312,0.222076416015625,0.0572545013272865,-0.0227095735634327,0.0059758671700288
1492637313.7,40.4442699041301,-79.9407895565198,11.0200004577637,-0.01116943359375,-0.812118530273438,0.21337890625,-0.00731197508892156,0.00323733862110032,-0.00861292928142527
1492637313.9,40.4442699041301,-79.9407895565198,11.0200004577637,0.077484130859375,-1.05534362792969,0.249725341796875,-0.0530853226407675,-0.031558458917439,0.0485837814502065
1492637314.1,40.4442699041301,-79.9407895565198,11.0200004577637,-0.0234527587890625,-0.998565673828125,0.267105102539062,0.0180945817104344,-0.0607424434069633,0.0451230036136486
1492637314.3,40.4442470003615,-79.9406625744951,11.1700000762939,0.0563812255859375,-0.984344482421875,0.184494018554688,-0.0374626870541446,0.00130974262410097,0.0145400606035056
1492637314.5,40.4442470003615,-79.9406625744951,11.1700000762939,0.0325927734375,-1.0147705078125,0.29083251953125,-0.0201260409899468,-0.00944463448985701,-0.0129762524114111
1492637314.7,40.4442470003615,-79.9406625744951,11.1700000762939,0.02630615234375,-1.01724243164062,0.225540161132812,-0.0770929209195048,0.133470443299828,0.0255216053584474
1492637314.9,40.4442470003615,-79.9406625744951,11.1700000762939,-0.008209228515625,-1.00613403320312,0.226654052734375,-0.0651491760627174,0.047221308236522,-0.0381063730896168
1492637315.1,40.4442470003615,-79.9406625744951,11.1700000762939,0.107376098632812,-0.901779174804688,0.208450317382812,-0.0483779190979434,0.0736981894779808,-0.0817177664685364
1492637315.3,40.444223526509,-79.9405327914484,11.289999961853,0.0333099365234375,-0.993362426757812,0.197250366210938,-0.00954796514015208,-0.0148316767428693,-0.01072162023255
1492637315.5,40.444223526509,-79.9405327914484,11.289999961853,0.0515594482421875,-0.982940673828125,0.284439086914062,-0.0605765284710514,-0.0293941078995316,-0.0250672700764798
1492637315.7,40.444223526509,-79.9405327914484,11.289999961853,0.074798583984375,-0.928665161132812,0.218460083007812,-0.0510360201819515,0.0832959557305173,-0.0380549740805783
1492637315.9,40.444223526509,-79.9405327914484,11.289999961853,0.02777099609375,-0.977279663085938,0.242584228515625,0.0556784425941776,-0.0907773078647679,0.00613539051932455
1492637316.1,40.444223526509,-79.9405327914484,11.289999961853,-0.09521484375,-0.972183227539062,0.298919677734375,-0.21704176988706,0.119467808604301,-0.104887001636117
1492637316.3,40.444199651841,-79.9404008645113,11.5500001907349,-0.0643310546875,-0.925262451171875,0.13421630859375,-0.0502839434901131,-0.120932280887735,0.0285850395603655
1492637316.5,40.444199651841,-79.9404008645113,11.5500001907349,0.009124755859375,-0.916152954101562,0.26922607421875,-0.0106912601961231,-0.0116318886931391,-0.00327808498577853
1492637316.7,40.444199651841,-79.9404008645113,11.5500001907349,0.05926513671875,-0.959365844726562,0.261184692382812,-0.00599157982046027,0.0138638840027345,-0.0214214025441614
1492637316.9,40.444199651841,-79.9404008645113,11.5500001907349,0.0798797607421875,-0.9346923828125,0.268478393554688,-0.0292319213891458,0.0384805472227729,-0.0217228723795583
1492637317.1,40.4441755157983,-79.9402674932669,11.8900003433228,0.0937347412109375,-0.990020751953125,0.220550537109375,-0.055623847791831,0.0609895847561227,-0.026316026311618
1492637317.3,40.4441755157983,-79.9402674932669,11.8900003433228,0.103179931640625,-0.884429931640625,0.290740966796875,0.0472857567349019,-0.0311507289545478,0.0293522962704173
1492637317.5,40.4441755157983,-79.9402674932669,11.8900003433228,0.1121826171875,-0.878387451171875,0.199844360351562,-0.000621315482315486,0.0297855925797732,-0.0160764382363723
1492637317.7,40.4441755157983,-79.9402674932669,11.8900003433228,0.0265045166015625,-0.914794921875,0.234405517578125,0.0216509670301262,-0.067152672150784,0.0153219646995529
1492637317.9,40.4441755157983,-79.9402674932669,11.8900003433228,0.114990234375,-0.861602783203125,0.224349975585938,-0.101839546400739,0.0772399274116772,-0.0641486264411746
1492637318.1,40.4441755157983,-79.9402674932669,11.8900003433228,0.0869140625,-0.9705810546875,0.2418212890625,-0.096996055326212,0.121881697816348,-0.0823398808991789
1492637318.3,40.4441502360472,-79.9401278021038,12.4899997711182,0.0150299072265625,-0.96649169921875,0.259628295898438,-0.0433530667531819,0.0364480226788245,-0.00267035162502245
1492637318.5,40.4441502360472,-79.9401278021038,12.4899997711182,0.055908203125,-0.9383544921875,0.267288208007812,-0.0326263865145607,-0.0168008180528739,0.0402254503689928
1492637318.7,40.4441502360472,-79.9401278021038,12.4899997711182,-0.00750732421875,-0.917648315429688,0.2554931640625,-0.0481033471895562,0.0120169817867645,0.0197345563097052
1492637318.9,40.4441502360472,-79.9401278021038,12.4899997711182,0.024444580078125,-0.973556518554688,0.281692504882812,-0.059590359919395,-0.0262081682874698,-0.0176018969087697
1492637319.1,40.4441502360472,-79.9401278021038,12.4899997711182,0.0567474365234375,-0.917617797851562,0.191497802734375,0.0123528064002235,-0.0617640320011177,0.0749208467344362
1492637319.3,40.4441238935488,-79.9399822383994,12.9200000762939,-0.0025787353515625,-0.920501708984375,0.211257934570312,-0.070646473184859,0.0111019196362133,0.0323006819132441
1492637319.5,40.4441238935488,-79.9399822383994,12.9200000762939,0.047821044921875,-0.947509765625,0.202728271484375,-0.107985323248315,-0.0237601906134689,0.018147578616127
1492637319.7,40.4441238935488,-79.9399822383994,12.9200000762939,0.0562286376953125,-0.97998046875,0.234588623046875,0.0273128475076347,-0.0182580998013652,0.0173861808604733
1492637319.9,40.4441238935488,-79.9399822383994,12.9200000762939,0.0609283447265625,-0.999969482421875,0.191604614257812,0.0118092552217384,-0.0202903580292047,-0.0179523689082241
1492637320.1,40.4440968580558,-79.939832845336,13.1000003814697,0.156143188476562,-0.95166015625,0.206787109375,-0.0457376611932389,0.0545388759637327,-0.0517872979254628
1492637320.3,40.4440968580558,-79.939832845336,13.1000003814697,0.0947418212890625,-0.845977783203125,0.196670532226562,-0.0121895546254017,0.0607096865255553,-0.00987739816699489
1492637320.5,40.4440968580558,-79.939832845336,13.1000003814697,0.0071868896484375,-0.96417236328125,0.203262329101562,-0.0359590663026859,-0.0391175753555199,0.0381164931017591
1492637320.7,40.4440968580558,-79.939832845336,13.1000003814697,0.090484619140625,-1.04055786132812,0.175155639648438,0.135644914329878,0.0842054252427794,-0.0606689401608771
1492637320.9,40.4440968580558,-79.939832845336,13.1000003814697,-0.032958984375,-1.01557922363281,0.21087646484375,0.0216874523370603,-0.0395066631907805,-0.0497880628951404
1492637321.1,40.4440968580558,-79.939832845336,13.1000003814697,-0.087005615234375,-1.09596252441406,0.132675170898438,0.0465445990035329,-0.064127853784672,-0.0121525366862496
1492637321.3,40.4440691038936,-79.9396794810414,13.1700000762939,0.270462036132812,-0.766281127929688,0.398773193359375,-0.15594139762959,0.206285794876448,-0.164193468583309
1492637321.5,40.4440691038936,-79.9396794810414,13.1700000762939,0.36090087890625,-0.980270385742188,0.05865478515625,-0.0787257049838324,0.38766410934182,-0.259830246489145
1492637321.7,40.4440691038936,-79.9396794810414,13.1700000762939,0.171829223632812,-0.954925537109375,0.173965454101562,-0.111971542767946,0.175170485964398,-0.0485118761007744
1492637321.9,40.4440691038936,-79.9396794810414,13.1700000762939,0.077850341796875,-0.936660766601562,0.188064575195312,-0.0582393382983978,0.0684589526654679,0.0130878388610854
1492637322.1,40.4440691038936,-79.9396794810414,13.1700000762939,0.0619049072265625,-0.964981079101562,0.125473022460938,0.020502878284193,0.00305491208642989,-0.0179236067684513
1492637322.3,40.4440414460068,-79.9395266487474,13.2700004577637,0.104766845703125,-0.971206665039062,0.116973876953125,-0.103921605740963,0.0315214409782869,-0.0150061137942695
1492637322.5,40.4440414460068,-79.9395266487474,13.2700004577637,0.147491455078125,-1.01467895507812,0.163909912109375,-0.0544014568514846,0.141817056472246,-0.0712930886975302
1492637322.7,40.4440414460068,-79.9395266487474,13.2700004577637,0.03411865234375,-1.02212524414062,0.100357055664062,0.0138646829510615,0.0764915791453649,-0.037372938525409
1492637322.9,40.4440414460068,-79.9395266487474,13.2700004577637,-0.0001983642578125,-0.982879638671875,0.119003295898438,-0.0515260418225261,-0.00924676162086412,-0.0527481664467634
1492637323.1,40.4440414460068,-79.9395266487474,13.2700004577637,-0.0191650390625,-0.966079711914062,0.151611328125,-0.0796373050249665,0.0717783166481426,-0.0553775053909987
1492637323.3,40.4440145373983,-79.939377956824,13.2399997711182,0.019439697265625,-1.05073547363281,0.0902099609375,-0.0368674705505119,0.0161922857437908,-0.0206773153355932
1492637323.5,40.4440145373983,-79.939377956824,13.2399997711182,0.025482177734375,-0.986968994140625,0.112075805664062,-0.0192538557329459,0.05011296854813,-0.0440412275788584
1492637323.7,40.4440145373983,-79.939377956824,13.2399997711182,0.0017242431640625,-0.99591064453125,0.065338134765625,-0.011594870753987,-0.011627893951504,-0.0150157011741938
1492637323.9,40.4440145373983,-79.939377956824,13.2399997711182,0.019744873046875,-0.996688842773438,0.123001098632812,-0.00656016471319219,0.00642753929090624,0.0159094580360244
1492637324.1,40.4440145373983,-79.939377956824,13.2399997711182,-0.0169677734375,-0.953460693359375,0.172378540039062,0.0178660824889056,-0.0352192401518619,-0.0018586201247663
1492637324.3,40.4439842702619,-79.9392252157151,12.3999996185303,-0.028961181640625,-0.948928833007812,0.1990966796875,-0.000874315785873014,0.0351092515988416,0.00523151364535166
1492637324.5,40.4439842702619,-79.9392252157151,12.3999996185303,-0.079071044921875,-1.00083923339844,0.171066284179688,-0.00995622773526123,-0.00739000570886088,-0.0544597800793574
1492637324.7,40.4439842702619,-79.9392252157151,12.3999996185303,-0.0960845947265625,-0.89361572265625,0.212081909179688,-0.0967033739224123,-0.0557428910925575,0.0322064060106553
1492637324.9,40.4439842702619,-79.9392252157151,12.3999996185303,-0.13818359375,-1.01564025878906,0.265243530273438,-0.0171321152924797,-0.12327719422755,0.0172021564291488
1492637325.1,40.4439842702619,-79.9392252157151,12.3999996185303,-0.0630340576171875,-0.960281372070312,0.216781616210938,-0.0204647950806049,-0.12219009187058,0.027827370230238
1492637325.3,40.4439527195106,-79.9390820170195,12.3999996185303,-0.056884765625,-0.886886596679688,0.26055908203125,-0.0229971949611612,-0.117926104649254,-0.0180567648229553
1492637325.5,40.4439527195106,-79.9390820170195,12.3999996185303,-0.0645751953125,-0.868362426757812,0.227676391601562,-0.0856134385111043,-0.0462583091863493,-0.072193503462086
1492637325.7,40.4439527195106,-79.9390820170195,12.3999996185303,-0.0738067626953125,-0.98480224609375,0.0511322021484375,-0.00262800736369019,-0.110601080070991,0.0535692190108349
1492637325.9,40.4439527195106,-79.9390820170195,12.3999996185303,-0.0840606689453125,-0.930435180664062,0.189193725585938,0.000471113196835017,-0.173372585912485,0.103875000421887
1492637326.1,40.4439527195106,-79.9390820170195,12.3999996185303,-0.15576171875,-1.01290893554688,0.236801147460938,0.0504043183713847,-0.160930297299635,0.119281121011886
1492637326.3,40.4439137911895,-79.9389235297175,12.4499998092651,-0.10791015625,-0.989227294921875,0.156814575195312,-0.0162266405218528,-0.057337325637188,-0.0128127343204802
1492637326.5,40.4439137911895,-79.9389235297175,12.4499998092651,-0.284988403320312,-0.999664306640625,0.2137451171875,0.0703708360120358,-0.0536493801596463,-0.035392345622717
1492637326.7,40.4439137911895,-79.9389235297175,12.4499998092651,-0.22283935546875,-0.936203002929688,0.1473388671875,-0.0614606979529577,-0.108100105491297,-0.00354892846863959
1492637326.9,40.4439137911895,-79.9389235297175,12.4499998092651,-0.359817504882812,-1.01396179199219,0.232589721679688,0.00198591922487209,-0.226578283434524,0.0421874011440542
1492637327.1,40.4439137911895,-79.9389235297175,12.4499998092651,-0.246673583984375,-0.899063110351562,0.247711181640625,-0.0682304534439391,-0.206973689386015,0.0478151931596097
1492637327.3,40.4438715627714,-79.938801041049,12.5200004577637,-0.180038452148438,-1.00912475585938,0.174728393554688,-0.054884554273225,-0.0772945222140238,-0.000362456224359784
1492637327.5,40.4438715627714,-79.938801041049,12.5200004577637,-0.137710571289062,-0.963760375976562,0.207168579101562,0.0583210973438633,-0.0620900029185434,-0.0930694906149991
1492637327.7,40.4438715627714,-79.938801041049,12.5200004577637,-0.333892822265625,-0.89324951171875,0.132858276367188,-0.0692432536064962,-0.252711616895363,0.0191350787483283
1492637327.9,40.4438715627714,-79.938801041049,12.5200004577637,-0.283737182617188,-1.03465270996094,0.07421875,-0.00219444473822529,-0.206339590730467,0.047423442163259
1492637328.1,40.4438715627714,-79.938801041049,12.5200004577637,-0.160873413085938,-1.024169921875,0.0052490234375,-0.00842118168293956,-0.154186640787337,-0.0135490983618871
1492637328.3,40.4437916192412,-79.9386957567107,12.1499996185303,-0.200637817382812,-1.09605407714844,0.015289306640625,0.00614018420928669,-0.202148840439119,-0.0143424540506217
1492637328.5,40.4437916192412,-79.9386957567107,12.1499996185303,-0.0901031494140625,-1.0450439453125,-0.049346923828125,0.0310146414228448,-0.175707379240158,0.0498168250349132
1492637328.7,40.4437916192412,-79.9386957567107,12.1499996185303,-0.136383056640625,-1.05662536621094,0.0323944091796875,0.0018453043193159,-0.130845099097228,0.0270119103044557
1492637328.9,40.4437916192412,-79.9386957567107,12.1499996185303,-0.0326995849609375,-1.01718139648438,0.0345001220703125,-0.051187021415759,0.00139762694007358,0.00586960704253464
1492637329.1,40.4437916192412,-79.9386957567107,12.1499996185303,-0.071685791015625,-0.88726806640625,0.01690673828125,-0.0769576323361287,-0.00587892810634992,0.0173528913468473
1492637329.3,40.4436880705748,-79.9385847118468,10.1899995803833,-0.0803985595703125,-0.993881225585938,-0.05609130859375,-0.033408024294499,-0.118912539517019,0.0415471772179992
1492637329.5,40.4436880705748,-79.9385847118468,10.1899995803833,-0.086456298828125,-0.952728271484375,0.1640625,0.0428052545169526,-0.190678339308038,0.0361153938586736
1492637329.7,40.4436880705748,-79.9385847118468,10.1899995803833,-0.0178985595703125,-0.902450561523438,0.2235107421875,-0.0452793311696362,-0.0645915101304548,0.00503417340857678
1492637329.9,40.4436880705748,-79.9385847118468,10.1899995803833,0.045135498046875,-0.949691772460938,0.18377685546875,-0.0444364406846261,-0.0167353042900579,-0.0302657605243145
1492637330.1,40.4436880705748,-79.9385847118468,10.1899995803833,-0.111160278320312,-0.750015258789062,0.516372680664062,-0.345094278265231,-0.144560378711136,-0.0745964737136645
1492637330.3,40.4436252310885,-79.9385216345079,8.65999984741211,0.195465087890625,-1.17591857910156,-0.232833862304688,-0.104998055453573,0.236806952549301,-0.134962878774709
1492637330.5,40.4436252310885,-79.9385216345079,8.65999984741211,-0.32769775390625,-1.0406494140625,0.604034423828125,0.19137049487535,-0.765960283233178,0.613810428047534
1492637330.7,40.4436252310885,-79.9385216345079,8.65999984741211,0.181610107421875,-1.02023315429688,-0.0976104736328125,-0.0355816963762217,0.485260174861627,-0.169012192259699
1492637330.9,40.4436252310885,-79.9385216345079,8.65999984741211,0.031585693359375,-0.997390747070312,0.141021728515625,0.144500457586609,0.0575610311687546,-0.0221258086524873
1492637331.1,40.4436252310885,-79.9385216345079,8.65999984741211,0.142303466796875,-0.974639892578125,0.147247314453125,-0.0112894061769549,0.11813915753646,-0.0441352371653382
1492637331.3,40.4435655762034,-79.9384617538242,8.35999965667725,0.057952880859375,-0.972579956054688,0.17950439453125,0.0239780371906374,0.00728427821358473,-0.0360245800655019
1492637331.5,40.4435655762034,-79.9384617538242,8.35999965667725,0.0118408203125,-0.943405151367188,0.18109130859375,-0.056832922926727,-0.0804754018200144,-0.0153011920430503
1492637331.7,40.4435655762034,-79.9384617538242,8.35999965667725,0.0416259765625,-0.931777954101562,0.181976318359375,-0.0661625088574926,-0.0272270937205341,-0.00487198689819096
1492637331.9,40.4435655762034,-79.9384617538242,8.35999965667725,0.127059936523438,-1.00341796875,0.284927368164062,-0.0652756762144962,0.114243751810001,0.00756657328913313
1492637332.1,40.4435655762034,-79.9384617538242,8.35999965667725,-0.019012451171875,-1.01962280273438,0.240890502929688,-0.0851630979707719,-0.0728369231814491,0.0355673153063353
1492637332.3,40.4435087531101,-79.938404715651,8.39999961853027,0.0242156982421875,-1.04547119140625,0.0707855224609375,0.0686855876742336,-0.0738435980734991,-0.00123863622299585
1492637332.5,40.4435087531101,-79.938404715651,8.39999961853027,0.0664215087890625,-0.9530029296875,0.201370239257812,-0.0739852782434913,0.00685763980695404,-0.0370264612675897
1492637332.7,40.4435087531101,-79.938404715651,8.39999961853027,-0.0084228515625,-1.0050048828125,0.20025634765625,0.0326178643990725,-0.00127139310440383,0.0280587989289658
1492637332.9,40.4435087531101,-79.938404715651,8.39999961853027,0.037506103515625,-0.957565307617188,0.181015014648438,0.0163632606857739,-0.0447786568847013,0.0248060139735431
1492637333.1,40.4435087531101,-79.938404715651,8.39999961853027,0.0324554443359375,-0.930862426757812,0.202102661132812,-0.0337411857468679,0.0480871019069068,0.00166287778464548
1492637333.3,40.4434493614957,-79.9383450992346,8.52000045776367,0.003265380859375,-0.968429565429688,0.1851806640625,-0.0430095189725617,0.0704837540422551,-0.0091519530860573
1492637333.5,40.4434493614957,-79.9383450992346,8.52000045776367,0.0533905029296875,-0.950286865234375,0.1978759765625,-0.0128279143386937,-0.109476160826541,0.02147546471429
1492637333.7,40.4434493614957,-79.9383450992346,8.52000045776367,0.100601196289062,-0.92547607421875,0.225936889648438,-0.0270758261706176,0.0459128971929661,-0.0195875498175328
1492637333.9,40.4434493614957,-79.9383450992346,8.52000045776367,0.112518310546875,-0.913589477539062,0.14190673828125,-0.0428137766324409,0.0204810403632544,-0.0506032565048136
1492637334.1,40.4434493614957,-79.9383450992346,8.52000045776367,0.093048095703125,-0.941864013671875,0.201629638671875,-0.0345795488580249,0.000218379209386498,-0.040870734301119
1492637334.3,40.4433876872356,-79.9382831915325,8.88000011444092,0.0447235107421875,-0.934463500976562,0.193557739257812,-0.0534890578620235,0.0577842040681033,-0.0284183256761265
1492637334.5,40.4433876872356,-79.9382831915325,8.88000011444092,0.084136962890625,-1.07749938964844,0.218154907226562,-0.02124190548669,-0.0955931020639582,0.0213534919363643
1492637334.7,40.4433876872356,-79.9382831915325,8.88000011444092,0.122283935546875,-0.960617065429688,0.186614990234375,-0.0328335804473689,0.0310620456902482,0.00384853409127351
1492637334.9,40.4433876872356,-79.9382831915325,8.88000011444092,0.103103637695312,-0.955947875976562,0.174468994140625,-0.0118686437140471,0.070278158006101,-0.0280244441509038
1492637335.1,40.4433876872356,-79.9382831915325,8.88000011444092,0.021728515625,-0.984603881835938,0.228973388671875,-0.0259871259169932,0.0490969725922648,-0.0195846203403337
1492637335.3,40.4433670037944,-79.9382624298028,8.8100004196167,0.0698394775390625,-1.02194213867188,0.259414672851562,-0.041778073284509,-0.0933283498729548,0.0445940998211588
1492637335.5,40.4433670037944,-79.9382624298028,8.8100004196167,-0.081939697265625,-0.986587524414062,0.172195434570312,-0.0348099122923167,0.00660543845172353,-0.0206315089648439
1492637335.7,40.4433670037944,-79.9382624298028,8.8100004196167,0.0720367431640625,-1.05429077148438,0.235733032226562,0.0285152647398054,0.00725152133217676,-0.0562361085264402
1492637335.9,40.4433670037944,-79.9382624298028,8.8100004196167,0.0479583740234375,-0.924057006835938,0.21136474609375,-0.0557809742961457,0.020567593098682,-0.0368754600337822
1492637336.1,40.4433670037944,-79.9382624298028,8.8100004196167,0.150253295898438,-0.973068237304688,0.190338134765625,0.0264230853874392,0.0317323633366211,-0.0456585653088635
1492637336.3,40.4432602973268,-79.9381624827163,8.6899995803833,0.200454711914062,-0.997390747070312,0.29705810546875,-0.189006140459578,-0.114719925012907,-0.0250957659001437
1492637336.5,40.4432602973268,-79.9381624827163,8.6899995803833,-0.049652099609375,-0.894058227539062,0.2841796875,-0.0433179130267929,0.0853702919035801,-0.0561069452135714
1492637336.7,40.4432602973268,-79.9381624827163,8.6899995803833,0.306549072265625,-1.30776977539062,0.274932861328125,0.161987838568506,0.230806051665025,-0.192988098921464
1492637336.9,40.4432602973268,-79.9381624827163,8.6899995803833,0.2606201171875,-0.891357421875,0.245330810546875,-0.109439941835716,0.138979724646875,-0.0974384063832741
1492637337.1,40.4431959805925,-79.9381022689194,8.80000019073486,0.115676879882812,-0.909011840820312,0.135833740234375,-0.0633773749894877,0.00677667970981563,-0.111552627528476
1492637337.3,40.4431959805925,-79.9381022689194,8.80000019073486,0.172607421875,-1.04313659667969,0.228622436523438,-0.131561489430459,0.046581616942685,-0.0878305201185953
1492637337.5,40.4431959805925,-79.9381022689194,8.80000019073486,0.0888671875,-0.987380981445312,0.09405517578125,0.0138993040452326,0.0381937247733714,-0.0607304591820579
1492637337.7,40.4431959805925,-79.9381022689194,8.80000019073486,0.108901977539062,-1.07160949707031,0.003570556640625,-0.0369894433284376,0.0832022124601466,-0.0528379149754991
1492637338.0,40.4431959805925,-79.9381022689194,8.80000019073486,0.19873046875,-1.05581665039062,0.059967041015625,0.0167624685331767,0.204121177542431,-0.0238118559386165
1492637338.1,40.4431321664757,-79.9380425256767,8.59000015258789,0.042327880859375,-0.883407592773438,0.281570434570312,0.0775736214962641,-0.0324170620528805,-0.00551940135918922
1492637338.3,40.4431321664757,-79.9380425256767,8.59000015258789,0.0223236083984375,-0.957275390625,0.131393432617188,-0.0683188703921297,0.11424934444829,-0.0809603634545178
1492637338.5,40.4431321664757,-79.9380425256767,8.59000015258789,0.162338256835938,-1.14617919921875,0.239822387695312,-0.0312324880000133,0.194847517994557,-0.101046723344222
1492637338.7,40.4431321664757,-79.9380425256767,8.59000015258789,0.05291748046875,-0.92987060546875,0.196044921875,-0.0749381572815217,-0.00164796408254103,-0.049808835551643
1492637338.9,40.4431321664757,-79.9380425256767,8.59000015258789,0.172119140625,-1.14176940917969,0.224578857421875,0.0496919227797885,0.162419270665099,-0.0404265190312938
1492637339.1,40.4431321664757,-79.9380425256767,8.59000015258789,0.0967254638671875,-0.808303833007812,0.352706909179688,-0.00936234281217356,-0.286057323220354,0.138183972113159
1492637339.3,40.4430690229467,-79.9379834102431,8.84000015258789,0.049041748046875,-0.82989501953125,0.314727783203125,-0.148248590504787,-0.0649768695401893,0.0583578489669063
1492637339.5,40.4430690229467,-79.9379834102431,8.84000015258789,-0.0457305908203125,-0.95684814453125,0.256149291992188,-0.0128244522292766,-0.202015416068506,0.0483696632985642
1492637339.7,40.4430690229467,-79.9379834102431,8.84000015258789,0.100387573242188,-0.90362548828125,0.173019409179688,-0.0433370877866414,0.0970850049066206,0.0291597497236046
1492637339.9,40.4430690229467,-79.9379834102431,8.84000015258789,-0.0249176025390625,-0.937637329101562,0.244415283203125,-0.0582651709609716,-0.0474836296038948,0.0293799931457542
1492637340.1,40.4430690229467,-79.9379834102431,8.84000015258789,0.0599212646484375,-0.896163940429688,0.254150390625,-0.0476399571598825,-0.00820386773798909,-0.0249895057726495
1492637340.3,40.4430004144965,-79.9379197791246,8.93000030517578,0.0001373291015625,-0.91595458984375,0.122085571289062,-0.0120862239751066,-0.059490491378517,-0.00530128846591173
1492637340.5,40.4430004144965,-79.9379197791246,8.93000030517578,0.034912109375,-0.957977294921875,0.184127807617188,-0.0437312356279732,0.0173062860277709,0.0144345994243385
1492637340.7,40.4430004144965,-79.9379197791246,8.93000030517578,0.0711517333984375,-0.93658447265625,0.184005737304688,-0.0684344515834392,-0.0208277839371827,0.00894902021099326
1492637340.9,40.4430004144965,-79.9379197791246,8.93000030517578,0.144943237304688,-0.889419555664062,0.184356689453125,-0.106846289250088,0.127267941121034,-0.0600641362773201
1492637341.1,40.4430004144965,-79.9379197791246,8.93000030517578,0.0734100341796875,-0.984588623046875,0.148696899414062,0.0350248293922861,0.0721002928239332,-0.0296814629811511
1492637341.3,40.4429354700661,-79.9378599718148,8.77999973297119,0.0401458740234375,-0.952041625976562,0.115936279296875,-0.00159070611910433,-0.0329616784958017,0.0203268433361388
1492637341.5,40.4429354700661,-79.9378599718148,8.77999973297119,0.115097045898438,-0.944580078125,0.082855224609375,-0.00147698914055795,0.0127677268980579,-0.0405642044596509
1492637341.7,40.4429354700661,-79.9378599718148,8.77999973297119,0.128326416015625,-1.01210021972656,0.103378295898438,-0.102361525974395,0.0740579825412505,-0.027894481889708
1492637341.9,40.4429354700661,-79.9378599718148,8.77999973297119,0.0589752197265625,-0.995697021484375,0.061859130859375,0.0195326886990772,0.0254001652127397,-0.0126601351900187
1492637342.1,40.4428731039267,-79.9378025388525,8.14999961853027,0.110488891601562,-0.956832885742188,0.113189697265625,-0.0452841248595984,0.0258201457166452,-0.022920762237876
1492637342.3,40.4428731039267,-79.9378025388525,8.14999961853027,0.0167083740234375,-0.953659057617188,0.118438720703125,0.00734526460254755,0.0265487865908909,0.0223971847675664
1492637342.5,40.4428731039267,-79.9378025388525,8.14999961853027,0.089447021484375,-0.9827880859375,0.0930633544921875,-0.0514599954274921,0.00991308452560195,0.0303677595940645
1492637342.7,40.4428731039267,-79.9378025388525,8.14999961853027,0.121170043945312,-0.9617919921875,0.103790283203125,-0.0132875759428414,0.0309304855323983,-0.0236725726136053
1492637342.9,40.4428731039267,-79.9378025388525,8.14999961853027,0.208541870117188,-1.01783752441406,0.0289306640625,-0.0141299337956334,0.035188613799326,-0.0375529682150983
1492637343.1,40.4428731039267,-79.9378025388525,8.14999961853027,0.106521606445312,-0.954086303710938,0.06231689453125,0.00420965873508825,0.00316463432334116,0.00536600328040066
1492637343.3,40.4428178904348,-79.9377516927616,7.15000009536743,0.0438232421875,-0.918716430664062,0.0568389892578125,-0.0349356134957685,-0.0231665720064903,0.0498141618738231
1492637343.5,40.4428178904348,-79.9377516927616,7.15000009536743,0.11279296875,-0.973098754882812,-0.031158447265625,-0.0700685672283118,-0.013376259207141,-0.0230733613683375
1492637343.7,40.4428178904348,-79.9377516927616,7.15000009536743,0.141098022460938,-0.999282836914062,0.0644073486328125,0.0750971479985994,0.0378022400931297,-0.0195867508692058
1492637343.9,40.4428178904348,-79.9377516927616,7.15000009536743,0.05950927734375,-1.0084228515625,0.061859130859375,0.00926380585184063,-0.0574899247676495,0.0695471202868743
1492637344.1,40.4428178904348,-79.9377516927616,7.15000009536743,0.0391693115234375,-1.04389953613281,0.032440185546875,-0.00625203697507002,0.105344000079174,-0.0301898604332473
1492637344.3,40.4427720351872,-79.9377094646754,5.5,0.0422821044921875,-0.992935180664062,-0.0017852783203125,-0.0155720355259113,-0.05733679300497,0.0170479594020332
1492637344.5,40.4427720351872,-79.9377094646754,5.5,0.0509796142578125,-0.9677734375,0.011627197265625,-0.0154109142799615,0.00116992666687181,0.0371566898448945
1492637344.7,40.4427720351872,-79.9377094646754,5.5,-0.0048370361328125,-1.14500427246094,-0.0081024169921875,0.059925918216745,0.0591802331115228,0.0111229586088249
1492637344.9,40.4427720351872,-79.9377094646754,5.5,0.0716400146484375,-1.00959777832031,0.013031005859375,-0.0156247661154949,0.00328900394624786,-0.0236251683462019
1492637345.1,40.4427720351872,-79.9377094646754,5.5,0.090911865234375,-0.950897216796875,0.0782928466796875,7.85632521573375e-05,-0.003192863830896,-0.0074544542072408
1492637345.3,40.4427404693882,-79.9376803957389,3.4300000667572,0.0888824462890625,-0.992141723632812,0.0474700927734375,-0.0480673945148402,-0.000749413530748298,0.0101719437835577
1492637345.5,40.4427404693882,-79.9376803957389,3.4300000667572,0.09466552734375,-0.983474731445312,0.134963989257812,-0.0329912395839016,-0.0731762099043252,0.0361023443693322
1492637345.7,40.4427404693882,-79.9376803957389,3.4300000667572,-0.0147705078125,-0.975723266601562,0.122589111328125,-0.0196517319998037,-0.0913418980158647,0.0629411492029327
1492637345.9,40.4427404693882,-79.9376803957389,3.4300000667572,0.028594970703125,-0.910980224609375,0.159164428710938,0.0253578209514075,-0.0320769763816774,-0.00285624026910998
1492637346.1,40.4427199651562,-79.9376615133968,2.34999990463257,0.05792236328125,-0.985183715820312,0.188247680664062,-0.0376882567984744,-0.117820643470087,0.0436329649837492
1492637346.3,40.4427199651562,-79.9376615133968,2.34999990463257,0.0063934326171875,-0.964324951171875,0.209945678710938,0.0086512788011224,-0.146838979339808,0.0655065722810061
1492637346.5,40.4427199651562,-79.9376615133968,2.34999990463257,0.001983642578125,-0.97174072265625,0.212814331054688,-0.0109794142260697,-0.1605478673671,0.0141626906770414
1492637346.7,40.4427199651562,-79.9376615133968,2.34999990463257,-0.0151519775390625,-0.9927978515625,0.212936401367188,-0.0190069806998955,-0.275368193553103,0.0708861576829661
1492637346.9,40.4427199651562,-79.9376615133968,2.34999990463257,-0.0047454833984375,-0.925674438476562,0.268402099609375,-0.00465334137269545,-0.327581863569088,0.0828962152508965
1492637347.1,40.4427199651562,-79.9376615133968,2.34999990463257,0.0439453125,-0.995193481445312,0.160888671875,-0.00379500455336291,-0.341414588587068,0.0904041989960478
1492637347.3,40.4427058175856,-79.9376484849026,2.35999989509583,-0.116287231445312,-0.953125,0.240707397460938,0.048869804951281,-0.347057027988619,0.207175290680534
1492637347.5,40.4427058175856,-79.9376484849026,2.35999989509583,-0.226455688476562,-0.9219970703125,0.210693359375,0.00322668597674,-0.398901051245301,0.0906244424181974
1492637347.7,40.4427058175856,-79.9376484849026,2.35999989509583,-0.0852813720703125,-0.971343994140625,0.198898315429688,0.0826261707163624,-0.4717512902322,0.0852280791013698
1492637347.9,40.4427058175856,-79.9376484849026,2.35999989509583,-0.0586090087890625,-1.02203369140625,0.255935668945312,0.0778367418119639,-0.563189328363417,0.151520283903949
1492637348.1,40.4427058175856,-79.9376484849026,2.35999989509583,-0.39019775390625,-0.951278686523438,0.311386108398438,0.0049809101867752,-0.562710225683312,0.183825759507155
1492637348.3,40.4426899843929,-79.9376339041193,2.86999988555908,-0.32421875,-0.993667602539062,0.192138671875,0.0867402219683168,-0.606855582860792,0.177313265377476
1492637348.5,40.4426899843929,-79.9376339041193,2.86999988555908,-0.172958374023438,-0.96893310546875,0.219131469726562,-0.0208584102897186,-0.605103755495738,0.103704558112122
1492637348.7,40.4426899843929,-79.9376339041193,2.86999988555908,-0.062103271484375,-0.932891845703125,0.245849609375,0.0104968494365473,-0.520208305214519,0.115534852306472
1492637348.9,40.4426899843929,-79.9376339041193,2.86999988555908,-0.116195678710938,-0.965057373046875,0.293441772460938,0.0114582505900659,-0.458524700678322,0.0791342338950505
1492637349.1,40.4426899843929,-79.9376339041193,2.86999988555908,-0.0543670654296875,-0.955657958984375,0.34503173828125,0.00983212442846354,-0.368096000600245,0.0916787878937598
1492637349.3,40.4426175124268,-79.9377682624717,3.78999996185303,-0.06903076171875,-0.977493286132812,0.310806274414062,-0.00798602116082061,-0.349898620871734,0.0807872579836627
1492637349.5,40.4426175124268,-79.9377682624717,3.78999996185303,-0.0966949462890625,-0.937103271484375,0.268508911132812,0.0143645582876694,-0.301120961294169,0.0307781527180458
1492637349.7,40.4426175124268,-79.9377682624717,3.78999996185303,0.057769775390625,-0.886795043945312,0.276535034179688,-0.0543742926083658,-0.253871689866202,0.0214227341247064
1492637349.9,40.4426175124268,-79.9377682624717,3.78999996185303,0.0443878173828125,-0.986343383789062,0.26220703125,0.0368775905626542,-0.168305122990283,0.0146726860257916
1492637350.1,40.4426050793827,-79.937795973749,4.46999979019165,0.0469512939453125,-0.951202392578125,0.302627563476562,0.00418249449196944,-0.15001133683031,0.00149616390040652
1492637350.3,40.4426050793827,-79.937795973749,4.46999979019165,0.122406005859375,-0.952468872070312,0.38079833984375,0.00458995813875157,-0.0840624134922422,0.00772742821897392
1492637350.5,40.4426050793827,-79.937795973749,4.46999979019165,-0.011474609375,-0.9385986328125,0.340744018554688,-0.0799728633223165,0.0388062518240896,-0.0488985670910539
1492637350.7,40.4426050793827,-79.937795973749,4.46999979019165,0.0191192626953125,-0.999847412109375,0.27655029296875,0.0421724874419498,-0.0460132983660621,0.00588159126744
1492637350.9,40.4426050793827,-79.937795973749,4.46999979019165,0.046844482421875,-0.963470458984375,0.237091064453125,0.0344969908642324,-0.0736198925419324,0.0069404641168555
1492637351.1,40.4426050793827,-79.937795973749,4.46999979019165,0.011016845703125,-0.964706420898438,0.290817260742188,0.0324953589889289,-0.0916931689636462,-0.0122252409840087
1492637351.3,40.4425838486177,-79.9378432937466,5.38000011444092,0.099090576171875,-0.9375,0.226821899414062,-0.0301840014788491,-0.00830986154937425,0.0221029054671126
1492637351.5,40.4425838486177,-79.9378432937466,5.38000011444092,0.05126953125,-0.9317626953125,0.2901611328125,-0.00352309580606582,-0.0106113653634207,0.018116952263591
1492637351.7,40.4425838486177,-79.9378432937466,5.38000011444092,0.129623413085938,-0.973495483398438,0.233749389648438,0.0101671500935955,0.0212032896508839,-0.0308708307239805
1492637351.9,40.4425838486177,-79.9378432937466,5.38000011444092,0.0841522216796875,-0.946441650390625,0.248428344726562,-0.0162785721631093,-0.0232944037388141,0.00948937559617034
1492637352.1,40.4425838486177,-79.9378432937466,5.38000011444092,0.02471923828125,-0.924972534179688,0.278060913085938,-0.030887874954957,-0.0168199928127225,-0.00880254635103891
1492637352.3,40.4425580531146,-79.9379007878193,5.90999984741211,0.093353271484375,-0.94598388671875,0.273025512695312,0.00580649012469976,-0.00535002431386018,0.0395231747895389
1492637352.5,40.4425580531146,-79.9379007878193,5.90999984741211,0.089019775390625,-0.982025146484375,0.285247802734375,-0.0486460994197144,0.0386097105356418,-0.00379633613390795
1492637352.7,40.4425580531146,-79.9379007878193,5.90999984741211,0.062408447265625,-0.969284057617188,0.322860717773438,-0.00398195846188648,-0.00210496252559863,-0.0213596172068715
1492637352.9,40.4425580531146,-79.9379007878193,5.90999984741211,0.10614013671875,-0.970993041992188,0.2745361328125,-0.0544025221159207,0.00248259876817187,0.00796631376875402
1492637353.1,40.4425580531146,-79.9379007878193,5.90999984741211,0.105880737304688,-0.987762451171875,0.2879638671875,-0.0318775056160305,0.0608313929873719,-0.0495292036371847
1492637353.3,40.4425288493421,-79.9379658783821,6.36999988555908,0.057220458984375,-0.984329223632812,0.234603881835938,0.00797909694198641,0.0446220630126047,-0.0138942440391614
1492637353.5,40.4425288493421,-79.9379658783821,6.36999988555908,0.073699951171875,-0.963912963867188,0.251113891601562,0.0033912693321069,0.02231569203821,-0.00215529627020113
1492637353.7,40.4425288493421,-79.9379658783821,6.36999988555908,0.0715179443359375,-0.98028564453125,0.308181762695312,-0.0268814154110418,0.06399416309795,-0.023897077093499
1492637353.9,40.4425288493421,-79.9379658783821,6.36999988555908,0.0655059814453125,-0.984466552734375,0.252914428710938,-0.0180272037348554,0.0118183099694446,0.000851146284389324
1492637354.1,40.4425288493421,-79.9379658783821,6.36999988555908,0.05340576171875,-0.952102661132812,0.253692626953125,-0.0232363468270504,0.007595601745015,-0.00985342971718417
1492637354.3,40.442498939698,-79.9380325422204,6.73000001907349,0.0683746337890625,-0.956527709960938,0.246292114257812,-0.0117426761944864,-0.0137528301852782,-0.00541580439278514
1492637354.5,40.442498939698,-79.9380325422204,6.73000001907349,0.025604248046875,-0.861526489257812,0.2760009765625,-0.00485947004106759,-0.0584710333132347,0.011829495246023
1492637354.7,40.442498939698,-79.9380325422204,6.73000001907349,0.118881225585938,-0.975234985351562,0.255813598632812,-0.0322263797188308,0.0299871938742922,-0.0409234648907026
1492637354.9,40.442498939698,-79.9380325422204,6.73000001907349,0.094635009765625,-0.9227294921875,0.23858642578125,0.0297885220569723,-0.0150868075752989,-0.00605336515775011
1492637355.1,40.442498939698,-79.9380325422204,6.73000001907349,0.1036376953125,-0.924209594726562,0.309722900390625,-0.0220323316982255,-0.0551663167165554,0.0233734996231894
1492637355.3,40.4424703617785,-79.9380962378565,6.94000005722046,0.07086181640625,-0.925369262695312,0.275360107421875,-0.0157565925894538,-0.00841052903857924,-0.0203976834211349
1492637355.5,40.4424703617785,-79.9380962378565,6.94000005722046,0.087677001953125,-0.90289306640625,0.2244873046875,-0.0706091889295979,-0.0346426657758597,0.00469754984679077
1492637355.7,40.4424703617785,-79.9380962378565,6.94000005722046,0.114028930664062,-1.00755310058594,0.268356323242188,-0.0155888134407788,0.0490322577777759,-0.00135235320154224
1492637355.9,40.4424703617785,-79.9380962378565,6.94000005722046,0.047393798828125,-0.987136840820312,0.191116333007812,-0.0176756664709649,0.0118119183828284,-0.0247343749402199
1492637356.1,40.4424703617785,-79.9380962378565,6.94000005722046,0.1343994140625,-0.946380615234375,0.233978271484375,0.0136729353525758,0.0509635822003013,-0.0373090226592471
1492637356.3,40.4424370821547,-79.9381704128436,7.01999998092651,0.138442993164062,-0.994232177734375,0.203445434570312,-0.0460146299466071,0.0683734651944763,-0.0241042710263072
1492637356.5,40.4424370821547,-79.9381704128436,7.01999998092651,0.153778076171875,-0.939834594726562,0.177047729492188,-0.0405064138639962,0.00771065030410642,0.00702888106504613
1492637356.7,40.4424370821547,-79.9381704128436,7.01999998092651,0.076568603515625,-0.896331787109375,0.213226318359375,0.0386680337635145,-0.0502421318609989,0.026114691333208
1492637356.9,40.4424370821547,-79.9381704128436,7.01999998092651,0.087677001953125,-0.909820556640625,0.177047729492188,-0.0447885105807346,-0.0805451766405745,0.0381330047005176
1492637357.1,40.4424370821547,-79.9381704128436,7.01999998092651,0.0117340087890625,-0.987564086914062,0.257049560546875,0.0415591614429045,0.0199417502425133,0.00890374647246192
1492637357.3,40.4424060074163,-79.9382396734917,6.82000017166138,-0.0822601318359375,-0.96826171875,0.22540283203125,-0.0124577349471727,-0.12650388020429,-0.0147280797764652
1492637357.5,40.4424060074163,-79.9382396734917,6.82000017166138,0.05657958984375,-0.983734130859375,0.236709594726562,-0.0481920304538559,0.073707244225687,-0.0177430444465439
1492637357.7,40.4424060074163,-79.9382396734917,6.82000017166138,0.0402984619140625,-0.947158813476562,0.19415283203125,-0.0300282065550794,-0.00512125877622237,0.0125003455246139
1492637357.9,40.4424060074163,-79.9382396734917,6.82000017166138,0.0779266357421875,-0.921356201171875,0.2244873046875,0.0139067608962848,0.0105469168650408,0.00118137825955915
1492637358.1,40.4424060074163,-79.9382396734917,6.82000017166138,0.109878540039062,-1.01051330566406,0.166305541992188,-0.0194874149605458,0.000130494893413883,0.023256853167444
1492637358.3,40.4423749810539,-79.9383088263176,6.76999998092651,0.0709228515625,-0.8878173828125,0.187652587890625,-0.0580121706574141,-0.0177014991335387,0.0271732978665145
1492637358.5,40.4423749810539,-79.9383088263176,6.76999998092651,0.077972412109375,-0.952316284179688,0.23663330078125,0.0159789665404754,-0.0107421265729436,-0.00620596428821165
1492637358.7,40.4423749810539,-79.9383088263176,6.76999998092651,0.0308990478515625,-0.97900390625,0.231109619140625,-0.00284718552140371,-0.0467808213922229,0.0267469257759928
1492637358.9,40.4423749810539,-79.9383088263176,6.76999998092651,0.020721435546875,-0.951828002929688,0.185195922851562,-0.00592420184488127,-0.023358319604976,0.030919832888038
1492637359.1,40.4423749810539,-79.9383088263176,6.76999998092651,0.011016845703125,-0.957244873046875,0.17303466796875,0.00374493712486942,-0.0489536945256185,0.0108268150956081
1492637359.3,40.4423444651314,-79.938376841454,6.59000015258789,0.050140380859375,-1.00675964355469,0.204864501953125,0.0193396095200464,-0.00225543112718811,-0.0136569563860353
1492637359.5,40.4423444651314,-79.938376841454,6.59000015258789,0.11737060546875,-0.947845458984375,0.183761596679688,-0.0469493994892249,-0.0326716602530921,-0.011058510110445
1492637359.7,40.4423444651314,-79.938376841454,6.59000015258789,0.0254974365234375,-0.945175170898438,0.20001220703125,-0.006285060172587,-0.0382451237824099,0.0490801946773973
1492637359.9,40.4423444651314,-79.938376841454,6.59000015258789,0.079193115234375,-0.975845336914062,0.186172485351562,-0.0134207339973453,0.00540142332289871,-0.0278729102848783
1492637360.1,40.4423444651314,-79.938376841454,6.59000015258789,0.019500732421875,-1.04229736328125,0.203826904296875,0.0707537985767892,-0.0430057905470356,0.0200272377135049
1492637360.3,40.4423255177501,-79.9384190721526,6.26000022888184,0.03387451171875,-0.938278198242188,0.218978881835938,-0.00722329182462192,-0.0701548536476303,0.0224975859406624
1492637360.5,40.4423255177501,-79.9384190721526,6.26000022888184,0.0252685546875,-0.95599365234375,0.214508056640625,-0.00583898068999873,-0.0393170461211668,0.0160348929233671
1492637360.7,40.4423255177501,-79.9384190721526,6.26000022888184,0.1263427734375,-0.955169677734375,0.119827270507812,-0.016501745062458,0.0341430567553609,-0.0205151288252074
1492637360.9,40.4423255177501,-79.9384190721526,6.26000022888184,0.0915679931640625,-0.939193725585938,0.192367553710938,-0.0467296886992934,0.0024301344946973,-0.00794820427334149
1492637361.1,40.4423255177501,-79.9384190721526,6.26000022888184,0.06317138671875,-0.899642944335938,0.186965942382812,-0.0556717846914524,0.0312037258602404,-0.0390342184134004
1492637361.3,40.4423257009802,-79.9384186637618,5.82000017166138,-0.0032501220703125,-0.888290405273438,0.223983764648438,-0.00944063974822189,-0.0584374774834997,0.0352392138600375
1492637361.5,40.4423257009802,-79.9384186637618,5.82000017166138,0.0107269287109375,-0.956253051757812,0.217514038085938,-0.0403045462533682,-0.0720664706780892,0.0264286780257283
1492637361.7,40.4423257009802,-79.9384186637618,5.82000017166138,0.096282958984375,-1.01866149902344,0.18426513671875,-0.0255903149145714,0.0395154516223777,-0.053674680190002
1492637361.9,40.4423257009802,-79.9384186637618,5.82000017166138,0.007171630859375,-0.953720092773438,0.179153442382812,-0.0449059559848071,0.0332599525378906,-0.0463927988213983
1492637362.1,40.4423257009802,-79.9384186637618,5.82000017166138,0.042266845703125,-1.00640869140625,0.203033447265625,0.0145648280016434,-0.0819918057447055,0.0579362705663468
1492637362.3,40.4423257009802,-79.9384186637618,5.38000011444092,0.020416259765625,-1.02407836914062,0.136459350585938,0.000791757792080558,-0.0500011157823467,-0.00732635615880798
1492637362.5,40.4423257009802,-79.9384186637618,5.38000011444092,0.072235107421875,-0.990585327148438,0.17095947265625,-0.0105634284637993,-0.0180170837227131,-0.0160548666315427
1492637362.7,40.4423257009802,-79.9384186637618,5.38000011444092,0.130584716796875,-0.998931884765625,0.134521484375,0.000579237537092234,0.0361590697005509,-0.0224778785485958
1492637362.9,40.4423257009802,-79.9384186637618,5.38000011444092,0.039459228515625,-0.989288330078125,0.118621826171875,-0.0223194204637361,-0.0179401183672098,-0.0129767850436291
1492637363.1,40.4423257009802,-79.9384186637618,5.38000011444092,0.047607421875,-0.98529052734375,0.10980224609375,0.0139067608962848,0.0105469168650408,0.00118137825955915
1492637363.3,40.4422389793672,-79.9386101237733,4.76000022888184,0.018035888671875,-1.01181030273438,0.15179443359375,0.0367170019489225,-0.0225724207672936,0.0281557379926447
1492637363.5,40.4422389793672,-79.9386101237733,4.76000022888184,-0.0044097900390625,-0.97406005859375,0.149581909179688,0.0166801768554933,-0.0415929835887485,0.00347675680309845
1492637363.7,40.4422389793672,-79.9386101237733,4.76000022888184,0.0688018798828125,-0.976089477539062,0.179214477539062,-0.00207620038582577,0.0149062452533915,0.00420513136123512
1492637363.9,40.4422389793672,-79.9386101237733,4.76000022888184,0.0514678955078125,-0.957809448242188,0.160812377929688,0.00302375310167597,-0.00320910911354548,0.0107013802082654
1492637364.1,40.4422191534809,-79.9386538915677,3.97000002861023,0.0171661376953125,-0.943893432617188,0.195083618164062,0.00814501187789834,-0.0457925223116945,0.00233399437934544
1492637364.3,40.4422191534809,-79.9386538915677,3.97000002861023,0.08160400390625,-0.947402954101562,0.197891235351562,-0.0393697767107504,0.017276724939671,0.00701583157570475
1492637364.5,40.4422191534809,-79.9386538915677,3.97000002861023,0.035186767578125,-0.938385009765625,0.1868896484375,-0.0312966701822842,-0.0263868663966141,0.0157408799390223
1492637364.7,40.4422191534809,-79.9386538915677,3.97000002861023,0.03955078125,-0.957534790039062,0.168731689453125,-0.0161028035311641,-0.0232975995321222,-0.00330338501613429
1492637364.9,40.4422191534809,-79.9386538915677,3.97000002861023,0.0715484619140625,-0.975326538085938,0.190872192382812,-0.0243197207584946,0.0012199940953653,-0.0119804964798305
1492637365.1,40.4422191534809,-79.9386538915677,3.97000002861023,0.0378265380859375,-0.9639892578125,0.272842407226562,0.00193771600914165,-0.025541845382732,8.57537871005515e-05
1492637365.3,40.4422017118122,-79.9386923959432,3.64000010490417,0.0757904052734375,-0.953018188476562,0.224761962890625,-0.00912904990068262,-0.0403583421073878,0.0224011795092015
1492637365.5,40.4422017118122,-79.9386923959432,3.64000010490417,0.069732666015625,-0.927932739257812,0.270217895507812,0.00975302854408819,0.0148279483173432,-0.00420326714847206
1492637365.7,40.4422017118122,-79.9386923959432,3.64000010490417,0.0617218017578125,-0.949996948242188,0.241409301757812,-0.00643100140032334,0.00216994365619656,0.00419341345243877
1492637365.9,40.4422017118122,-79.9386923959432,3.64000010490417,0.065093994140625,-0.963180541992188,0.286270141601562,0.0108670288280683,0.011628692899831,-0.0095146756265261
1492637366.1,40.4422017118122,-79.9386923959432,3.64000010490417,0.0791473388671875,-0.929962158203125,0.240936279296875,-0.0189095090039986,0.0107581055394841,-0.0130159335116533
1492637366.3,40.4421835842068,-79.9387324145984,4.0,0.0289764404296875,-1.00242614746094,0.335037231445312,0.0542493903532411,-0.0248198624112115,-0.00897645077022108
1492637366.5,40.4421835842068,-79.9387324145984,4.0,0.0232391357421875,-0.943405151367188,0.23272705078125,0.00357183165401427,-0.0212914402829655,0.0384752209005928
1492637366.7,40.4421835842068,-79.9387324145984,4.0,0.0054931640625,-0.992584228515625,0.271820068359375,-0.00445866429701066,-0.00316010694948802,0.0127570742536976
1492637366.9,40.4421835842068,-79.9387324145984,4.0,0.0710296630859375,-0.9498291015625,0.227996826171875,0.0116894129726848,-0.00113956663044491,0.00118883511061137
1492637367.1,40.4421835842068,-79.9387324145984,4.0,0.0146942138671875,-0.952255249023438,0.143325805664062,-0.0434334942181023,-0.0380049066520848,0.0401695239861012
1492637367.3,40.4421637294936,-79.9387762460314,4.48000001907349,0.0706329345703125,-0.979110717773438,0.20745849609375,0.00746377527105607,-0.0181334638623495,-0.0105389273817706
1492637367.5,40.4421637294936,-79.9387762460314,4.48000001907349,0.058990478515625,-0.966262817382812,0.203414916992188,-0.0351521284923919,0.00980309597258168,0.00601208616085388
1492637367.7,40.4421637294936,-79.9387762460314,4.48000001907349,0.047698974609375,-0.9742431640625,0.183486938476562,-0.0119064606015263,-0.0180050994978077,0.00418941871080365
1492637367.9,40.4421637294936,-79.9387762460314,4.48000001907349,0.04541015625,-0.993865966796875,0.12518310546875,0.00777935986023046,0.0180303995281635,-0.0138276650119094
1492637368.1,40.4421637294936,-79.9387762460314,4.48000001907349,0.048095703125,-0.967071533203125,0.174697875976562,0.00272547905958709,-0.0234161102006307,0.0214126141125641
1492637368.3,40.4421435616493,-79.9388207687353,4.34000015258789,0.0282440185546875,-0.9759521484375,0.193603515625,-0.0101311974188794,-0.0339696849683967,0.021308218197833
1492637368.5,40.4421435616493,-79.9388207687353,4.34000015258789,0.0654754638671875,-0.9874267578125,0.223785400390625,-0.0197657152944591,-0.0466721644197477,0.0180437153336139
1492637368.7,40.4421435616493,-79.9388207687353,4.34000015258789,0.0613861083984375,-0.998336791992188,0.1658935546875,-0.0457608306947225,0.0013611416331395,-0.00153824184562977
1492637368.9,40.4421435616493,-79.9388207687353,4.34000015258789,0.04766845703125,-0.96527099609375,0.12567138671875,-0.00324745863324262,-0.0148716241592205,-0.00425972616358174
1492637369.1,40.4421435616493,-79.9388207687353,4.34000015258789,0.0286865234375,-0.968841552734375,0.1156005859375,-0.00652154887738604,-0.0371894467263025,-0.0106329369682504
1492637369.3,40.4421248982631,-79.9388619701847,3.84999990463257,0.0814971923828125,-0.984634399414062,0.108489990234375,-0.0293650794436497,-0.010452374646343,-0.0386573811191542
1492637369.5,40.4421248982631,-79.9388619701847,3.84999990463257,0.0892486572265625,-0.9693603515625,0.138214111328125,-0.0175651452857266,0.0362775803690594,-0.0194653107234982
1492637369.7,40.4421248982631,-79.9388619701847,3.84999990463257,0.0562896728515625,-0.9990234375,0.14630126953125,-0.0276071268080884,0.00443389689887292,-0.00349273576963892
1492637369.9,40.4421248982631,-79.9388619701847,3.84999990463257,0.045867919921875,-0.967437744140625,0.147689819335938,-0.0231937362496091,0.00546720340182367,-0.0141123569324389
1492637370.1,40.4421098315929,-79.9388952314932,2.88000011444092,0.0955810546875,-0.954696655273438,0.11590576171875,-0.0348778229001137,0.00341523778191762,-0.0174253293284975
1492637370.3,40.4421098315929,-79.9388952314932,2.88000011444092,0.0638580322265625,-0.966400146484375,0.203994750976562,-0.00288393714444681,-0.00743155102186611,-0.0266656993627454
1492637370.5,40.4421098315929,-79.9388952314932,2.88000011444092,0.0891876220703125,-0.97967529296875,0.191238403320312,-0.00196035287840733,0.0127765153296551,-0.0053841127758132
1492637370.7,40.4421098315929,-79.9388952314932,2.88000011444092,0.1168212890625,-0.964401245117188,0.181396484375,-0.0104262756676602,0.00219284684157124,-0.0150394033078955
1492637370.9,40.4421098315929,-79.9388952314932,2.88000011444092,0.108261108398438,-0.949264526367188,0.212448120117188,-0.016669524211133,0.0235079892582384,-0.0140921169081543
1492637371.1,40.4421098315929,-79.9388952314932,2.88000011444092,0.08697509765625,-0.9599609375,0.179840087890625,-0.0506530576171981,0.0588337558537035,-0.00173664734684067
1492637371.3,40.442096586864,-79.9389244706691,2.75,0.099273681640625,-0.937911987304688,0.305465698242188,-0.0237404832214024,0.0607829234555325,-0.0217242039601034
1492637371.5,40.442096586864,-79.9389244706691,2.75,0.0839996337890625,-0.867706298828125,0.378768920898438,-0.0437906241202819,0.0555921561748591,-0.0379092991689509
1492637371.7,40.442096586864,-79.9389244706691,2.75,0.143402099609375,-0.900436401367188,0.33770751953125,-0.000658599737576596,0.0287224586726136,-0.0139416483065648
1492637371.9,40.442096586864,-79.9389244706691,2.75,0.134201049804688,-0.900497436523438,0.366775512695312,-0.0513382889656755,0.0567061564588392,-0.0305259513628153
1492637372.1,40.442096586864,-79.9389244706691,2.75,0.105316162109375,-0.92041015625,0.385696411132812,-0.0285173952686775,0.0172037543258029,-0.00779986620062407
1492637372.3,40.4420819002701,-79.938956892918,3.49000000953674,0.0861968994140625,-0.92852783203125,0.34576416015625,0.0444830460037025,-0.00241415552815683,0.0164548734272726
1492637372.5,40.4420819002701,-79.938956892918,3.49000000953674,0.064788818359375,-0.933334350585938,0.40380859375,0.013511281474408,-0.0362536119192487,0.00449674750059879
1492637372.7,40.4420819002701,-79.938956892918,3.49000000953674,0.0571136474609375,-0.953384399414062,0.3958740234375,0.0285054110437721,-0.0129482892199653,0.0109874037093399
1492637372.9,40.4420819002701,-79.938956892918,3.49000000953674,0.0768890380859375,-0.908554077148438,0.37432861328125,-0.00908244458160623,-0.024402012436178,0.0276915490146439
1492637373.1,40.4420819002701,-79.938956892918,3.49000000953674,0.0724029541015625,-0.923797607421875,0.375839233398438,0.00242640606917119,0.0414694129141689,0.000984038022784279
