timestamp,latitude,longitude,speed,accelerometerX,accelerometerY,accelerometerZ,gyroX,gyroY,gyroZ
1492637561.6,40.4438430830304,-79.9510207242199,0.0,0.044891357421875,-0.959564208984375,0.2242431640625,-0.00863370193792788,-0.00951680615539816,0.00313480691913227
1492637561.8,40.4438430830304,-79.9510207242199,0.0,0.04681396484375,-0.956756591796875,0.224044799804688,-0.0128620028006467,-0.00736204251741505,0.00201974137071609
1492637562.0,40.4438430830304,-79.9510207242199,0.0,0.055633544921875,-0.953323364257812,0.219924926757812,-0.0117373498723062,-0.00524243260582098,-0.0011728561440709
1492637562.2,40.4438426536213,-79.951022350062,0.0,0.049285888671875,-0.948928833007812,0.223480224609375,-0.0160415508260923,-0.00734153617702144,0.000920921104949401
1492637562.4,40.4438426536213,-79.951022350062,0.0,0.062744140625,-0.950576782226562,0.234375,-0.0107405286762896,-0.00843955749446111,0.00204424245274482
1492637562.6,40.4438426536213,-79.951022350062,0.0,0.0614471435546875,-0.948226928710938,0.240005493164062,-0.0171049510493609,-0.00520701256332293,0.00197073920665864
1492637562.8,40.4438426536213,-79.951022350062,0.0,0.0499725341796875,-0.950836181640625,0.260223388671875,-0.0138441766106679,-0.00416518394488393,-0.00226342061045834
1492637563.0,40.4438426536213,-79.951022350062,0.0,0.068634033203125,-0.931411743164062,0.338699340820312,-7.05737688870998e-05,-0.00744539945953453,0.00108470551198927
1492637563.2,40.4438433952843,-79.9510195419547,0.0,0.064361572265625,-0.9154052734375,0.381622314453125,0.00010386328251309,0.00212573518210125,-0.00640170662833247
1492637563.4,40.4438433952843,-79.9510195419547,0.0,0.0725860595703125,-0.90875244140625,0.429534912109375,-0.0168972244843348,0.0107463876306877,-0.00446558851584487
1492637563.6,40.4438433952843,-79.9510195419547,0.0,0.062957763671875,-0.903350830078125,0.419601440429688,-0.00330338501613429,-0.0106153601050558,0.00212600149821026
1492637563.8,40.4438433952843,-79.9510195419547,0.0,0.0555419921875,-0.895370483398438,0.4715576171875,0.0560132019432006,0.0389892109909781,-0.0251162722405373
1492637564.0,40.4438433952843,-79.9510195419547,0.0,0.0523834228515625,-0.910232543945312,0.516067504882812,-0.0194541254469198,-0.0402949588734439,-0.00116140455138356
1492637564.2,40.4438466757026,-79.9510071215338,1.47000002861023,0.073211669921875,-0.887619018554688,0.442291259765625,-0.0142037033578286,-0.0286263185572617,0.0105905927069181
1492637564.4,40.4438466757026,-79.9510071215338,1.47000002861023,0.043365478515625,-0.8634033203125,0.494644165039062,-0.0842008978689263,-0.0611400533577121,0.0494077634914771
1492637564.6,40.4438466757026,-79.9510071215338,1.47000002861023,0.08917236328125,-0.921707153320312,0.45892333984375,0.0320378279136532,0.0359601315671219,0.0130297819493217
1492637564.8,40.4438466757026,-79.9510071215338,1.47000002861023,0.041778564453125,-0.936233520507812,0.483993530273438,-0.0485954993590029,0.0258430489020199,-0.0144250120444142
1492637565.0,40.4438466757026,-79.9510071215338,1.47000002861023,0.03765869140625,-0.927963256835938,0.331344604492188,-0.0598473549645877,-0.0155653776231861,0.00689092932058003
1492637565.2,40.4438560868288,-79.9509714888368,4.13000011444092,0.108917236328125,-0.8875732421875,0.316253662109375,-0.0305256850467062,0.011896340589384,-0.0195350855440582
1492637565.4,40.4438560868288,-79.9509714888368,4.13000011444092,0.0616455078125,-0.914398193359375,0.345046997070312,-0.0175270620821385,-0.00094409060643309,0.0350080514774186
1492637565.6,40.4438560868288,-79.9509714888368,4.13000011444092,0.054595947265625,-0.906097412109375,0.247116088867188,-0.0095146756265261,0.00325251863931377,-0.00330445028057032
1492637565.8,40.4438560868288,-79.9509714888368,4.13000011444092,0.06103515625,-0.904251098632812,0.331298828125,-0.0175052241611998,0.00329832501006314,-0.0417700838012388
1492637566.0,40.4438560868288,-79.9509714888368,4.13000011444092,0.0923004150390625,-0.910003662109375,0.310501098632812,-0.0579908653686934,-0.100679207113792,-0.019525764480243
1492637566.2,40.443869941007,-79.9509190337196,5.26000022888184,0.1236572265625,-0.908309936523438,0.313858032226562,0.0890579710650128,-0.0335529002577993,0.0105943211324442
1492637566.4,40.443869941007,-79.9509190337196,5.26000022888184,0.0829925537109375,-0.927398681640625,0.306060791015625,0.00371750656564161,0.0520964909280211,-0.00969230847123438
1492637566.6,40.443869941007,-79.9509190337196,5.26000022888184,0.0462188720703125,-0.970672607421875,0.431808471679688,0.00165329040472119,0.0510453412457668,-0.0150418001528765
1492637566.8,40.443869941007,-79.9509190337196,5.26000022888184,0.104476928710938,-0.884689331054688,0.331893920898438,-0.124489198839645,0.0933477909489124,-0.0345680972653375
1492637567.0,40.443869941007,-79.9509190337196,5.26000022888184,0.035888671875,-1.01179504394531,0.311019897460938,0.033611223485672,0.0295610880998795,-0.0274537287292998
1492637567.2,40.4438879327998,-79.9508509126377,6.42999982833862,0.0100860595703125,-0.92669677734375,0.28875732421875,0.0148929294479411,0.00203092664729443,0.00227966589310783
1492637567.4,40.4438879327998,-79.9508509126377,6.42999982833862,0.0211334228515625,-0.9013671875,0.284912109375,0.0249929678820666,-0.0650485085735124,0.00575482479955223
1492637567.6,40.4438879327998,-79.9508509126377,6.42999982833862,0.0924072265625,-0.97906494140625,0.218917846679688,-0.0691662882509929,-0.0506136428330649,-0.0314977388445852
1492637567.8,40.4438879327998,-79.9508509126377,6.42999982833862,-0.01153564453125,-1.00331115722656,0.126327514648438,0.0236153146501686,-0.0501425296362299,0.0366224597302246
1492637568.0,40.4438879327998,-79.9508509126377,6.42999982833862,0.0433197021484375,-0.968307495117188,0.187408447265625,-0.0327129392499883,-0.0731812699103964,0.0158471400665165
1492637568.2,40.4439041985176,-79.9507893268744,6.80999994277954,0.0447540283203125,-0.95465087890625,0.23565673828125,0.0645829880149666,-0.00681103448787765,-0.0536981160075947
1492637568.4,40.4439041985176,-79.9507893268744,6.80999994277954,0.352783203125,-0.960891723632812,0.255264282226562,0.0502828782256771,0.0401074723327023,0.0825097905767259
1492637568.6,40.4439041985176,-79.9507893268744,6.80999994277954,-0.024261474609375,-1.04261779785156,0.36328125,0.0648828599537095,0.204844758410606,-0.192849081912562
1492637568.8,40.4439041985176,-79.9507893268744,6.80999994277954,-0.09307861328125,-0.858139038085938,0.312973022460938,0.0437027398043093,0.00291909087083585,0.0761411071459105
1492637569.0,40.4439041985176,-79.9507893268744,6.80999994277954,-0.051544189453125,-0.93829345703125,0.22418212890625,-0.0358528061751917,0.104470216925519,-0.0464838789306791
1492637569.2,40.4439274287194,-79.9506975445347,7.03999996185303,0.190505981445312,-0.929183959960938,0.359283447265625,0.0518530780043878,-0.0811707531806341,0.0572497076373244
1492637569.4,40.4439274287194,-79.9506975445347,7.03999996185303,0.14617919921875,-0.922348022460938,0.416473388671875,-0.010249708087388,-0.0126912941747726,0.0415101592788471
1492637569.6,40.4439274287194,-79.9506975445347,7.03999996185303,0.15972900390625,-0.8714599609375,0.329437255859375,-0.0412355873704599,0.0289877095171855,-0.0058280617295294
1492637569.8,40.4439274287194,-79.9506975445347,7.03999996185303,0.1007080078125,-0.95306396484375,0.29302978515625,-0.0926037037403443,-0.0483334443077391,-0.029611155528373
1492637570.0,40.4439274287194,-79.9506975445347,7.03999996185303,0.101593017578125,-0.966598510742188,0.2548828125,0.0440268465089719,0.0454532355888184,-0.00179896531634853
1492637570.2,40.4439492066437,-79.950611493567,8.27000045776367,-0.0066375732421875,-0.968002319335938,0.233901977539062,0.0185241495942642,-0.0575463837827592,0.09309878538699
1492637570.4,40.4439492066437,-79.950611493567,8.27000045776367,0.06878662109375,-1.00192260742188,0.293228149414062,-0.0456116936736781,-0.0177901823978383,-0.0228115726331827
1492637570.6,40.4439492066437,-79.950611493567,8.27000045776367,0.0549163818359375,-0.966812133789062,0.220657348632812,-0.0246925633111057,-0.0562190642954637,-0.0161009393184011
1492637570.8,40.4439492066437,-79.950611493567,8.27000045776367,0.0442657470703125,-0.96234130859375,0.15631103515625,-0.022854982158951,0.0714049414633135,-0.0803843217107337
1492637571.0,40.4439492066437,-79.950611493567,8.27000045776367,0.0790557861328125,-0.94482421875,0.184356689453125,-0.101860052741133,0.0166154620410044,-0.0181451817711459
1492637571.2,40.4439722886803,-79.9505202896687,8.14999961853027,0.092864990234375,-0.916000366210938,0.125381469726562,-0.110997092125086,0.0337031025432798,0.0360940885699529
1492637571.4,40.4439722886803,-79.9505202896687,8.14999961853027,0.044525146484375,-1.12310791015625,0.163330078125,0.0140692137227796,-0.0107322728769103,-0.0222187529745311
1492637571.6,40.4439722886803,-79.9505202896687,8.14999961853027,0.105667114257812,-1.02171325683594,0.023681640625,0.0495249425794405,0.00818202981705044,-0.0346991247909694
1492637571.8,40.4439722886803,-79.9505202896687,8.14999961853027,-0.01202392578125,-1.0390625,0.083770751953125,0.0125256455549697,0.0828863615548632,-0.013946441996527
1492637572.0,40.4439722886803,-79.9505202896687,8.14999961853027,0.05255126953125,-0.961074829101562,0.117965698242188,-0.039626239123725,-0.00187965909737793,-0.0622412704684599
1492637572.2,40.4439937700418,-79.9504354105078,7.07000017166138,0.12689208984375,-1.03706359863281,0.04541015625,-0.0410411766108841,0.10557862457121,0.0216978386653116
1492637572.4,40.4439937700418,-79.9504354105078,7.07000017166138,0.0256805419921875,-1.01947021484375,0.017852783203125,-0.0756633360463502,0.0728196126343636,-0.0340152250230371
1492637572.6,40.4439937700418,-79.9504354105078,7.07000017166138,0.0823974609375,-0.970550537109375,0.0069122314453125,0.00687521667014856,0.0127277794817067,0.0490833904707054
1492637572.8,40.4439937700418,-79.9504354105078,7.07000017166138,-0.0078277587890625,-0.9893798828125,0.008331298828125,0.0610545658867206,0.0676826412077098,0.0111125722805736
1492637573.0,40.4439937700418,-79.9504354105078,7.07000017166138,0.132568359375,-1.01144409179688,0.041412353515625,-0.0571431811937212,-0.0496192184820293,0.02406592150661
1492637573.2,40.444010920014,-79.9503676459363,5.15999984741211,0.06219482421875,-1.02392578125,-0.103912353515625,0.0103690177042235,-0.0234680418418873,0.00763022283918603
1492637573.4,40.444010920014,-79.9503676459363,5.15999984741211,0.0394744873046875,-1.04379272460938,-0.076263427734375,0.0228240894903061,0.0519729202534414,-0.00523151364535166
1492637573.6,40.444010920014,-79.9503676459363,5.15999984741211,0.101181030273438,-0.999343872070312,-0.0563201904296875,-0.0907839657674931,0.0463251545297103,-0.0330354480579969
1492637573.8,40.444010920014,-79.9503676459363,5.15999984741211,0.0448760986328125,-1.01066589355469,-0.03607177734375,-0.0512789004733667,0.0184202863117511,0.0218179472304742
1492637574.0,40.444010920014,-79.9503676459363,5.15999984741211,0.0224456787109375,-0.995254516601562,0.01116943359375,0.00850853336669416,-0.0032466596849156,-0.000970722217333882
1492637574.2,40.4440203384522,-79.9503304309237,2.28999996185303,0.03741455078125,-1.01596069335938,-0.063934326171875,-0.0189334774538093,0.0309709655809675,-0.000273772960060146
1492637574.4,40.4440203384522,-79.9503304309237,2.28999996185303,0.0067291259765625,-0.995956420898438,0.0211181640625,-0.0322815071533955,-0.0274452066138116,0.00933624383349079
1492637574.6,40.4440203384522,-79.9503304309237,2.28999996185303,0.038726806640625,-0.983444213867188,0.0654449462890625,-0.00872824415662569,-0.0201532052330656,0.00422750191439178
1492637574.8,40.4440203384522,-79.9503304309237,2.28999996185303,0.04632568359375,-0.988235473632812,0.0750732421875,-0.00746910159323623,-0.00207886354691585,-7.11064011051157e-05
1492637575.0,40.4440203384522,-79.9503304309237,2.28999996185303,0.029327392578125,-0.991012573242188,0.086822509765625,-0.0119397501151522,-0.0126854352203744,0.00950641982714685
1492637575.2,40.4440240220279,-79.9503158760357,0.319999992847443,0.0465240478515625,-0.98321533203125,0.262008666992188,-6.79106077970206e-05,-0.00319020066980592,0.00320617963634639
1492637575.4,40.4440240220279,-79.9503158760357,0.319999992847443,0.0631103515625,-0.93011474609375,0.248779296875,-0.0041777008020073,0.00109003183416943,-0.00537665592476097
1492637575.6,40.4440240220279,-79.9503158760357,0.319999992847443,0.0472869873046875,-0.983474731445312,0.2103271484375,-0.0160029349902861,-0.0041508028749975,-0.000153131762679556
1492637575.8,40.4440240220279,-79.9503158760357,0.319999992847443,0.0523529052734375,-0.941070556640625,0.225479125976562,-0.0139027661546497,-0.0041641186804479,0.00200083292697653
1492637576.0,40.4440240220279,-79.9503158760357,0.319999992847443,0.05645751953125,-0.95068359375,0.234390258789062,-0.0159869560237457,-0.00202346979624221,-0.000158458084859715
1492637576.2,40.4440242511438,-79.9503149707314,0.0,0.048919677734375,-0.960159301757812,0.215499877929688,-0.0149674979584633,-0.00415719446161369,0.00198991396650721
1492637576.4,40.4440242511438,-79.9503149707314,0.0,0.0519561767578125,-0.952728271484375,0.230056762695312,-0.0160189139568266,-0.0062781359537528,-0.000147805440499398
1492637576.6,40.4440242511438,-79.9503149707314,0.0,0.0521240234375,-0.95635986328125,0.22613525390625,-0.0149315452837473,-0.00522165994931836,-0.00120561302547887
1492637576.8,40.4440242511438,-79.9503149707314,0.0,0.0529327392578125,-0.9559326171875,0.212249755859375,-0.0117519972583017,-0.00524216628971197,-0.000106792759712177
1492637577.0,40.4440242511438,-79.9503149707314,0.0,0.0548858642578125,-0.951675415039062,0.229690551757812,-0.0138441766106679,-0.00416518394488393,-0.00226342061045834
1492637577.2,40.4440242475201,-79.9503149850499,0.0,0.05487060546875,-0.960586547851562,0.220703125,-0.0138375187079427,-0.00522911680037058,-0.00332682083372698
1492637577.4,40.4440242475201,-79.9503149850499,0.0,0.052703857421875,-0.958267211914062,0.223739624023438,-0.0128007500955749,-0.00310790899212247,-0.000123038042361661
1492637577.6,40.4440242475201,-79.9503149850499,0.0,0.0520172119140625,-0.952743530273438,0.223541259765625,-0.0138588239966633,-0.00416491762877492,-0.00119735722609963
1492637577.8,40.4440242475201,-79.9503149850499,0.0,0.0535736083984375,-0.956161499023438,0.223434448242188,-0.0170676667940998,-0.00414387865616329,-0.000164050723148881
1492637578.0,40.4440242475201,-79.9503149850499,0.0,0.051055908203125,-0.956710815429688,0.226913452148438,-0.0160029349902861,-0.0041508028749975,-0.000153131762679556
1492637578.2,40.4440242501024,-79.9503149748464,0.0,0.0520172119140625,-0.95782470703125,0.225296020507812,-0.0159802981210205,-0.00308740265172886,-0.00122185830812835
1492637578.4,40.4440242501024,-79.9503149748464,0.0,0.05279541015625,-0.952133178710938,0.225448608398438,-0.017074324696825,-0.00307994580067664,0.000899349500119759
1492637578.6,40.4440242501024,-79.9503149748464,0.0,0.0525665283203125,-0.957595825195312,0.2265625,-0.0160029349902861,-0.0041508028749975,-0.000153131762679556
1492637578.8,40.4440242501024,-79.9503149748464,0.0,0.054901123046875,-0.95855712890625,0.223678588867188,-0.0160029349902861,-0.0041508028749975,-0.000153131762679556
1492637579.0,40.4440242501024,-79.9503149748464,0.0,0.05206298828125,-0.95623779296875,0.2274169921875,-0.0149382031864725,-0.00415772709383171,-0.000142212802210231
1492637579.2,40.4440242526777,-79.9503149646705,0.0,0.0621185302734375,-0.931854248046875,0.2579345703125,-0.0235106524193285,-0.00942039972393729,0.000849814703844285
1492637579.4,40.4440242526777,-79.9503149646705,0.0,0.0365142822265625,-0.964736938476562,0.246658325195312,-0.00658280158245786,-0.0180397205919787,0.00424401351315027
1492637579.6,40.4440242526777,-79.9503149646705,0.0,0.0479736328125,-0.95843505859375,0.244476318359375,-0.00860307558539197,-0.00738973939275187,0.00206341721259339
1492637579.8,40.4440242526777,-79.9503149646705,0.0,0.053436279296875,-0.95220947265625,0.240341186523438,-0.0117653130637521,-0.00311430057873866,0.0020200076868251
1492637580.0,40.4440242526777,-79.9503149646705,0.0,0.0487213134765625,-0.952621459960938,0.23809814453125,-0.016064187695358,-0.00840493640029008,0.0019896476503982
1492637580.2,40.4440251099516,-79.9503115773299,0.150000005960464,0.0645294189453125,-0.95599365234375,0.2393798828125,-0.0159257033186738,0.00223066372905037,-0.00230123749793747
1492637580.4,40.4440251099516,-79.9503115773299,0.150000005960464,0.0603179931640625,-0.9329833984375,0.284423828125,-0.0107338707735644,-0.00950349034994776,0.000980842229476183
1492637580.6,40.4440251099516,-79.9503115773299,0.150000005960464,0.052978515625,-0.949249267578125,0.27081298828125,-0.0159802981210205,-0.00308740265172886,-0.00122185830812835
1492637580.8,40.4440251099516,-79.9503115773299,0.150000005960464,0.0535736083984375,-0.943511962890625,0.275421142578125,-0.0117453393555765,-0.00630609914519863,-0.00117019298298082
1492637581.0,40.4440251099516,-79.9503115773299,0.150000005960464,0.055511474609375,-0.94403076171875,0.288833618164062,-0.0126649288799808,0.00327249234748937,-0.00653539731505445
1492637581.2,40.4440268112637,-79.9503048549467,0.449999988079071,0.073516845703125,-0.958709716796875,0.2750244140625,-0.028533374235218,0.0150764212470476,-0.00779453987844391
1492637581.4,40.4440268112637,-79.9503048549467,0.449999988079071,0.06817626953125,-0.932418823242188,0.272613525390625,-0.0241785732207204,0.0278127228442425,-0.00778282196964757
1492637581.6,40.4440268112637,-79.9503048549467,0.449999988079071,0.0543212890625,-0.950347900390625,0.279251098632812,-0.014789066165428,0.011796738364615,-0.00231428698727886
1492637581.8,40.4440268112637,-79.9503048549467,0.449999988079071,0.0927581787109375,-0.953094482421875,0.28033447265625,-0.0282111317433184,0.0384744219522657,-0.0185137632660128
1492637582.0,40.4440268112637,-79.9503048549467,0.449999988079071,0.103729248046875,-0.936569213867188,0.234771728515625,-0.0342280115941344,0.0704235666016193,-0.0282537423207596
1492637582.2,40.4440290329247,-79.9502960765124,0.889999985694885,0.052642822265625,-0.943359375,0.2281494140625,-0.00294252668842855,0.0393772335618026,0.00306689631133525
1492637582.4,40.4440290329247,-79.9502960765124,0.889999985694885,0.056854248046875,-0.951705932617188,0.227859497070312,-0.00457531075275613,0.0606582875165168,-0.0215276626716555
1492637582.6,40.4440290329247,-79.9502960765124,0.889999985694885,0.057403564453125,-0.970947265625,0.21527099609375,-0.0228355410829934,0.0512045982789535,-0.015292936243671
1492637582.8,40.4440290329247,-79.9502960765124,0.889999985694885,0.039520263671875,-0.956893920898438,0.22021484375,-0.00910854356028901,0.0436699829229013,-0.0108680940925044
1492637583.0,40.4440290329247,-79.9502960765124,0.889999985694885,0.0405731201171875,-0.955368041992188,0.209518432617188,-0.0283576056032727,0.050179014943164,-0.00148604388826421
1492637583.2,40.4440316080477,-79.9502859014458,0.939999997615814,0.05413818359375,-0.966583251953125,0.175033569335938,-0.0183808715276179,0.0596838368736568,-0.0248651361497428
1492637583.4,40.4440316080477,-79.9502859014458,0.939999997615814,0.0429840087890625,-0.966567993164062,0.182998657226562,-0.00707761691299458,0.0500407968825889,-0.000201601294518998
1492637583.6,40.4440316080477,-79.9502859014458,0.939999997615814,0.038543701171875,-0.965362548828125,0.169235229492188,-0.0106326706521414,0.0234728355318494,0.0115589180792709
1492637583.8,40.4440316080477,-79.9502859014458,0.939999997615814,0.03350830078125,-0.973251342773438,0.148178100585938,-0.0039153794346345,0.0340634282387675,-0.00652527730291215
1492637584.0,40.4440316080477,-79.9502859014458,0.939999997615814,0.0264739990234375,-0.972747802734375,0.16217041015625,-0.0158431453248814,0.0171225279125555,-0.000206394984481141
1492637584.2,40.4440334388532,-79.9502786673963,0.379999995231628,0.0328521728515625,-0.974563598632812,0.167251586914062,-0.0127141973601473,0.00646482354616735,-0.00121306987653109
1492637584.4,40.4440334388532,-79.9502786673963,0.379999995231628,0.044281005859375,-0.955459594726562,0.21551513671875,-0.0138042291943167,0.00115314875200431,-0.00227673641590874
1492637584.6,40.4440334388532,-79.9502786673963,0.379999995231628,0.0377044677734375,-0.96148681640625,0.247116088867188,-0.0125876972083685,0.00965395895153724,-0.00868350305031236
1492637584.8,40.4440334388532,-79.9502786673963,0.379999995231628,0.0468597412109375,-0.962356567382812,0.237136840820312,-0.00751304375122254,-0.00207806459858883,0.00312708375197104
1492637585.0,40.4440334388532,-79.9502786673963,0.379999995231628,0.0442352294921875,-0.952804565429688,0.240631103515625,-0.0181070985675577,0.00118164457566816,0.000877777895290117
1492637585.2,40.4440342136017,-79.9502756061378,0.189999997615814,0.0494232177734375,-0.951202392578125,0.236541748046875,-0.0148742873203106,0.00435160522118948,-0.000163518090930865
1492637585.4,40.4440342136017,-79.9502756061378,0.189999997615814,0.0469512939453125,-0.954132080078125,0.251907348632812,-0.0126689236216159,0.00859162399270463,-0.00335052296742869
1492637585.6,40.4440342136017,-79.9502756061378,0.189999997615814,0.0565032958984375,-0.946517944335938,0.244613647460938,-0.0210855779307024,0.0182194839655591,-0.00559396986971144
1492637585.8,40.4440342136017,-79.9502756061378,0.189999997615814,0.0650634765625,-0.95849609375,0.2464599609375,-0.0136164763374661,0.0202983475124749,-0.00552286346860632
1492637586.0,40.4440342136017,-79.9502756061378,0.189999997615814,0.060150146484375,-0.957733154296875,0.234451293945312,-0.0147331397825364,0.0192424041402585,-0.00233292911490941
1492637586.2,40.4440349200897,-79.9502728145963,0.319999992847443,0.03961181640625,-0.952590942382812,0.2303466796875,-0.0169464929645012,0.0139387188293657,0.000856738922678491
1492637586.4,40.4440349200897,-79.9502728145963,0.319999992847443,0.0551605224609375,-0.953231811523438,0.230224609375,-0.0167667295909209,0.0203183212206505,-0.00875381050309046
1492637586.6,40.4440349200897,-79.9502728145963,0.319999992847443,0.0458831787109375,-0.952224731445312,0.2327880859375,-0.0136084868541959,0.0213620140518526,-0.0055255266296964
1492637586.8,40.4440349200897,-79.9502728145963,0.319999992847443,0.0501556396484375,-0.954421997070312,0.231582641601562,-0.0168239875543576,0.0224469858799509,-0.00342881990347702
1492637587.0,40.4440349200897,-79.9502728145963,0.319999992847443,0.03680419921875,-0.95648193359375,0.235580444335938,-0.0145973185669423,0.0256228054798704,-0.0087452883876022
1492637587.2,40.444035877301,-79.9502690323735,0.370000004768372,0.0421295166015625,-0.956573486328125,0.233795166015625,-0.0105407915945336,0.0181521059899801,0.00197766342549284
1492637587.4,40.444035877301,-79.9502690323735,0.370000004768372,0.04144287109375,-0.955078125,0.247848510742188,-0.0137043606534388,0.020299945409129,0.00087351683754599
1492637587.6,40.444035877301,-79.9502690323735,0.370000004768372,0.042724609375,-0.954666137695312,0.23931884765625,-0.0155355502189772,0.0405207949338826,-0.00985955498769136
1492637587.8,40.444035877301,-79.9502690323735,0.370000004768372,0.06195068359375,-0.9564208984375,0.242767333984375,-0.0196187088022867,0.0522472258457195,-0.0163289059077118
1492637588.0,40.444035877301,-79.9502690323735,0.370000004768372,0.0635223388671875,-0.970916748046875,0.238662719726562,-0.0208831776878563,0.0490663462397289,-0.0035390747726063
1492637588.2,40.444037026975,-79.9502644896744,0.439999997615814,0.064178466796875,-0.955490112304688,0.232406616210938,-0.0157033293676522,0.0298857274367602,-0.00343654307063825
1492637588.4,40.444037026975,-79.9502644896744,0.439999997615814,0.0466156005859375,-0.953369140625,0.21484375,-0.0284414951776102,0.0331595513647946,-0.0046416234638991
1492637588.6,40.444037026975,-79.9502644896744,0.439999997615814,0.0406494140625,-0.9598388671875,0.224319458007812,-0.0167134663691193,0.0352107180363736,-0.00452684122091669
1492637588.8,40.444037026975,-79.9502644896744,0.439999997615814,0.0289764404296875,-0.96148681640625,0.205047607421875,-0.0200954146374109,0.0277882217622138,0.00505361448453436
1492637589.0,40.444037026975,-79.9502644896744,0.439999997615814,0.021331787109375,-0.958343505859375,0.210205078125,-0.0157339557201881,0.0277586606741139,-0.00236515336409937
1492637589.2,40.4440381998608,-79.9502598552586,0.439999997615814,0.0307769775390625,-0.953369140625,0.218887329101562,-0.0221769413454168,0.0224821396063399,-0.00135128793710621
1492637589.4,40.4440381998608,-79.9502598552586,0.439999997615814,0.0235595703125,-0.950241088867188,0.23614501953125,-0.0094374439549138,0.0213359150731698,0.00091452951833321
1492637589.6,40.4440381998608,-79.9502598552586,0.439999997615814,0.028289794921875,-0.959579467773438,0.225433349609375,-0.00941480708564812,0.0223993152964385,-0.000154197027115588
1492637589.8,40.4440381998608,-79.9502598552586,0.439999997615814,0.0401763916015625,-0.935516357421875,0.28814697265625,-0.0104102967011197,0.0277240395799429,-0.00231055856175275
1492637590.0,40.4440381998608,-79.9502598552586,0.439999997615814,0.053314208984375,-0.953933715820312,0.293487548828125,-0.0113724968029654,0.0394310294158222,-0.00341683567857166
1492637590.2,40.4440391953287,-79.9502559218728,0.5,0.0587005615234375,-0.926513671875,0.279495239257812,-0.0167281137551147,0.0352109843524826,-0.00346077783655797
1492637590.4,40.4440391953287,-79.9502559218728,0.5,0.04742431640625,-0.95318603515625,0.296951293945312,-0.0196706404435433,0.0628862880844771,-0.00676096705938416
1492637590.6,40.4440391953287,-79.9502559218728,0.5,0.05535888671875,-0.931884765625,0.335525512695312,-0.0089301117672537,0.0830277754087464,-0.00243812397796754
1492637590.8,40.4440391953287,-79.9502559218728,0.5,0.0578460693359375,-0.942718505859375,0.3284912109375,-0.00455134230294542,0.0872531467942661,-0.00880148108660287
1492637591.0,40.4440391953287,-79.9502559218728,0.5,0.05633544921875,-0.925003051757812,0.350479125976562,-0.0236565936470649,0.101206246693518,-0.00583445331614559
1492637591.2,40.4440418608841,-79.9502453894813,1.29999995231628,0.0655670166015625,-0.9405517578125,0.311355590820312,-0.00592979448317043,0.140443930614201,-0.0345419982866547
1492637591.4,40.4440418608841,-79.9502453894813,1.29999995231628,0.0990753173828125,-0.938156127929688,0.3385009765625,-0.0609176794066905,0.159945726644633,-0.0522147352804206
1492637591.6,40.4440418608841,-79.9502453894813,1.29999995231628,0.14691162109375,-0.950286865234375,0.309814453125,-0.0346703626511966,0.226787075263987,-0.0659792833744951
1492637591.8,40.4440418608841,-79.9502453894813,1.29999995231628,0.12744140625,-0.929031372070312,0.33404541015625,-0.0294612195590016,0.242711713318224,-0.0489076218387602
1492637592.0,40.4440418608841,-79.9502453894813,1.29999995231628,0.164886474609375,-0.9583740234375,0.26263427734375,-0.00781318200607447,0.331914560346538,-0.103293099723704
1492637592.2,40.4440462741666,-79.9502279513075,2.44000005722046,0.03033447265625,-0.994781494140625,0.327301025390625,0.000180029689689356,0.289316233446284,-0.0881743342153245
1492637592.4,40.4440462741666,-79.9502279513075,2.44000005722046,0.116409301757812,-0.943450927734375,0.33203125,-0.0679670668121303,0.455689233065714,-0.153274241797875
1492637592.6,40.4440462741666,-79.9502279513075,2.44000005722046,0.242462158203125,-0.940536499023438,0.259002685546875,-0.0104068345917026,0.437241782510844,-0.0897306855563668
1492637592.8,40.4440462741666,-79.9502279513075,2.44000005722046,0.217575073242188,-0.8790283203125,0.211776733398438,-0.10260174310472,0.480388720595654,-0.099315668635671
1492637593.0,40.4440462741666,-79.9502279513075,2.44000005722046,0.235610961914062,-0.938064575195312,0.226577758789062,-0.0439070042599184,0.460856830844904,-0.118922393213052
1492637593.2,40.4440543616306,-79.9502251574908,3.63000011444092,0.2474365234375,-0.927978515625,0.204376220703125,-0.00449781276503483,0.385082174664989,-0.0831382965939847
1492637593.4,40.4440543616306,-79.9502251574908,3.63000011444092,0.153182983398438,-0.972457885742188,0.162445068359375,0.0170604762591566,0.384938896598342,-0.102109058303055
1492637593.6,40.4440543616306,-79.9502251574908,3.63000011444092,0.126190185546875,-0.940658569335938,0.192398071289062,-0.0616223518311255,0.353547417881251,-0.0505891417510362
1492637593.8,40.4440543616306,-79.9502251574908,3.63000011444092,0.051544189453125,-0.948501586914062,0.242996215820312,-0.0629640523883074,0.320581212011596,-0.0483853759489956
1492637594.0,40.4440543616306,-79.9502251574908,3.63000011444092,0.0286102294921875,-1.08308410644531,0.215927124023438,0.0264702233387336,0.205120395583429,-0.0322447555303524
1492637594.2,40.444162318261,-79.9502356054942,4.3899998664856,-0.0380859375,-0.9638671875,0.201202392578125,0.045709431685684,0.108199974032175,-0.0126058067037811
1492637594.4,40.444162318261,-79.9502356054942,4.3899998664856,-0.047821044921875,-1.00440979003906,0.205596923828125,0.113949472509547,0.0641387727451413,-0.0427136417754539
1492637594.6,40.444162318261,-79.9502356054942,4.3899998664856,0.029998779296875,-1.00668334960938,0.287124633789062,0.100436859454594,0.051457065950293,-0.073739468474877
1492637594.8,40.444162318261,-79.9502356054942,4.3899998664856,0.0353240966796875,-0.911331176757812,0.406143188476562,0.0731535730350596,-0.055790295359961,-0.0065705510414435
1492637595.0,40.444162318261,-79.9502356054942,4.3899998664856,-0.00445556640625,-0.954132080078125,0.349899291992188,0.0227135683050678,0.0275072582672104,-0.0105005778620734
1492637595.2,40.4441978503254,-79.9502403172427,4.8600001335144,-0.15875244140625,-0.884765625,0.449310302734375,0.0494682172482218,0.0624250285836754,-0.0785544637257403
1492637595.4,40.4441978503254,-79.9502403172427,4.8600001335144,0.0547027587890625,-0.922409057617188,0.465972900390625,0.0170122730434262,0.00200482766861165,-0.0744659788202506
1492637595.6,40.4441978503254,-79.9502403172427,4.8600001335144,0.0918426513671875,-0.95947265625,0.6007080078125,0.0417876606644333,-0.0523891723318208,0.030417028074231
1492637595.8,40.4441978503254,-79.9502403172427,4.8600001335144,-0.0079803466796875,-0.927032470703125,0.408615112304688,-0.0396392886130664,-0.0433432130571486,0.0711423537798317
1492637596.0,40.4441978503254,-79.9502403172427,4.8600001335144,-0.0057220458984375,-0.855758666992188,0.2962646484375,0.0237418148019474,-0.0820591837202845,0.010050769953959
1492637596.2,40.4442510344811,-79.9502473697564,6.11999988555908,-0.0267333984375,-0.927719116210938,0.569839477539062,0.109404521793218,-0.144310574200887,0.0196181761700687
1492637596.4,40.4442510344811,-79.9502473697564,6.11999988555908,-0.0669097900390625,-0.875213623046875,0.443130493164062,-0.00671915543026992,-0.123342175358148,0.0343683601835816
1492637596.6,40.4442510344811,-79.9502473697564,6.11999988555908,0.436477661132812,-0.808486938476562,0.280059814453125,-0.23770097572724,0.24721485240544,-0.31440614039203
1492637596.8,40.4442510344811,-79.9502473697564,6.11999988555908,0.0819854736328125,-0.975555419921875,0.41619873046875,-0.103945574190774,0.203859388807277,0.0805081587014224
1492637597.0,40.4442510344811,-79.9502473697564,6.11999988555908,-0.550445556640625,-0.957855224609375,0.498077392578125,-0.0349172376842469,-0.252912951873773,0.155962436602201
1492637597.2,40.4443144857752,-79.9502557837494,7.73000001907349,-0.189498901367188,-1.15681457519531,0.31988525390625,0.166949041363214,-0.266986426654297,0.182588454864705
1492637597.4,40.4443144857752,-79.9502557837494,7.73000001907349,0.199447631835938,-1.114013671875,0.217941284179688,0.189928659461181,-0.285252782255041,-0.0271732978665145
1492637597.6,40.4443144857752,-79.9502557837494,7.73000001907349,-0.018829345703125,-0.887054443359375,0.282424926757812,-0.0609933131816488,-0.0985342971718417,-0.0323566082961357
1492637597.8,40.4443144857752,-79.9502557837494,7.73000001907349,0.373764038085938,-0.939987182617188,0.220367431640625,-0.0367774557056673,0.177840304957202,-0.249263355915928
1492637598.0,40.4443144857752,-79.9502557837494,7.73000001907349,0.516357421875,-0.895660400390625,0.232009887695312,-0.0911679935966826,0.304788666747426,-0.174446638780114
1492637598.2,40.4443836228062,-79.9502649517027,7.92999982833862,0.299179077148438,-0.82958984375,0.250457763671875,-0.19898633664465,-0.00828163204181941,-0.0158767011546164
1492637598.4,40.4443836228062,-79.9502649517027,7.92999982833862,0.358489990234375,-0.69476318359375,0.344696044921875,-0.185570928969484,0.64256457833712,-0.405520870766911
1492637598.6,40.4443836228062,-79.9502649517027,7.92999982833862,0.310699462890625,-0.88690185546875,0.292236328125,-0.0728776695461274,-0.0271671725960073,0.0963494398135407
1492637598.8,40.4443836228062,-79.9502649517027,7.92999982833862,0.014404296875,-0.876068115234375,0.350112915039062,0.0375369892485579,-0.0948892285878503,0.161627512873018
1492637599.0,40.4443836228062,-79.9502649517027,7.92999982833862,-0.167755126953125,-0.93719482421875,0.374282836914062,-0.0557767132384015,-0.07515067753651,0.0657281472837006
1492637599.2,40.4444551281191,-79.9502744337033,8.17000007629395,-0.0239715576171875,-0.859634399414062,0.352157592773438,-0.0600074109461014,0.0301565709196213,-0.11157846019105
1492637599.4,40.4444551281191,-79.9502744337033,8.17000007629395,0.37811279296875,-0.87188720703125,0.257644653320312,-0.114894894696526,-0.287522061819898,-0.0100302636135654
1492637599.6,40.4444551281191,-79.9502744337033,8.17000007629395,0.119537353515625,-0.93511962890625,0.22705078125,-0.0906603950929135,-0.0387447328029088,0.144176883514165
1492637599.8,40.4444551281191,-79.9502744337033,8.17000007629395,-0.0142822265625,-0.902359008789062,0.533370971679688,0.0807917853575158,0.00585895439817432,0.0136066226414328
1492637600.0,40.4444551281191,-79.9502744337033,8.17000007629395,0.400543212890625,-1.15060424804688,0.2926025390625,-0.0374453765070591,0.402304304802313,-0.156022624042837
1492637600.2,40.4445258012776,-79.9502838053556,8.26000022888184,0.325607299804688,-0.81011962890625,0.074188232421875,0.0102459796618619,-0.084090642999797,0.0610961111997258
1492637600.4,40.4445258012776,-79.9502838053556,8.26000022888184,-0.244796752929688,-0.878707885742188,0.242446899414062,-0.0972597082741298,0.0633768423572697,-0.0949861676515292
1492637600.6,40.4445258012776,-79.9502838053556,8.26000022888184,-0.111602783203125,-0.996612548828125,0.203521728515625,0.0160415508260923,-0.0628700428018276,-0.0391234343099181
1492637600.8,40.4445258012776,-79.9502838053556,8.26000022888184,0.0011138916015625,-0.825942993164062,0.210556030273438,0.0639038819369964,-0.050414971015745,-0.0280034051782922
1492637601.0,40.4445258012776,-79.9502838053556,8.26000022888184,-0.0219268798828125,-0.909515380859375,0.219924926757812,-0.0680200637178228,-0.058043862274386,0.113538280437239
1492637601.2,40.4445994499228,-79.9502935715739,8.14000034332275,-0.0755767822265625,-0.925384521484375,0.150970458984375,-0.0645504974496676,0.00467038560367196,-0.0273282938419571
1492637601.4,40.4445994499228,-79.9502935715739,8.14000034332275,0.030364990234375,-0.913406372070312,0.212677001953125,-0.0354037972154044,-0.00614950527310197,0.0156466040364335
1492637601.6,40.4445994499228,-79.9502935715739,8.14000034332275,0.02642822265625,-0.950424194335938,0.255203247070312,0.027358920194493,-0.0895218937269046,0.0527556232978157
1492637601.8,40.4445994499228,-79.9502935715739,8.14000034332275,-0.0166015625,-1.01936340332031,0.292831420898438,-0.20651882147183,0.0332445062035681,-0.0651068318013852
1492637602.0,40.4445994499228,-79.9502935715739,8.14000034332275,-0.05865478515625,-0.949295043945312,0.269027709960938,-0.0109863384449039,0.036232572946637,-0.0332586209573456
1492637602.2,40.4446718885593,-79.9503031938422,8.09000015258789,0.0835418701171875,-1.05119323730469,0.177566528320312,0.126214128277689,0.0927754776306544,-0.067184896399974
1492637602.4,40.4446718885593,-79.9503031938422,8.09000015258789,0.144622802734375,-0.792922973632812,0.16375732421875,0.20272035480905,-0.29382176937848,0.122249746678997
1492637602.6,40.4446718885593,-79.9503031938422,8.09000015258789,0.144241333007812,-1.00694274902344,0.143218994140625,0.0288335124900699,0.106180232661459,-0.0255679443614147
1492637602.8,40.4446718885593,-79.9503031938422,8.09000015258789,0.0013885498046875,-1.00605773925781,0.305740356445312,0.0325574106423277,-0.114021910491198,0.0486072172677992
1492637603.0,40.4446718885593,-79.9503031938422,8.09000015258789,-0.0112152099609375,-0.895599365234375,0.162979125976562,0.0102723449566536,0.0137546943980412,-0.0425788858242959
1492637603.2,40.4447423472792,-79.9503125543091,7.8899998664856,-0.004119873046875,-0.9698486328125,0.1409912109375,-0.00293373825683129,-0.0329496942708964,0.0405711286784851
1492637603.4,40.4447423472792,-79.9503125543091,7.8899998664856,0.142776489257812,-0.91790771484375,0.23638916015625,-0.0287964945509178,0.0788974788741425,-0.0314186429602098
1492637603.6,40.4447423472792,-79.9503125543091,7.8899998664856,0.156539916992188,-0.9898681640625,0.292678833007812,-0.161209130265767,-0.0074446005112075,0.102857672885476
1492637603.8,40.4447423472792,-79.9503125543091,7.8899998664856,-0.0639801025390625,-0.9984130859375,0.20367431640625,-0.0453706775950259,0.0513532026677799,-0.00272947380122221
1492637604.0,40.4447423472792,-79.9503125543091,7.8899998664856,0.0054931640625,-1.04173278808594,0.17730712890625,-0.0142633581662464,0.111760620409611,-0.141174702017318
1492637604.2,40.4448115690914,-79.9503217504523,7.46999979019165,0.0369720458984375,-0.941986083984375,0.193252563476562,-0.0502975256116725,0.0301043729622557,-0.0432412139873986
1492637604.4,40.4448115690914,-79.9503217504523,7.46999979019165,0.024658203125,-0.971405029296875,0.177047729492188,-0.0655300080985987,0.0238243727957399,-0.023122896164613
1492637604.6,40.4448115690914,-79.9503217504523,7.46999979019165,-0.0165557861328125,-1.00656127929688,0.152130126953125,-0.019426162255474,-0.00731730141110172,0.0147469882202048
1492637604.8,40.4448115690914,-79.9503217504523,7.46999979019165,-0.004791259765625,-0.952301025390625,0.206588745117188,0.0153038552041403,-0.0479632649162181,0.0226709577276265
1492637605.0,40.4448115690914,-79.9503217504523,7.46999979019165,-0.052581787109375,-0.77423095703125,0.261932373046875,-0.0354938120602491,-0.0519042106973173,-0.0801955035894471
1492637605.2,40.4448752354098,-79.9503302085462,7.0,0.223495483398438,-1.07157897949219,0.112869262695312,-0.145660796873557,0.165810806313314,-0.0818852793011024
1492637605.4,40.4448752354098,-79.9503302085462,7.0,-0.112503051757812,-0.826217651367188,-0.0386810302734375,-0.0382179595392911,0.0672549375366431,-0.0496106963665411
1492637605.6,40.4448752354098,-79.9503302085462,7.0,0.063079833984375,-0.652191162109375,0.222183227539062,0.0607344539236931,-0.482227633328354,0.200182095974095
1492637605.8,40.4448752354098,-79.9503302085462,7.0,0.0623931884765625,-0.9619140625,0.17529296875,0.094307327889668,-0.0441994193476091,0.165276576198645
1492637606.0,40.4448752354098,-79.9503302085462,7.0,-0.132476806640625,-0.773117065429688,0.263565063476562,0.0339102964760879,-0.0704302245043445,-0.0261264092420044
1492637606.2,40.4449315617048,-79.9503376915152,6.5,0.336135864257812,-1.02420043945312,0.098541259765625,0.0602931681310669,-0.0929142283234475,0.134133836727367
1492637606.4,40.4449315617048,-79.9503376915152,6.5,-0.080230712890625,-0.83795166015625,0.2421875,0.0558531459616868,-0.0545860139150271,0.168108315385726
1492637606.6,40.4449315617048,-79.9503376915152,6.5,0.160430908203125,-0.985107421875,0.130126953125,-0.0787589944974584,0.0664557228935103,-0.0446926367814918
1492637606.8,40.4449315617048,-79.9503376915152,6.5,0.09552001953125,-0.975555419921875,0.0863494873046875,-0.0450979698994018,-0.0879737981852415,0.134108270380902
1492637607.0,40.4449315617048,-79.9503376915152,6.5,0.125930786132812,-0.920257568359375,0.132110595703125,0.0262515778132381,-0.0990885009946872,0.0506365460184396
1492637607.2,40.4449883292687,-79.9503452331069,6.13000011444092,0.089080810546875,-1.05160522460938,0.253219604492188,-0.0678347077059533,-0.0176596875044244,-0.110468987280923
1492637607.4,40.4449883292687,-79.9503452331069,6.13000011444092,0.0294647216796875,-0.94879150390625,0.154373168945312,0.00880627477656502,-0.0468559225349631,0.0311312878785903
1492637607.6,40.4449883292687,-79.9503452331069,6.13000011444092,-0.0722503662109375,-0.944961547851562,0.2216796875,-0.0723085520211774,-0.002722283266279,-0.00926300690351361
1492637607.8,40.4449883292687,-79.9503452331069,6.13000011444092,0.0306549072265625,-1.002685546875,0.071868896484375,-0.0664549239451833,0.0131906368791625,-0.0390981342795623
1492637608.0,40.4449883292687,-79.9503452331069,6.13000011444092,-0.0803680419921875,-1.04554748535156,0.194854736328125,-0.00662061846993699,-0.071217188606463,0.0555591329773421
1492637608.2,40.4450389784183,-79.9503519618651,5.40000009536743,-0.0198822021484375,-1.01486206054688,0.0491790771484375,0.006184126367273,-0.0734284112595558,0.052497296672078
1492637608.4,40.4450389784183,-79.9503519618651,5.40000009536743,0.051849365234375,-1.02253723144531,0.011260986328125,-0.015694008303837,-0.00202879611842236,-0.0214797257720341
1492637608.6,40.4450389784183,-79.9503519618651,5.40000009536743,0.04638671875,-0.996826171875,-0.0490875244140625,-0.0126103340776342,-0.0148133009313477,-0.0203489475731865
1492637608.8,40.4450389784183,-79.9503519618651,5.40000009536743,0.04833984375,-1.02481079101562,-0.0051116943359375,0.00406717961676901,-0.0138537639905922,0.00647467724220064
1492637609.0,40.4450389784183,-79.9503519618651,5.40000009536743,0.0435028076171875,-1.00422668457031,0.008880615234375,-0.0116055233983473,-0.0169467592806102,-0.0171345121374608
1492637609.2,40.4450774748474,-79.9503570761299,3.3199999332428,0.054962158203125,-1.00210571289062,-0.017547607421875,-0.0126795762659763,0.00327275866359838,-0.00546933393069573
1492637609.4,40.4450774748474,-79.9503570761299,3.3199999332428,0.0342254638671875,-1.00419616699219,-0.02862548828125,-0.010622018007781,-0.00631408862846887,-0.00542352755994637
1492637609.6,40.4450774748474,-79.9503570761299,3.3199999332428,0.0660552978515625,-1.00405883789062,-0.0100555419921875,-0.0202365621751851,-0.0105064368164716,-0.00551114555980998
1492637609.8,40.4450774748474,-79.9503570761299,3.3199999332428,0.037078857421875,-0.997421264648438,0.0787200927734375,-0.00641768559487295,-0.0116598518845849,-0.00430047252825995
1492637610.0,40.4450774748474,-79.9503570761299,3.3199999332428,0.058013916015625,-0.98681640625,0.06890869140625,-0.010688597035033,-0.00737668990341048,-0.00115661086142141
1492637610.2,40.4450956865683,-79.9503594955637,1.11000001430511,0.0547027587890625,-0.98944091796875,0.0778656005859375,-0.0170250562166586,-0.00627227699935462,-0.0044229779384036
1492637610.4,40.4450956865683,-79.9503594955637,1.11000001430511,0.0536651611328125,-0.979644775390625,0.1602783203125,-0.00215609521852815,-0.00743234997019314,-0.00213532256202553
1492637610.6,40.4449455178192,-79.9501774283787,-1.0,0.0637664794921875,-0.9605712890625,0.217681884765625,-0.00314359535072953,-0.00104395914731106,-0.00429434725775277
1492637610.8,40.4449455178192,-79.9501774283787,-1.0,0.0859375,-0.946517944335938,0.250564575195312,-0.0212280570490216,0.00120108565162574,-0.00448529590791145
1492637611.0,40.4449455178192,-79.9501774283787,-1.0,0.0699310302734375,-0.937728881835938,0.280746459960938,-0.019190472499002,-0.00519396307398154,-0.00124928886735617
1492637611.2,40.4451025910653,-79.9503604128287,0.409999996423721,0.0811309814453125,-0.936630249023438,0.28424072265625,-0.0149994558915443,-0.00841186061912428,0.00200056661086752
1492637611.4,40.4451025910653,-79.9503604128287,0.409999996423721,0.077117919921875,-0.938629150390625,0.286544799804688,-0.0170223930555685,-0.00201707820962602,-0.00230150381404648
1492637611.6,40.4451025910653,-79.9503604128287,0.409999996423721,0.074615478515625,-0.944625854492188,0.29058837890625,-0.0212600149821026,-0.00305358050588485,-0.00447464326355114
1492637611.8,40.4451025910653,-79.9503604128287,0.409999996423721,0.0760040283203125,-0.938308715820312,0.30267333984375,-0.00735858040799794,-0.00101706122030126,-0.00753621325270623
1492637612.0,40.4451025910653,-79.9503604128287,0.409999996423721,0.0663909912109375,-0.93878173828125,0.340087890625,-0.011930429051337,-0.0211960991159407,0.00419740819407389
1492637612.2,40.4451080822523,-79.9503611423349,0.930000007152557,0.054840087890625,-0.927215576171875,0.33526611328125,-0.014183729649653,-0.0318181171237217,0.00740039203711219
1492637612.4,40.4451080822523,-79.9503611423349,0.930000007152557,0.0300750732421875,-0.929885864257812,0.356704711914062,-0.0132441664170731,-0.0445885071828697,0.0095753956993799
1492637612.6,40.4451080822523,-79.9503611423349,0.930000007152557,0.0276947021484375,-0.925674438476562,0.35736083984375,-0.00199683818534141,-0.0850810726091975,0.0215234016139114
1492637612.8,40.4451080822523,-79.9503611423349,0.930000007152557,0.0096435546875,-0.934173583984375,0.359054565429688,-0.011764514115425,-0.0999087546104316,0.0267927321467422
1492637613.0,40.4451080822523,-79.9503611423349,0.930000007152557,-0.0037841796875,-0.9273681640625,0.346572875976562,-0.0303097026823008,-0.15510117030567,0.0288777209641652
1492637613.2,40.4451219807372,-79.9503629887537,2.01999998092651,0.008544921875,-0.922805786132812,0.351211547851562,-0.00421338716061436,-0.193562010136376,0.0463035829248807
1492637613.4,40.4451219807372,-79.9503629887537,2.01999998092651,-0.060150146484375,-0.929977416992188,0.33148193359375,-0.0124907581446896,-0.258391074236066,0.0709090608683408
1492637613.6,40.4451219807372,-79.9503629887537,2.01999998092651,-0.0689239501953125,-0.94512939453125,0.3480224609375,-0.00763581547747519,-0.305224892533981,0.0796093418335207
1492637613.8,40.4451219807372,-79.9503629887537,2.01999998092651,-0.125152587890625,-0.92425537109375,0.312698364257812,0.00733780775149533,-0.377649824694795,0.113002186109806
1492637614.0,40.4451219807372,-79.9503629887537,2.01999998092651,-0.0710906982421875,-0.971633911132812,0.287811279296875,0.0356453459262746,-0.339543984237397,0.0886707474425153
1492637614.2,40.4451407058427,-79.9503654763909,3.13000011444092,-0.202301025390625,-1.03077697753906,0.180587768554688,0.00534975799775117,-0.406336597008802,0.242067760966643
1492637614.4,40.4451407058427,-79.9503654763909,3.13000011444092,-0.254867553710938,-0.995147705078125,0.146316528320312,0.0646903134068968,-0.493964184252333,0.138412471334688
1492637614.6,40.4451407058427,-79.9503654763909,3.13000011444092,-0.166961669921875,-1.01216125488281,0.233169555664062,0.0869170558646981,-0.502630110439451,0.0661598456964025
1492637614.8,40.4451407058427,-79.9503654763909,3.13000011444092,-0.189163208007812,-0.96527099609375,0.263046264648438,0.0735897988216146,-0.602522886083342,0.129187813950872
1492637615.0,40.4451407058427,-79.9503654763909,3.13000011444092,-0.113998413085938,-0.969711303710938,0.267486572265625,0.0691945177585478,-0.579076415846285,0.229306425655202
1492637615.2,40.4451623733042,-79.9503377873977,3.79999995231628,-0.321136474609375,-1.00489807128906,0.221099853515625,-0.148823566984135,-0.501104385450945,0.0178951109447874
1492637615.4,40.4451623733042,-79.9503377873977,3.79999995231628,-0.200103759765625,-0.953750610351562,0.302978515625,-0.000988032764419397,-0.699908029244815,0.0785635184734465
1492637615.6,40.4451623733042,-79.9503377873977,3.79999995231628,0.116104125976562,-0.973098754882812,0.433547973632812,-0.0495502426097963,-0.480451837513489,0.167061959393434
1492637615.8,40.4451623733042,-79.9503377873977,3.79999995231628,-0.05963134765625,-1.03889465332031,0.327743530273438,-0.0529737361910931,-0.381517267229808,0.0825406832453709
1492637616.0,40.4451623733042,-79.9503377873977,3.79999995231628,0.199874877929688,-0.904937744140625,0.291061401367188,-0.0560052124599303,-0.201752562068915,-0.064025588398813
1492637616.2,40.4451668403582,-79.9502860374507,5.01999998092651,-0.0034027099609375,-0.789230346679688,0.468597412109375,-0.060397830361907,-0.232560542191169,0.0063790697590668
1492637616.4,40.4451668403582,-79.9502860374507,5.01999998092651,0.263504028320312,-0.994476318359375,0.255783081054688,-0.044062532867579,-0.193297558240131,0.078947546302636
1492637616.6,40.4451668403582,-79.9502860374507,5.01999998092651,-0.0477142333984375,-0.847747802734375,0.350357055664062,-0.0386126400128409,-0.0646381154495312,-0.0151555171314229
1492637616.8,40.4451668403582,-79.9502860374507,5.01999998092651,0.0496978759765625,-1.04463195800781,0.450347900390625,0.0886118915824245,-0.102692556897891,0.00543710968150577
1492637617.0,40.4451668403582,-79.9502860374507,5.01999998092651,0.149978637695312,-0.967498779296875,0.323822021484375,0.00123863622299585,-0.042550123684523,0.0417048363545319
1492637617.2,40.4451732437698,-79.9502118551785,6.11999988555908,0.261398315429688,-0.9210205078125,0.221511840820312,-0.0297461777956401,0.173569127200933,-0.0657915305176445
1492637617.4,40.4451732437698,-79.9502118551785,6.11999988555908,0.285003662109375,-0.950408935546875,0.277481079101562,-0.012334430588702,0.217055352008619,-0.146757752926561
1492637617.6,40.4451732437698,-79.9502118551785,6.11999988555908,0.23309326171875,-0.925537109375,0.196319580078125,0.0247881707942395,0.17108413158778,-0.083352414745627
1492637617.8,40.4451732437698,-79.9502118551785,6.11999988555908,0.206405639648438,-0.983612060546875,0.292495727539062,-0.0853907982439737,0.252631455746552,-0.158259679358504
1492637618.0,40.4451732437698,-79.9502118551785,6.11999988555908,0.08349609375,-0.863311767578125,0.305328369140625,-0.113816314455043,-0.108821289514491,0.0087114662417582
1492637618.2,40.4451796398385,-79.950137757972,6.98999977111816,0.17822265625,-0.927505493164062,0.26025390625,0.0188834100253158,0.104121609138828,-7.53674588492424e-05
1492637618.4,40.4451796398385,-79.950137757972,6.98999977111816,0.1661376953125,-0.988372802734375,0.151275634765625,0.0705665783521566,0.00166527462962655,-0.0195398792340204
1492637618.6,40.4451796398385,-79.950137757972,6.98999977111816,0.2120361328125,-0.945144653320312,0.055084228515625,-0.0555737803633375,-0.0506991303040565,-0.0132327148243857
1492637618.8,40.4451796398385,-79.950137757972,6.98999977111816,0.127120971679688,-0.976715087890625,0.185806274414062,0.0715578069098841,-0.140853791105964,0.140770167847735
1492637619.0,40.4451796398385,-79.950137757972,6.98999977111816,0.054290771484375,-1.06080627441406,0.208786010742188,0.0870318381076805,-0.0367199314261215,0.0788194482542031
1492637619.2,40.4451871057862,-79.9500512664268,7.6399998664856,-0.0199432373046875,-1.11639404296875,0.230209350585938,0.179299983550675,-0.0915701309212845,0.0767070288775523
1492637619.4,40.4451871057862,-79.9500512664268,7.6399998664856,0.0823516845703125,-1.16520690917969,0.24945068359375,0.0312988007111562,-0.0214722689209819,0.0355609237197191
1492637619.6,40.4451871057862,-79.9500512664268,7.6399998664856,0.037994384765625,-0.9246826171875,0.197250366210938,-0.0678695951162333,-0.0750675869104995,0.0933256867118648
1492637619.8,40.4451871057862,-79.9500512664268,7.6399998664856,0.203536987304688,-1.06158447265625,0.120895385742188,0.0484463623379584,0.0284140646183824,0.0547995994344515
1492637620.0,40.4451871057862,-79.9500512664268,7.6399998664856,0.0613250732421875,-0.88922119140625,0.174758911132812,0.051961734976863,-0.0992450948667839,0.117005449860413
1492637620.2,40.4451950577962,-79.9499591439448,7.55999994277954,0.38934326171875,-1.00672912597656,0.117294311523438,-0.085704252304276,0.168608457038443,-0.103669138069624
1492637620.4,40.4451950577962,-79.9499591439448,7.55999994277954,0.0341949462890625,-0.958602905273438,0.270248413085938,-0.062748070023902,0.0950740519675018,-0.0318079971115794
1492637620.6,40.4451950577962,-79.9499591439448,7.55999994277954,-0.117645263671875,-0.887313842773438,0.344894409179688,-0.0640333115659742,0.15677363547024,-0.0597019463690693
1492637620.8,40.4451950577962,-79.9499591439448,7.55999994277954,0.113540649414062,-0.992141723632812,0.210601806640625,-0.0500884674661013,0.0949930918703634,-0.0231484625110777
1492637621.0,40.4451950577962,-79.9499591439448,7.55999994277954,0.05621337890625,-1.11868286132812,0.321136474609375,-0.0399687216399092,0.115120997073073,-0.128651985939548
1492637621.2,40.4452025437964,-79.9498724200949,7.23999977111816,0.253204345703125,-0.895660400390625,0.256591796875,0.074880899318085,-0.0430310905773913,0.0296654840146107
1492637621.4,40.4452025437964,-79.9498724200949,7.23999977111816,0.107681274414062,-0.972579956054688,0.219467163085938,0.0161206467104676,0.0328591467938337,-0.0702898759148974
1492637621.6,40.4452025437964,-79.9498724200949,7.23999977111816,0.0742034912109375,-1.26631164550781,0.0741119384765625,-0.0998791935223318,-0.20355498949468,0.182891522596756
1492637621.8,40.4452025437964,-79.9498724200949,7.23999977111816,0.418594360351562,-0.7825927734375,0.212814331054688,-0.0475163864853028,-0.198591123538882,0.0949190559920592
1492637622.0,40.4452025437964,-79.9498724200949,7.23999977111816,0.133804321289062,-0.917022705078125,0.1351318359375,-0.135144506361052,0.13916108591711,-0.00920628157229492
1492637622.2,40.445209639383,-79.9497902191106,7.21000003814697,0.403396606445312,-1.07034301757812,0.122650146484375,0.115219800349515,0.0109250857398321,-0.164111709537844
1492637622.4,40.445209639383,-79.9497902191106,7.21000003814697,0.318572998046875,-0.965438842773438,0.185195922851562,-0.113064770395423,0.12519120810299,0.00385039830403656
1492637622.6,40.445209639383,-79.9497902191106,7.21000003814697,0.25421142578125,-0.790054321289062,0.399688720703125,-0.00689732090719622,0.248957891338896,0.0174125461552651
1492637622.8,40.445209639383,-79.9497902191106,7.21000003814697,0.107635498046875,-0.903564453125,0.151763916015625,0.0815321441405579,0.0303131647917179,-0.0269650386692703
1492637623.0,40.445209639383,-79.9497902191106,7.21000003814697,0.474411010742188,-0.642898559570312,0.0793914794921875,-0.587554589176552,0.160161975325147,-0.166361015394525
1492637623.2,40.4452168082245,-79.9497063138846,7.34000015258789,0.280548095703125,-1.0665283203125,0.173416137695312,0.0341222840988583,0.199736815439834,-0.127045567170012
1492637623.4,40.4452168082245,-79.9497063138846,7.34000015258789,0.0078277587890625,-0.798431396484375,0.251174926757812,0.180083751859485,-0.154336843072817,0.0630162503456729
1492637623.6,40.4452168082245,-79.9497063138846,7.34000015258789,-0.0882110595703125,-0.638214111328125,0.330398559570312,-0.168860658393673,-0.0669659845583695,0.0848072996491373
1492637623.8,40.4452168082245,-79.9497063138846,7.34000015258789,0.171768188476562,-0.87322998046875,0.108047485351562,-0.17158613745326,-0.00844408486831424,0.0824959421390575
1492637624.0,40.4452168082245,-79.9497063138846,7.34000015258789,-0.308425903320312,-0.913467407226562,0.3265380859375,0.261055833222799,-0.0197723731971843,0.0560345072319212
1492637624.2,40.4452241740536,-79.9496200853891,7.36999988555908,-0.222320556640625,-0.72991943359375,0.439498901367188,-0.204949420641446,-0.270959596684586,0.120149311527252
1492637624.4,40.4452241740536,-79.9496200853891,7.36999988555908,-0.163803100585938,-0.942108154296875,-0.048797607421875,-0.262634821433107,-0.26527561197003,0.0587698399875416
1492637624.6,40.4452241740536,-79.9496200853891,7.36999988555908,-0.03814697265625,-0.996292114257812,-0.006988525390625,0.312327543161223,-0.497684620295174,0.24971129961128
1492637624.8,40.4452241740536,-79.9496200853891,7.36999988555908,0.027099609375,-0.941314697265625,0.215438842773438,0.0309400729123226,-0.142727857565053,0.0731876614970126
1492637625.0,40.4452241740536,-79.9496200853891,7.36999988555908,-0.136383056640625,-0.902481079101562,0.218399047851562,0.0816304147847818,-0.235604269001021,0.0536882623115614
1492637625.2,40.4452316197827,-79.9495329215406,7.5,-0.011993408203125,-0.84014892578125,0.306930541992188,0.133750075214287,-0.0178860561970812,0.0216736038993919
1492637625.4,40.4452316197827,-79.9495329215406,7.5,0.22186279296875,-0.984695434570312,-0.09130859375,0.0196045940485093,0.0232712342373304,-0.0190511891739908
1492637625.6,40.4452316197827,-79.9495329215406,7.5,0.0989227294921875,-0.813491821289062,0.155105590820312,0.0632383579805856,-0.163142052584946,0.114087157937904
1492637625.8,40.4452316197827,-79.9495329215406,7.5,0.20489501953125,-1.07711791992188,0.237838745117188,0.0764234022214589,-0.158964884415157,0.164323430844505
1492637626.0,40.4452316197827,-79.9495329215406,7.5,-0.023529052734375,-0.8037109375,-0.030120849609375,-0.0627249005224183,-0.108064685448799,0.165966068604866
1492637626.2,40.445239095005,-79.949445412428,7.51999998092651,0.141128540039062,-1.16810607910156,0.320663452148438,-0.060395433516926,-0.288905307690085,0.208038953822047
1492637626.4,40.445239095005,-79.949445412428,7.51999998092651,0.323516845703125,-0.890289306640625,0.0548553466796875,0.0834568106603581,-0.410028004595761,0.290856605820786
1492637626.6,40.445239095005,-79.949445412428,7.51999998092651,0.211318969726562,-0.9898681640625,0.0238037109375,-0.214702182869425,0.34708099643843,-0.151297643636819
1492637626.8,40.445239095005,-79.949445412428,7.51999998092651,0.0306243896484375,-0.963836669921875,0.229690551757812,0.123186913066596,-0.184811928058812,0.0795717912621505
1492637627.0,40.445239095005,-79.949445412428,7.51999998092651,0.192825317382812,-1.08372497558594,0.0984344482421875,0.0374866555039554,0.14230441495173,0.0618569763231615
1492637627.2,40.4452460516594,-79.9493600543049,7.19000005722046,-0.132003784179688,-0.947723388671875,0.169662475585938,0.0334003011273378,-0.0778676344806088,0.00694019780074649
1492637627.4,40.4452460516594,-79.9493600543049,7.19000005722046,0.135223388671875,-1.12474060058594,-0.103866577148438,0.139985600590598,-0.189173653292144,0.0946820346550421
1492637627.6,40.4452460516594,-79.9493600543049,7.19000005722046,-0.11846923828125,-0.866683959960938,0.215530395507812,0.0943294321267156,-0.18886579187013,0.162451494914288
1492637627.8,40.4452460516594,-79.9493600543049,7.19000005722046,-0.666030883789062,-1.0916748046875,0.31170654296875,0.134467530811954,-0.801766750405402,0.550413611982089
1492637628.0,40.4452460516594,-79.9493600543049,7.19000005722046,-0.133331298828125,-0.739761352539062,-0.207748413085938,-0.0418600986460835,-0.102913599268368,-0.0321494143633276
1492637628.2,40.4452522417662,-79.9492782070528,6.48000001907349,-0.052215576171875,-1.02976989746094,0.244857788085938,-0.0253940399422326,-0.191285540036576,0.116450979721459
1492637628.4,40.4452522417662,-79.9492782070528,6.48000001907349,0.247833251953125,-0.844558715820312,0.0153656005859375,-0.147957506997641,0.160496202041952,-0.150132776976018
1492637628.6,40.4452522417662,-79.9492782070528,6.48000001907349,0.174514770507812,-1.00666809082031,0.1419677734375,-0.0309680361037684,0.10975020010271,-0.0890960542686009
1492637628.8,40.4452522417662,-79.9492782070528,6.48000001907349,0.378982543945312,-0.850860595703125,0.0599212646484375,-0.102704807438906,0.311256952403011,-0.10634375075239
1492637629.0,40.4452522417662,-79.9492782070528,6.48000001907349,0.284271240234375,-1.05931091308594,0.13275146484375,0.0364514847882416,0.191208840997182,-0.14619156487881
1492637629.2,40.4452576815787,-79.9492062803932,6.0,0.259872436523438,-1.05523681640625,0.0919036865234375,0.0264933928402173,0.246596200084214,-0.0888608971443469
1492637629.4,40.4452576815787,-79.9492062803932,6.0,0.190444946289062,-1.23918151855469,0.144744873046875,-0.24741885054494,0.0718004208851903,-0.0901480028991822
1492637629.6,40.4452576815787,-79.9492062803932,6.0,-0.337844848632812,-0.836669921875,0.197494506835938,0.0434478752879887,-0.209826201229599,0.05642945402158
1492637629.8,40.4452576815787,-79.9492062803932,6.0,0.12835693359375,-1.07627868652344,0.00103759765625,0.14035551366601,-0.0455906547010665,-0.00910747829585298
1492637630.0,40.4452576815787,-79.9492062803932,6.0,-0.212066650390625,-1.01692199707031,0.230331420898438,0.0150644370221422,-0.275589768555798,0.0712355644179845
1492637630.2,40.4452623872762,-79.9491396091091,5.53999996185303,-0.0804595947265625,-0.99127197265625,0.23065185546875,0.0447762600397202,-0.209837919138395,0.0372512320635923
1492637630.4,40.4452623872762,-79.9491396091091,5.53999996185303,-0.113128662109375,-0.925125122070312,0.172348022460938,0.0384597745662703,-0.130011795992142,0.0753642630559343
1492637630.6,40.4452623872762,-79.9491396091091,5.53999996185303,0.0617828369140625,-1.0318603515625,0.123199462890625,-0.127441579224107,0.0189097753201076,-0.0152143729915137
1492637630.8,40.4452623872762,-79.9491396091091,5.53999996185303,-0.0927734375,-0.9525146484375,0.19769287109375,-0.0521881036695198,-0.226215028261838,0.109869509719546
1492637631.0,40.4452623872762,-79.9491396091091,5.53999996185303,-0.067413330078125,-1.00030517578125,0.16607666015625,0.0427831502799049,0.000795752533715676,0.0644088172796754
1492637631.2,40.4452671903104,-79.949067846719,5.30999994277954,0.049041748046875,-1.0885009765625,0.0735626220703125,-0.0973268199335998,0.045305696464428,-0.0224376648161356
1492637631.4,40.4452671903104,-79.949067846719,5.30999994277954,0.007080078125,-0.819168090820312,-0.0448760986328125,-0.180352198497365,0.197945573290647,-0.0972503872103145
1492637631.6,40.4452671903104,-79.949067846719,5.30999994277954,0.113250732421875,-1.13862609863281,0.0201416015625,-0.00464268872833514,0.14468821044346,-0.0484005559672091
1492637631.8,40.4452671903104,-79.949067846719,5.30999994277954,0.0447235107421875,-0.9776611328125,-0.0130462646484375,-0.0653507773572364,0.0248973603989328,0.0419152260806481
1492637632.0,40.4452671903104,-79.949067846719,5.30999994277954,0.291778564453125,-0.971282958984375,-0.121505737304688,-0.0152463309245946,-0.0796703282224835,0.0586912767353843
1492637632.2,40.4452715785475,-79.9490022818357,4.25,0.0965728759765625,-0.97503662109375,-0.00872802734375,-0.021409152003147,0.016097743525093,0.0167986875240018
1492637632.4,40.4452715785475,-79.9490022818357,4.25,0.0256805419921875,-1.03366088867188,-0.0243988037109375,-0.0046245792329226,0.00534096956615391,-0.0480407629039394
1492637632.6,40.4452715785475,-79.9490022818357,4.25,0.139495849609375,-1.02781677246094,-0.032867431640625,-0.036971333833025,0.049172340051114,0.00482564789522358
1492637632.8,40.4452715785475,-79.9490022818357,4.25,-0.020538330078125,-0.992538452148438,0.0028228759765625,-0.0444604091344368,0.0268814154110418,-0.0047894289043985
1492637633.0,40.4452715785475,-79.9490022818357,4.25,0.0750579833984375,-1.052490234375,-0.007965087890625,-0.0277016690267862,-0.00620250217879455,-0.00240004077437941
1492637633.2,40.4452738445265,-79.9489684257221,2.33999991416931,-0.0030670166015625,-0.990768432617188,0.023529052734375,-0.0410297250181968,-0.00930082379099273,0.0358552030201728
1492637633.4,40.4452738445265,-79.9489684257221,2.33999991416931,0.0391845703125,-0.973587036132812,0.075408935546875,-0.00865234406555844,-0.0158993380238821,0.00101865911695531
1492637633.6,40.4452738445265,-79.9489684257221,2.33999991416931,0.0212860107421875,-0.99395751953125,0.089385986328125,-0.0253658104346777,-0.00409247964712477,-0.0162423531722843
1492637633.8,40.4452738445265,-79.9489684257221,2.33999991416931,0.06060791015625,-0.997772216796875,0.06280517578125,-0.0327989593531979,-0.00723580868174529,-0.0195089865653755
1492637634.0,40.4452738445265,-79.9489684257221,2.33999991416931,0.0388031005859375,-0.988525390625,0.0482940673828125,-0.00982360231297529,-0.0105714179470695,0.0116550581946228
1492637634.2,40.4452753015287,-79.9489466565748,1.0900000333786,0.039215087890625,-0.976181030273438,0.12603759765625,-0.00220270053760454,1.51800182134517e-05,0.00530847900085495
1492637634.4,40.4452753015287,-79.9489466565748,1.0900000333786,0.0607452392578125,-0.964935302734375,0.16925048828125,-0.0129472239555292,-0.00310524583103239,0.0105375958012255
1492637634.6,40.4452753015287,-79.9489466565748,1.0900000333786,0.04559326171875,-0.969467163085938,0.188919067382812,0.000890294752413489,0.00212387096933819,0.0138644166349525
1492637634.8,40.4452753015287,-79.9489466565748,1.0900000333786,0.0352935791015625,-0.965866088867188,0.23614501953125,-0.00653220152174636,-0.00740252256598425,0.00634950867096692
1492637635.0,40.4452753015287,-79.9489466565748,1.0900000333786,0.0445098876953125,-0.957565307617188,0.22900390625,-0.0160721771786282,-0.00946860293966772,0.00199231081148828
1492637635.2,40.4452759368118,-79.948937164776,0.540000021457672,0.07110595703125,-0.965988159179688,0.220565795898438,-0.0227508525603289,-0.00516653251475372,0.0253695388602038
1492637635.4,40.4452759368118,-79.948937164776,0.540000021457672,-0.0029296875,-0.960174560546875,0.238235473632812,-0.00674658598949773,0.00111186975510808,0.0265834076850619
1492637635.6,40.4452759368118,-79.948937164776,0.540000021457672,0.008697509765625,-0.942092895507812,0.242202758789062,-0.0198211090451327,-0.0137054259178748,-0.0374850576073013
1492637635.8,40.4452759368118,-79.948937164776,0.540000021457672,0.095855712890625,-0.976211547851562,0.21234130859375,-0.0169504877061363,-0.00414600918503536,-0.00869255779801863
1492637636.0,40.4452759368118,-79.948937164776,0.540000021457672,0.0280609130859375,-0.952728271484375,0.23321533203125,-0.035559592139174,-0.00933810804625384,0.0252491639789322
1492637636.2,40.4452767198324,-79.9489254656236,0.990000009536743,0.0075836181640625,-0.96197509765625,0.214096069335938,-0.0304351375696435,-0.00725391817715783,-0.0365441627941763
1492637636.4,40.4452767198324,-79.9489254656236,0.990000009536743,0.106765747070312,-0.947525024414062,0.21746826171875,-0.00989683924295246,-0.0105700863665245,0.0169853751164164
1492637636.6,40.4452767198324,-79.9489254656236,0.990000009536743,0.0156707763671875,-0.963226318359375,0.1710205078125,-0.0282529433724326,0.00231801541280497,0.0423533160799662
1492637636.8,40.4452767198324,-79.9489254656236,0.990000009536743,-0.0381927490234375,-1.00471496582031,0.128662109375,-0.0285653321682989,-0.0125821045700794,-0.0205180583024065
1492637637.0,40.4452767198324,-79.9489254656236,0.990000009536743,0.0754852294921875,-0.98590087890625,0.119827270507812,0.00129243207701545,-0.022351112080708,-0.0287168660343244
1492637637.2,40.4452776918793,-79.9489109422195,1.23000001907349,0.0321807861328125,-1.00389099121094,0.0828857421875,-0.020400346582225,-0.00305677629919295,0.0104611630779403
1492637637.4,40.4452776918793,-79.9489109422195,1.23000001907349,0.005340576171875,-0.993560791015625,0.069000244140625,-0.00775805457150983,-0.0190945986997591,0.0116982014042821
1492637637.6,40.4452776918793,-79.9489109422195,1.23000001907349,0.0221099853515625,-0.986953735351562,0.065460205078125,-0.015965650735025,-0.014789598797646,-0.00865500722664852
1492637637.8,40.4452776918793,-79.9489109422195,1.23000001907349,0.0357208251953125,-0.997650146484375,0.0730743408203125,-0.0117839551913826,-0.00949683244722256,-9.61401153518605e-05
1492637638.0,40.4452776918793,-79.9489109422195,1.23000001907349,0.0281219482421875,-0.980880737304688,0.119873046875,-0.00669199118715111,-0.016973923523729,0.0127698574269299
1492637638.2,40.4452782567087,-79.9489025030735,0.400000005960464,0.0375213623046875,-0.983612060546875,0.115631103515625,-0.0169757877364921,0.00223732163177557,-0.00337821984276551
1492637638.4,40.4452782567087,-79.9489025030735,0.400000005960464,0.0367279052734375,-0.983932495117188,0.15185546875,-0.0201473462786675,0.00332149451154683,-0.00447970326962229
1492637638.6,40.4452782567087,-79.9489025030735,0.400000005960464,0.03887939453125,-0.951095581054688,0.235107421875,-0.00319419541144104,2.07726565026181e-05,-3.27568814079746e-05
1492637638.8,40.4452782567087,-79.9489025030735,0.400000005960464,0.04840087890625,-0.95733642578125,0.225860595703125,-0.0128313764481108,-0.00523497575476876,0.000948351664177217
1492637639.0,40.4452782567087,-79.9489025030735,0.400000005960464,0.04559326171875,-0.961074829101562,0.229736328125,-0.0149954611499092,-0.00202906243453137,0.00518277779740321
1492637639.2,40.4452781579004,-79.9489039793738,0.0,0.0420989990234375,-0.957138061523438,0.194381713867188,-0.0190453302195927,0.00437770419987225,-0.00660357423896048
1492637639.4,40.4452781579004,-79.9489039793738,0.0,0.0360870361328125,-0.976531982421875,0.165130615234375,-0.0180072300266798,-0.0030754184268235,-0.00870613991957804
1492637639.6,40.4452781579004,-79.9489039793738,0.0,0.0472259521484375,-0.967193603515625,0.150527954101562,-0.0190400038974125,0.00118617194952129,-0.00872771152440768
1492637639.8,40.4452781579004,-79.9489039793738,0.0,0.04498291015625,-0.976150512695312,0.13330078125,-0.0127741184846741,-0.00736364041406909,-0.00437663893543622
1492637640.0,40.4452781579004,-79.9489039793738,0.0,0.0417327880859375,-0.976470947265625,0.12774658203125,-0.018149709144999,-0.00839188691094869,-0.00123038042361661
1492637640.2,40.4452786904846,-79.9488960220045,0.270000010728836,0.041046142578125,-0.97723388671875,0.137237548828125,-0.0169464929645012,0.00223678899955755,-0.00551034661148295
1492637640.4,40.4452786904846,-79.9488960220045,0.270000010728836,0.042083740234375,-0.9736328125,0.141891479492188,-0.0191758251130065,-0.00519422939009055,-0.00231535225171489
1492637640.6,40.4452786904846,-79.9488960220045,0.270000010728836,0.0345916748046875,-0.979583740234375,0.1568603515625,-0.0146931923661852,0.0128588070073386,-0.00871333045452125
1492637640.8,40.4452786904846,-79.9488960220045,0.270000010728836,0.0454864501953125,-0.959503173828125,0.179183959960938,-0.0181723460142647,0.00224664269559085,0.00620543165599363
1492637641.0,40.4452786904846,-79.9488960220045,0.270000010728836,0.0445709228515625,-0.969497680664062,0.168869018554688,-0.0160615245342679,-0.00414973761056147,0.00411112177475532
1492637641.2,40.4452786517097,-79.9488966013432,0.0,0.0412750244140625,-0.962112426757812,0.184661865234375,-0.0149621716362832,-0.00734872671196465,-0.000134223318939994
1492637641.4,40.4452786517097,-79.9488966013432,0.0,0.0445098876953125,-0.9749755859375,0.192733764648438,-0.017006414089028,0.00011025486912928,-0.00230683013622664
1492637641.6,40.4452786517097,-79.9488966013432,0.0,0.037750244140625,-0.972213745117188,0.181243896484375,-0.0054648065568426,-0.014856177824898,0.00211481622163192
1492637641.8,40.4452786517097,-79.9488966013432,0.0,0.0419769287109375,-0.940826416015625,0.25103759765625,-0.00533431166342871,-0.00528424423493522,-0.00217340576561367
1492637642.0,40.4452786517097,-79.9488966013432,0.0,0.04974365234375,-0.952102661132812,0.253814697265625,-0.0159150506743135,-0.00415240077165155,-0.00654951206883187
1492637642.2,40.4452786496603,-79.9488966319623,0.0,0.0265960693359375,-0.965240478515625,0.24267578125,-0.0170037509279379,-0.00733647617095029,-0.00655244154603096
1492637642.4,40.4452786496603,-79.9488966319623,0.0,0.04632568359375,-0.949295043945312,0.235366821289062,-0.00737455937453842,-0.00314439429905656,-0.00753088693052607
1492637642.6,40.4452786496603,-79.9488966319623,0.0,0.0541839599609375,-0.961105346679688,0.241226196289062,-0.00414174812729123,2.55663464647607e-05,-0.00857218291674705
1492637642.8,40.4452786496603,-79.9488966319623,0.0,0.063629150390625,-0.962066650390625,0.2237548828125,0.00637108027579656,-0.00429647778662483,-0.000989896977182453
1492637643.0,40.4452786496603,-79.9488966319623,0.0,0.0611572265625,-0.974945068359375,0.187164306640625,-0.00664005954589457,0.00749280372693794,0.0223031751810866
1492637643.2,40.4452795474024,-79.9488832187507,0.75,0.0421142578125,-0.923324584960938,0.28900146484375,0.00597693243446483,-0.00216168785681732,0.0288545514626815
1492637643.4,40.4452795474024,-79.9488832187507,0.75,0.024688720703125,-0.906326293945312,0.417282104492188,0.0362727866790972,-0.00236435441577235,-0.00601980932801511
1492637643.6,40.4452795474024,-79.9488832187507,0.75,0.0832061767578125,-0.891311645507812,0.465255737304688,0.0633784402539237,0.0155384796961763,-0.0313776302794226
1492637643.8,40.4452795474024,-79.9488832187507,0.75,0.038116455078125,-0.90716552734375,0.433685302734375,0.00766351235281202,-0.00324373020771651,-0.016972591943184
1492637644.0,40.4452795474024,-79.9488832187507,0.75,-0.0258941650390625,-0.9366455078125,0.46746826171875,-0.0480415618522664,0.0683854494193817,-0.0315885526377569
1492637644.2,40.4452808597983,-79.9488636101726,2.42000007629395,0.0841064453125,-0.906356811523438,0.488311767578125,-0.0584417385412438,-0.0091956289279346,-0.0144353983726655
1492637644.4,40.4452808597983,-79.9488636101726,2.42000007629395,0.103713989257812,-0.905410766601562,0.498382568359375,0.0123160547771804,-0.0107128318009527,0.0278753071298594
1492637644.6,40.4452808597983,-79.9488636101726,2.42000007629395,0.087890625,-0.934768676757812,0.42919921875,-0.0367462967209133,0.0693806727187443,-0.000555269087281521
1492637644.8,40.4452808597983,-79.9488636101726,2.42000007629395,0.011077880859375,-0.90185546875,0.428497314453125,-0.00668400170388087,-0.0393141166439677,3.30231975169826e-05
1492637645.0,40.4452808597983,-79.9488636101726,2.42000007629395,0.0493927001953125,-0.871917724609375,0.429397583007812,-0.0489630155894338,0.0120201775800726,0.00479874996821378
1492637645.2,40.445283657959,-79.9488218027057,4.1100001335144,0.0168609619140625,-0.851409912109375,0.397003173828125,-0.0682333829211382,-0.0155123807174935,-0.00279099282240304
1492637645.4,40.445283657959,-79.9488218027057,4.1100001335144,0.055206298828125,-0.843002319335938,0.34625244140625,-0.119148761905709,-0.00135395109819628,-0.00974610432525398
1492637645.6,40.445283657959,-79.9488218027057,4.1100001335144,0.0449676513671875,-0.940933227539062,0.282073974609375,-0.118815866769449,0.0273629149361281,-0.0183465167495559
1492637645.8,40.445283657959,-79.9488218027057,4.1100001335144,0.035003662109375,-0.970230102539062,0.360626220703125,-0.0767765373820034,-0.00907365615000897,0.00243599344909548
1492637646.0,40.445283657959,-79.9488218027057,4.1100001335144,0.157989501953125,-0.70404052734375,0.347396850585938,-0.0630348924733035,0.0301991814970625,0.0312631143525492
1492637646.2,40.4452873295323,-79.9487669455334,6.13000011444092,-0.0948486328125,-1.09529113769531,0.343597412109375,0.0844301960387821,-0.154793042567548,-0.0285900995664367
1492637646.4,40.4452873295323,-79.9487669455334,6.13000011444092,0.177780151367188,-0.992523193359375,0.293975830078125,0.0628351553915476,0.0953342428060025,0.0515755766188015
1492637646.6,40.4452873295323,-79.9487669455334,6.13000011444092,-0.285018920898438,-0.96051025390625,0.483642578125,0.139996253234958,-0.218960577452462,0.0776995890158248
1492637646.8,40.4452873295323,-79.9487669455334,6.13000011444092,-0.0662689208984375,-0.863067626953125,0.396484375,-0.0294340553158828,-0.10616931370099,0.0692765431201222
1492637647.0,40.4452873295323,-79.9487669455334,6.13000011444092,0.0153350830078125,-0.975051879882812,0.348663330078125,-0.0399716511171083,-0.0199457449841485,0.0305624366697493
1492637647.2,40.4452928581457,-79.9486729553224,7.59999990463257,0.10247802734375,-0.944778442382812,0.305130004882812,0.033105222878557,0.00510261664859182,-0.0039390815683362
1492637647.4,40.4452928581457,-79.9486729553224,7.59999990463257,0.151748657226562,-1.05125427246094,0.31787109375,-0.0641885738575258,0.100381998336139,-0.156583485768408
1492637647.6,40.4452928581457,-79.9486729553224,7.59999990463257,0.07501220703125,-0.8973388671875,0.327301025390625,0.0742031248206598,-0.0845074277103944,0.0564209319060917
1492637647.8,40.4452928581457,-79.9486729553224,7.59999990463257,-0.0836639404296875,-0.944488525390625,0.33990478515625,-0.119823873242044,-0.0502770192712789,0.0127637321564228
1492637648.0,40.4452928581457,-79.9486729553224,7.59999990463257,0.0450286865234375,-0.944625854492188,0.270004272460938,-0.0295794639114011,-0.025341841984867,-0.031157653173382
1492637648.2,40.4452988467033,-79.948571083954,8.84000015258789,0.222335815429688,-0.99658203125,0.179702758789062,-0.0741304205229006,0.0323917620225248,-0.012570919293501
1492637648.4,40.4452988467033,-79.948571083954,8.84000015258789,0.182022094726562,-0.878036499023438,0.255828857421875,0.108611965052811,-0.00921693421665523,-0.00419527766520182
1492637648.6,40.4452988467033,-79.948571083954,8.84000015258789,0.0941619873046875,-0.869644165039062,0.2115478515625,-0.108655374578579,0.0613320672723068,-0.0417868617161063
1492637648.8,40.4452988467033,-79.948571083954,8.84000015258789,0.291061401367188,-0.951751708984375,0.149703979492188,0.00558225196091509,-0.0521412320343344,0.10787932943693
1492637649.0,40.4452988467033,-79.948571083954,8.84000015258789,0.054840087890625,-0.943954467773438,0.175888061523438,0.10794910425749,-0.16449653631536,0.114548417438706
1492637649.2,40.4453052851265,-79.9484615599195,9.60000038146973,-0.0543670654296875,-0.849227905273438,0.214523315429688,-0.0507537251064031,0.101375623738847,-0.0487608816626968
1492637649.4,40.4453052851265,-79.9484615599195,9.60000038146973,0.0050506591796875,-0.851242065429688,0.217498779296875,-0.190778207848916,-0.00728001715584061,-0.0701721641947159
1492637649.6,40.4453052851265,-79.9484615599195,9.60000038146973,0.03802490234375,-0.946136474609375,0.213943481445312,0.0325235884964837,-0.102306931172048,0.134939975589334
1492637649.8,40.4453052851265,-79.9484615599195,9.60000038146973,-0.130401611328125,-0.960418701171875,0.304519653320312,-0.0259335963790826,-0.143429067880071,0.0267599752653342
1492637650.0,40.4453052851265,-79.9484615599195,9.60000038146973,0.0828094482421875,-0.90728759765625,0.170135498046875,-0.0999268641058442,0.0144899931750121,0.0725082891029334
1492637650.2,40.445311728855,-79.9483519456381,9.63000011444092,0.08074951171875,-1.04263305664062,0.171707153320312,0.0370104823010492,0.0529404466774672,-0.029611688160591
1492637650.4,40.445311728855,-79.9483519456381,9.63000011444092,0.109970092773438,-0.968185424804688,0.137969970703125,-0.0339102964760879,0.0236225051851119,0.00065806710535858
1492637650.6,40.445311728855,-79.9483519456381,9.63000011444092,0.0958251953125,-1.02981567382812,0.09124755859375,0.00896792865473283,0.0403612715845869,-0.0106744822812556
1492637650.8,40.445311728855,-79.9483519456381,9.63000011444092,-0.0604705810546875,-1.15802001953125,0.029296875,0.0186032454786395,-0.0203268433361388,0.0300969161112035
1492637651.0,40.445311728855,-79.9483519456381,9.63000011444092,0.0244140625,-0.80108642578125,0.118667602539062,-0.135181524300204,-0.127830134427149,0.00321070701019953
1492637651.2,40.4453182954213,-79.9482402417624,9.44999980926514,0.345138549804688,-0.965682983398438,0.04754638671875,-0.0132889075233864,-0.041408692841315,-0.0629358228807526
1492637651.4,40.4453182954213,-79.9482402417624,9.44999980926514,0.0640106201171875,-0.812881469726562,0.144638061523438,0.00090307792564587,-0.134031837657617,0.0163483469836694
1492637651.6,40.4453182954213,-79.9482402417624,9.44999980926514,0.146591186523438,-0.99847412109375,0.100173950195312,-0.0427685028939095,-0.000796018849824684,-0.0654748806640341
1492637651.8,40.4453182954213,-79.9482402417624,9.44999980926514,0.1375732421875,-0.919937133789062,0.1124267578125,-0.0413767349082341,0.0492027000875409,0.0154426058969335
1492637652.0,40.4453182954213,-79.9482402417624,9.44999980926514,-0.02642822265625,-0.951934814453125,0.20361328125,-0.0713117308251608,0.00578252167488905,0.000321177227463556
1492637652.2,40.4453245327683,-79.9481341382382,8.60000038146973,-0.08538818359375,-1.03865051269531,0.208419799804688,0.0190272207241801,0.0179502383793521,-0.0574270741659237
1492637652.4,40.4453245327683,-79.9481341382382,8.60000038146973,0.0176239013671875,-0.899444580078125,0.199859619140625,0.00076193038787167,-0.0670091277680288,0.0630873567467781
1492637652.6,40.4453245327683,-79.9481341382382,8.60000038146973,0.0463104248046875,-0.964569091796875,0.21197509765625,-0.00203625296947459,-0.00317928170933659,-0.00854235551253816
1492637652.8,40.4453245327683,-79.9481341382382,8.60000038146973,0.16864013671875,-0.825942993164062,0.240707397460938,-0.0170527530919954,-0.15305293311129,0.0727229398867938
1492637653.0,40.4453245327683,-79.9481341382382,8.60000038146973,0.057037353515625,-0.907928466796875,0.18890380859375,-0.112728413149746,0.0145610995761172,-0.00332415767263691
1492637653.2,40.4453323045037,-79.948031461763,8.97999954223633,0.145370483398438,-0.929046630859375,0.199188232421875,-0.119031582817746,0.0337497078623562,0.000826645202360595
1492637653.4,40.4453323045037,-79.948031461763,8.97999954223633,0.005035400390625,-0.97705078125,0.235061645507812,-0.0806346588532012,0.0228611074294582,-0.00941427445343011
1492637653.6,40.4453323045037,-79.948031461763,8.97999954223633,0.067626953125,-0.88983154296875,0.17559814453125,-0.0285432279312513,-0.0753349682839435,0.0212264591523676
1492637653.8,40.4453323045037,-79.948031461763,8.97999954223633,-0.0454254150390625,-0.939910888671875,0.214431762695312,-0.0246773832928922,0.0778085123044091,-0.021777733498014
1492637654.0,40.4453323045037,-79.948031461763,8.97999954223633,-0.0043792724609375,-1.05235290527344,0.16534423828125,-0.0571759380751292,0.042920569392153,-0.000696150308946713
1492637654.2,40.4453407405486,-79.9479226518833,9.39999961853027,0.080780029296875,-0.991851806640625,0.09039306640625,0.0555378276886214,0.00495587647252845,-0.00904010032027397
1492637654.4,40.4453407405486,-79.9479226518833,9.39999961853027,-0.012359619140625,-0.96533203125,0.15185546875,0.0127655963691858,-0.0809201497220576,0.0344583750284263
1492637654.6,40.4453407405486,-79.9479226518833,9.39999961853027,0.0371551513671875,-1.05661010742188,0.1578369140625,0.039727971877366,0.040162599767267,-0.00182932535277543
1492637654.8,40.4453407405486,-79.9479226518833,9.39999961853027,-0.0121917724609375,-0.810531616210938,0.139984130859375,-0.0772252800256817,-0.0122569326009807,0.0333598210787686
1492637655.0,40.4453407405486,-79.9479226518833,9.39999961853027,0.29034423828125,-0.88873291015625,0.115158081054688,-0.112794725860889,0.226223550377326,-0.115823538968636
1492637655.2,40.4453495121752,-79.9478095136014,9.78999996185303,0.007232666015625,-0.927963256835938,0.146591186523438,-0.0643126771643235,-0.0644692710364202,-0.00475693833909954
1492637655.4,40.4453495121752,-79.9478095136014,9.78999996185303,0.131637573242188,-0.865921020507812,0.111785888671875,-0.156343801270301,-0.00536813380927272,-0.0175800589878311
1492637655.6,40.4453495121752,-79.9478095136014,9.78999996185303,0.14117431640625,-1.02473449707031,0.00439453125,-0.0492343917045129,0.188580567317383,-0.111877000549248
1492637655.8,40.4453495121752,-79.9478095136014,9.78999996185303,0.195297241210938,-1.02601623535156,0.05224609375,-0.076428994859748,0.0430468032278228,0.00550368870875775
1492637656.0,40.4453495121752,-79.9478095136014,9.78999996185303,0.0491485595703125,-0.841217041015625,0.121566772460938,-0.166983129825167,0.112784073216529,0.045978943588
1492637656.2,40.4453584726631,-79.9476939393449,9.89000034332275,0.23248291015625,-0.899154663085938,0.04290771484375,-0.0472601903884372,0.237492450213887,-0.151432932220195
1492637656.4,40.4453584726631,-79.9476939393449,9.89000034332275,-0.140304565429688,-1.08918762207031,0.063690185546875,0.0712131938648278,0.0123040705522751,0.0166905631837446
1492637656.6,40.4453584726631,-79.9476939393449,9.89000034332275,0.341964721679688,-0.871841430664062,0.0450897216796875,-0.0329664721857639,0.112940667088625,-0.174421871381977
1492637656.8,40.4453584726631,-79.9476939393449,9.89000034332275,-0.147628784179688,-0.939483642578125,0.108261108398438,-0.0563676686842901,-0.255963070270241,0.165346617335314
1492637657.0,40.4453584726631,-79.9476939393449,9.89000034332275,-0.0197296142578125,-0.78948974609375,-0.016754150390625,-0.128523088942788,-0.166136510914631,0.195296260638236
1492637657.2,40.4453637370135,-79.9476260386469,9.92000007629395,-0.001983642578125,-1.05119323730469,0.153030395507812,0.0896183001583655,-0.193097554842266,0.115500763844519
1492637657.4,40.4453637370135,-79.9476260386469,9.92000007629395,-0.140823364257812,-0.915863037109375,0.197113037109375,-0.024232635390849,0.133118639719829,-0.0240483446434155
1492637657.6,40.4453637370135,-79.9476260386469,9.92000007629395,-0.118072509765625,-0.931243896484375,0.1820068359375,-0.120279007472339,0.148626759379578,-0.0783824235193211
1492637657.8,40.4453637370135,-79.9476260386469,9.92000007629395,-0.0804901123046875,-1.03289794921875,0.0983123779296875,-0.0578627673202606,0.152468369252017,-0.123600501983886
1492637658.0,40.4453637370135,-79.9476260386469,9.92000007629395,0.09857177734375,-0.99420166015625,0.064697265625,0.0477781752204576,0.120940536687114,-0.0787227755066333
1492637658.2,40.4453785044292,-79.9474598677245,10.1000003814697,0.0257110595703125,-0.879714965820312,0.0165863037109375,-0.0472282324553562,-0.108184794013962,0.045642852658432
1492637658.4,40.4453785044292,-79.9474598677245,10.1000003814697,-0.21185302734375,-0.829803466796875,0.245193481445312,0.0273954055014271,-0.00336623561786016,0.0194810233739296
1492637658.6,40.4453785044292,-79.9474598677245,10.1000003814697,-0.204483032226562,-0.87890625,-0.05621337890625,-0.248273991570964,0.0834930296511832,-0.176550269725168
1492637658.8,40.4453785044292,-79.9474598677245,10.1000003814697,0.257034301757812,-1.01152038574219,0.577423095703125,-0.0401847040043146,-0.0678134024172327,0.0200216450752157
1492637659.0,40.4453785044292,-79.9474598677245,10.1000003814697,0.157608032226562,-0.8941650390625,0.185867309570312,-0.0984615928740826,0.10168348516086,-0.0641771222648385
1492637659.2,40.4453895363376,-79.9473343087084,10.3299999237061,0.159194946289062,-1.00126647949219,0.0589447021484375,-0.0548778963704998,-0.0549545954098941,0.0113083146206945
1492637659.4,40.4453895363376,-79.9473343087084,10.3299999237061,0.10650634765625,-0.954788208007812,0.0892181396484375,0.0795140006664958,-0.0420017788160757,0.00305491208642989
1492637659.6,40.4453895363376,-79.9473343087084,10.3299999237061,0.05267333984375,-0.985946655273438,0.0671539306640625,-0.0553601948439132,0.0492828612363523,-0.0518722527642364
1492637659.8,40.4453895363376,-79.9473343087084,10.3299999237061,0.023895263671875,-1.03352355957031,0.0299224853515625,0.0465224947664852,-0.00137499007080791,-0.0538970541410236
1492637660.0,40.4453895363376,-79.9473343087084,10.3299999237061,-0.002655029296875,-0.909500122070312,0.0686187744140625,0.0118252341882788,0.00524083470916693,-0.00522352416208142
1492637660.2,40.445400317526,-79.9472116032472,10.3100004196167,0.0599517822265625,-0.933135986328125,0.016998291015625,-0.00774074402442431,-0.0148396662261395,0.0127536121442805
1492637660.4,40.445400317526,-79.9472116032472,10.3100004196167,0.108718872070312,-1.01817321777344,0.0034637451171875,-0.0549644491059274,-0.00601767879914305,0.0442337741256711
1492637660.6,40.445400317526,-79.9472116032472,10.3100004196167,0.08404541015625,-0.97149658203125,-0.0429534912109375,-0.0447267252434448,-0.000772849348340995,-0.000455933178621566
1492637660.8,40.445400317526,-79.9472116032472,10.3100004196167,0.0221405029296875,-0.967987060546875,-0.0083465576171875,0.0127536121442805,-0.07666468461622,0.0376459125371421
1492637661.0,40.445400317526,-79.9472116032472,10.3100004196167,0.04840087890625,-1.03656005859375,-0.0768280029296875,-0.0213726666962129,0.0437437524850965,-0.0483113400706914
1492637661.2,40.4454105510501,-79.9470951309956,9.75,-0.015838623046875,-1.04168701171875,-0.0380859375,-0.0635872320833859,0.120595923642058,-0.111848504725584
1492637661.4,40.4454105510501,-79.9470951309956,9.75,0.017974853515625,-0.952239990234375,-0.0573577880859375,-0.165861939006244,0.0904236400720054,-0.0477787078526756
1492637661.6,40.4454105510501,-79.9470951309956,9.75,0.0452423095703125,-0.964523315429688,-0.1304931640625,-0.106408731882988,0.0847199479653827,-0.0375593598017145
1492637661.8,40.4454105510501,-79.9470951309956,9.75,-0.0277862548828125,-1.0308837890625,-0.144821166992188,-0.0241418215976773,-0.0232384773559224,0.0392627176349292
1492637662.0,40.4454105510501,-79.9470951309956,9.75,0.062713623046875,-1.04716491699219,-0.0246734619140625,0.0107045760015735,-0.0138998366774506,-0.0115828865290816
1492637662.2,40.4454198943398,-79.9469887908935,8.63000011444092,0.055908203125,-1.04115295410156,-0.0508880615234375,-0.00841399114799635,-0.0212227307268415,-0.01922322938041
1492637662.4,40.4454198943398,-79.9469887908935,8.63000011444092,0.0559234619140625,-1.00125122070312,-0.0199737548828125,0.00333933769085036,-0.0138529650422652,-0.0180556995585192
1492637662.6,40.4454198943398,-79.9469887908935,8.63000011444092,0.129013061523438,-1.02922058105469,-0.0589599609375,0.0274705066441673,0.0391724364739755,-0.0403359715542311
1492637662.8,40.4454198943398,-79.9469887908935,8.63000011444092,0.004302978515625,-1.03904724121094,-0.04205322265625,0.0255615527747985,-0.0225063743722596,-0.0124747791781492
1492637663.0,40.4454198943398,-79.9469887908935,8.63000011444092,0.102981567382812,-1.22038269042969,-0.135299682617188,0.152392202844841,0.0957893770362971,-0.110639429590688
1492637663.2,40.4454275941541,-79.9469011559108,7.57999992370605,0.122482299804688,-0.995315551757812,-0.1114501953125,-0.130211533073898,-0.0565953689574919,-0.00971680955326311
1492637663.4,40.4454275941541,-79.9469011559108,7.57999992370605,0.119583129882812,-1.05923461914062,0.0900726318359375,-0.018551313837383,-0.00201414873242693,-0.0460319404936926
1492637663.6,40.4454275941541,-79.9469011559108,7.57999992370605,0.154998779296875,-1.06153869628906,-0.0659027099609375,0.0273112496109806,0.0466095801341308,-0.102197208935137
1492637663.8,40.4454275941541,-79.9469011559108,7.57999992370605,0.150283813476562,-1.03837585449219,-0.182388305664062,-0.0234142459878677,0.0437560030261109,-0.0547295582977824
1492637664.0,40.4454275941541,-79.9469011559108,7.57999992370605,0.0407257080078125,-0.94281005859375,-0.052520751953125,-0.0382943922625764,0.0342905958797513,0.0155126470336026
1492637664.2,40.4454336576405,-79.9468321446977,5.84000015258789,0.132293701171875,-1.01591491699219,-0.0457763671875,-0.0800213328541559,0.0505214974593482,0.0385002546148395
1492637664.4,40.4454336576405,-79.9468321446977,5.84000015258789,0.285018920898438,-0.915252685546875,0.007537841796875,-0.340993276502618,0.0756114044050937,-0.0207457585756083
1492637664.6,40.4454336576405,-79.9468321446977,5.84000015258789,0.112335205078125,-0.843734741210938,-0.0049896240234375,-0.193699162932515,0.313969648289366,-0.147798516280564
1492637664.8,40.4454336576405,-79.9468321446977,5.84000015258789,0.348220825195312,-0.97515869140625,-0.0951995849609375,-0.236972334852995,0.220631178404269,-0.226900525926424
1492637665.0,40.4454336576405,-79.9468321446977,5.84000015258789,0.233505249023438,-1.00112915039062,-0.11328125,0.0204450876885383,0.0115788917874465,0.0684171410363536
1492637665.2,40.445439698371,-79.946763392479,4.90999984741211,0.229644775390625,-1.00350952148438,-0.121719360351562,0.0759365763741924,-0.124926489890636,0.140773896273262
1492637665.4,40.445439698371,-79.946763392479,4.90999984741211,-0.0172271728515625,-1.10905456542969,-0.112197875976562,0.0786969428440595,-0.0324250515361508,-0.00977273593615477
1492637665.6,40.445439698371,-79.946763392479,4.90999984741211,0.0560150146484375,-1.0347900390625,-0.1021728515625,0.0150886717880619,0.0105378621173345,-0.00733620985484128
1492637665.8,40.445439698371,-79.946763392479,4.90999984741211,0.048187255859375,-0.999786376953125,-0.12060546875,-0.0510546623095821,0.0769134238620334,-0.0401711218827552
1492637666.0,40.445439698371,-79.946763392479,4.90999984741211,0.04705810546875,-1.02151489257812,-0.105453491210938,0.000705737688870998,0.0393482051059207,-0.0299483117223771
1492637666.2,40.4454426757845,-79.9467343253618,2.88000011444092,0.04638671875,-1.0426025390625,-0.09027099609375,-0.0257487729994311,0.0554755097191136,-0.0334594233035375
1492637666.4,40.4454426757845,-79.9467343253618,2.88000011444092,0.067779541015625,-1.00518798828125,-0.102493286132812,-0.00693780095576542,0.0159962770875609,-0.0289000915173219
1492637666.6,40.4454426757845,-79.9467343253618,2.88000011444092,0.066650390625,-1.02291870117188,-0.0362396240234375,-0.00103144229018769,-0.00531274005859907,-0.00532792007681252
1492637666.8,40.4454426757845,-79.9467343253618,2.88000011444092,0.056640625,-1.00617980957031,-0.056304931640625,0.00722409077294894,-0.0266396003840626,0.00227513851925469
1492637667.0,40.4454426757845,-79.9467343253618,2.88000011444092,0.09222412109375,-1.0133056640625,-0.0301666259765625,-0.00791864318524161,0.0330226648847645,-0.0257554309021563
1492637667.2,40.4454457584973,-79.9467059703395,1.32000005245209,0.0641937255859375,-1.00338745117188,-0.0390167236328125,-0.00438675894757852,-0.00528903792489737,0.00636602026972541
1492637667.4,40.4454457584973,-79.9467059703395,1.32000005245209,0.0837249755859375,-1.00993347167969,-0.028228759765625,-0.00633645918162553,0.00110441290405586,-0.00326636707698219
1492637667.6,40.4454457584973,-79.9467059703395,1.32000005245209,0.09527587890625,-0.98590087890625,0.018646240234375,-0.0183201514547641,-0.0115802233679916,0.00943824290324082
1492637667.8,40.4454457584973,-79.9467059703395,1.32000005245209,0.07098388671875,-0.997909545898438,0.002105712890625,-0.0107764813510056,-0.00737509200675643,0.0052397694447309
1492637668.0,40.4454457584973,-79.9467059703395,1.32000005245209,0.08892822265625,-0.989044189453125,0.0137939453125,-0.0126502814939854,0.00327222603138036,-0.00760146069941317
1492637668.2,40.4454467334565,-79.9466970025916,0.400000005960464,0.11907958984375,-0.95849609375,0.1881103515625,0.00529835898871264,-0.00535322010716828,-0.000998152776561698
1492637668.4,40.4454467334565,-79.9466970025916,0.400000005960464,0.118576049804688,-0.932586669921875,0.225555419921875,-0.0104156230232999,0.0075117121706775,-0.0129205923446284
1492637668.6,40.4454467334565,-79.9466970025916,0.400000005960464,0.140151977539062,-0.933319091796875,0.263931274414062,-0.00921640158443722,0.0117575898965908,-0.0203827697190305
1492637668.8,40.4454467334565,-79.9466970025916,0.400000005960464,0.150711059570312,-0.927322387695312,0.283889770507812,0.000463390029673787,0.0265868697944791,-0.0192557199457089
1492637669.0,40.4454467334565,-79.9466970025916,0.400000005960464,0.201400756835938,-0.933334350585938,0.282821655273438,-0.0301030413817107,0.106555472059051,-0.0762843852125567
1492637669.2,40.445448037952,-79.946685003745,1.14999997615814,0.247238159179688,-0.937789916992188,0.296615600585938,-0.00773302085726308,0.146834718282064,-0.0548350194769495
1492637669.4,40.445448037952,-79.946685003745,1.14999997615814,0.2164306640625,-0.89013671875,0.358047485351562,0.0325057453171802,0.156149923142943,-0.0331227997417515
1492637669.6,40.445448037952,-79.946685003745,1.14999997615814,0.255447387695312,-0.971908569335938,0.29010009765625,0.0367718630673781,0.277384206498293,-0.0451203404525585
1492637669.8,40.445448037952,-79.946685003745,1.14999997615814,0.301528930664062,-1.04753112792969,0.229400634765625,0.120829749185767,0.351305036243405,0.000330498291278833
1492637670.0,40.445448037952,-79.946685003745,1.14999997615814,0.344146728515625,-0.969436645507812,0.235870361328125,0.182416148342177,0.407263643384258,-0.111135842817879
1492637670.2,40.4454509836116,-79.9466579093478,3.09999990463257,0.268386840820312,-0.931655883789062,0.511978149414062,0.173952356081796,0.313715050089154,-0.0885905862937039
1492637670.4,40.4454509836116,-79.9466579093478,3.09999990463257,0.337295532226562,-0.885269165039062,0.315048217773438,0.0872768489279678,0.505757460507531,-0.0313318239086732
1492637670.6,40.4454509836116,-79.9466579093478,3.09999990463257,0.366424560546875,-0.9801025390625,0.29949951171875,-0.0389748299210916,0.537423777449118,-0.048699362641516
1492637670.8,40.4454509836116,-79.9466579093478,3.09999990463257,0.322708129882812,-0.916061401367188,0.204132080078125,-0.0382850711987611,0.527836930157051,-0.104110690178359
1492637671.0,40.4454509836116,-79.9466579093478,3.09999990463257,0.579376220703125,-0.894729614257812,0.297958374023438,0.0244217198282446,0.483826595246838,-0.0415146866527002
1492637671.2,40.4454542619409,-79.9466277550302,4.32000017166138,0.330657958984375,-0.892684936523438,0.336166381835938,-0.0238536675677307,0.534119060852439,-0.143429067880071
1492637671.4,40.4454542619409,-79.9466277550302,4.32000017166138,0.300003051757812,-0.869369506835938,0.322860717773438,0.0065907910657281,0.497756525644606,-0.131295173321451
1492637671.6,40.4454542619409,-79.9466277550302,4.32000017166138,0.183639526367188,-0.890777587890625,0.327682495117188,0.0463528514050472,0.41240114744313,-0.126402946398976
1492637671.8,40.4454542619409,-79.9466277550302,4.32000017166138,0.23931884765625,-0.97576904296875,0.4119873046875,-0.0934138373439464,0.674961400365715,-0.274582827347639
1492637672.0,40.4454542619409,-79.9466277550302,4.32000017166138,0.402175903320312,-0.851287841796875,0.352462768554688,0.00175049578450908,0.474378498647563,-0.179264030875959
1492637672.2,40.44555021872,-79.9466127256493,5.42000007629395,0.414260864257812,-0.906356811523438,0.486007690429688,-0.00972027166268021,0.382987332151532,-0.0917160721490209
1492637672.4,40.44555021872,-79.9466127256493,5.42000007629395,0.136734008789062,-0.878799438476562,0.461227416992188,-0.0725865860389817,0.315325197284216,-0.0484703307877692
1492637672.6,40.44555021872,-79.9466127256493,5.42000007629395,-0.002532958984375,-0.937286376953125,0.5179443359375,-0.0978780942792462,0.0655281438858357,0.0286827775723714
1492637672.8,40.44555021872,-79.9466127256493,5.42000007629395,0.03399658203125,-0.975326538085938,0.476211547851562,0.0980956745403057,0.0525385756689742,-0.0577730187915249
1492637673.0,40.44555021872,-79.9466127256493,5.42000007629395,0.2293701171875,-0.894027709960938,0.495330810546875,-0.037375069054281,0.0917072837174236,-0.0976448013677553
1492637673.2,40.4455997516054,-79.946632725253,7.36999988555908,0.0949859619140625,-0.87457275390625,0.510894775390625,-0.0715807100952588,0.0206807774450103,0.0280015409655291
1492637673.4,40.4455997516054,-79.946632725253,7.36999988555908,0.12689208984375,-0.887039184570312,0.303665161132812,-0.0251168048727553,0.0895184316174875,0.0165712535669091
1492637673.6,40.4455997516054,-79.946632725253,7.36999988555908,0.233444213867188,-0.941253662109375,0.312149047851562,0.0180849943305101,0.0498692893083878,-0.0489893808842256
1492637673.8,40.4455997516054,-79.946632725253,7.36999988555908,0.0837860107421875,-0.885391235351562,0.301116943359375,-0.0597275127155341,-0.0113123093623296,0.000483896370067398
1492637674.0,40.4455997516054,-79.946632725253,7.36999988555908,0.036468505859375,-0.937469482421875,0.31964111328125,-0.0186362686761565,-0.088156491036021,0.0682743956019254
1492637674.2,40.4456707828463,-79.9466614051221,8.72000026702881,0.116729736328125,-0.873077392578125,0.319259643554688,-0.0839793228662317,-0.0186040444269665,-0.0210698652802709
1492637674.4,40.4456707828463,-79.9466614051221,8.72000026702881,0.0991058349609375,-0.85223388671875,0.39715576171875,-0.0271389430884525,-0.0593908891537481,0.00520647993110491
1492637674.6,40.4456707828463,-79.9466614051221,8.72000026702881,0.0272216796875,-0.928512573242188,0.35687255859375,0.0691266071507508,-0.150421197322074,0.0799957665076911
1492637674.8,40.4456707828463,-79.9466614051221,8.72000026702881,0.063720703125,-0.841796875,0.3621826171875,0.015393870048985,-0.0607182086410436,0.0866776376827
1492637675.0,40.4456707828463,-79.9466614051221,8.72000026702881,0.017974853515625,-1.00788879394531,0.336135864257812,-0.00116646455745471,-0.108487595429904,0.0258571636557973
1492637675.2,40.4457490017721,-79.9466929871208,9.22000026702881,1.52587890625e-05,-0.964202880859375,0.24725341796875,0.0122614599748338,-0.0745405473307728,-0.00288074135113871
1492637675.4,40.4457490017721,-79.9466929871208,9.22000026702881,0.0671844482421875,-0.960372924804688,0.1951904296875,-0.0534922536553316,0.0131166010008583,0.0250076152680621
1492637675.6,40.4457490017721,-79.9466929871208,9.22000026702881,0.160293579101562,-0.93707275390625,0.2078857421875,-0.0830586680773913,0.134555681444035,-0.0822298923461586
1492637675.8,40.4457490017721,-79.9466929871208,9.22000026702881,0.116561889648438,-1.01795959472656,0.155624389648438,-0.0357521386859867,0.0736302788701838,0.00690744091933852
1492637676.0,40.4457490017721,-79.9466929871208,9.22000026702881,0.023162841796875,-0.922256469726562,0.1478271484375,-0.0752617313539663,0.0898457341154582,0.0235205061153618
1492637676.2,40.4458319547126,-79.9467264805449,8.88000011444092,0.0669708251953125,-1.00849914550781,0.0937652587890625,-0.0425607763288833,0.085368960323035,-0.033708695181569
1492637676.4,40.4458319547126,-79.9467264805449,8.88000011444092,0.0550537109375,-0.963790893554688,0.0664215087890625,-0.0455930515460475,0.0471019986196864,0.0111400028398015
1492637676.6,40.4458319547126,-79.9467264805449,8.88000011444092,0.0438995361328125,-1.01005554199219,0.036529541015625,-0.0254257315592045,0.0171848458820633,-0.000304665628705065
1492637676.8,40.4458319547126,-79.9467264805449,8.88000011444092,0.11907958984375,-0.975967407226562,0.0420379638671875,0.00823609198717905,0.0573831320079373,-0.0256528992001883
1492637677.0,40.4458319547126,-79.9467264805449,8.88000011444092,0.0247650146484375,-1.00027465820312,0.0404205322265625,-0.0106100337828757,0.024536235755118,0.0104901915338221
1492637677.2,40.445895417726,-79.946752104635,7.23999977111816,-0.0164031982421875,-0.94732666015625,0.0174407958984375,-0.0529441751029933,-0.0400715196579863,0.0336801993579051
1492637677.4,40.445895417726,-79.946752104635,7.23999977111816,0.125625610351562,-1.005615234375,0.0400238037109375,-0.0390142447052248,0.000249271878031417,-0.0281216495306917
1492637677.6,40.445895417726,-79.946752104635,7.23999977111816,0.121795654296875,-0.963760375976562,0.02294921875,-0.0479981523264981,0.0396741760233464,0.0271277578118741
1492637677.8,40.445895417726,-79.946752104635,7.23999977111816,-0.007293701171875,-0.995742797851562,0.027587890625,-0.000843156801119087,0.0893506524688125,-0.0450202055955715
1492637678.0,40.445895417726,-79.946752104635,7.23999977111816,0.121292114257812,-0.942672729492188,0.088531494140625,0.00906300350564865,0.0680062152801544,-0.0800487634133837
1492637678.2,40.4459408275561,-79.9467704394968,4.82000017166138,0.265213012695312,-0.942428588867188,0.12860107421875,0.0128990207397988,0.180737824223209,-0.0653734142265021
1492637678.4,40.4459408275561,-79.9467704394968,4.82000017166138,0.156585693359375,-0.9605712890625,0.267791748046875,-0.0658684958731478,0.252525195619058,-0.0290476306417123
1492637678.6,40.4459408275561,-79.9467704394968,4.82000017166138,0.195571899414062,-0.8941650390625,0.245773315429688,-0.0699250228455565,0.224890105619523,-0.0588718390572916
1492637678.8,40.4459408275561,-79.9467704394968,4.82000017166138,0.303695678710938,-0.912399291992188,0.4251708984375,-0.0654059047918011,0.329098800125997,-0.098544417183984
1492637679.0,40.4459408275561,-79.9467704394968,4.82000017166138,0.486648559570312,-0.883209228515625,0.304336547851562,-0.0825137853183611,0.538756955890812,-0.134445692891015
1492637679.2,40.4459739691611,-79.946783820889,3.79999995231628,0.20367431640625,-0.874404907226562,0.3814697265625,-0.0162862953302706,0.375597859074889,-0.0054008906906807
1492637679.4,40.4459739691611,-79.946783820889,3.79999995231628,0.282989501953125,-0.84869384765625,0.297821044921875,-0.0820368131671279,0.4143071718353,-0.0818751592889601
1492637679.6,40.4459739691611,-79.946783820889,3.79999995231628,0.266067504882812,-0.927749633789062,0.36663818359375,-0.0837601447085182,0.443036554726748,-0.0958277265559942
1492637679.8,40.4459739691611,-79.946783820889,3.79999995231628,0.215118408203125,-0.903579711914062,0.32562255859375,-0.0484487591829395,0.414094385264203,-0.0463456608701039
1492637680.0,40.4459739691611,-79.946783820889,3.79999995231628,0.185379028320312,-0.914382934570312,0.3056640625,-0.0738926002375566,0.441905243895682,-0.117048060437855
1492637680.2,40.4459948918343,-79.9467922687145,4.67000007629395,0.161911010742188,-0.937301635742188,0.348434448242188,-0.0486266583437568,0.368341277736641,-0.135791388189832
1492637680.4,40.4459948918343,-79.9467922687145,4.67000007629395,0.12615966796875,-0.835220336914062,0.327728271484375,-0.0855268857756767,0.3132463337373,-0.270369972819242
1492637680.6,40.4459948918343,-79.9467922687145,4.67000007629395,0.343231201171875,-0.919296264648438,0.289077758789062,0.124935810954451,0.412943899673288,-0.187440201738611
1492637680.8,40.4459948918343,-79.9467922687145,4.67000007629395,0.183792114257812,-1.05465698242188,0.403305053710938,0.0125565382236146,0.507247232821321,-0.405275593630514
1492637681.0,40.4459948918343,-79.9467922687145,4.67000007629395,0.349319458007812,-1.00241088867188,0.330947875976562,-0.0234374154893513,0.340510179080877,-0.201566939740936
1492637681.2,40.4459996333675,-79.9469654613511,5.80999994277954,0.331207275390625,-0.809921264648438,0.342361450195312,-0.0301773435761239,0.387365835299731,-0.150578590142497
1492637681.4,40.4459996333675,-79.9469654613511,5.80999994277954,0.064361572265625,-0.80377197265625,0.45159912109375,-0.0989918282471173,0.176135082911225,-0.140075881751552
1492637681.6,40.4459996333675,-79.9469654613511,5.80999994277954,-0.260818481445312,-1.16926574707031,0.836471557617188,0.101450991197697,0.309957329791052,0.0706089226134889
1492637681.8,40.4459996333675,-79.9469654613511,5.80999994277954,0.319366455078125,-0.906692504882812,0.34088134765625,-0.0338743438013719,0.313980300933726,-0.231459325080422
1492637682.0,40.4459996333675,-79.9469654613511,5.80999994277954,0.5291748046875,-0.555450439453125,0.306427001953125,-0.533463124275952,0.483136836524507,-0.439591489540621
1492637682.2,40.4459958503295,-79.9470078192571,7.19999980926514,0.170242309570312,-0.975189208984375,0.353805541992188,-0.0486647415473449,0.0205252488373497,-0.0122795694702464
1492637682.4,40.4459958503295,-79.9470078192571,7.19999980926514,0.160369873046875,-0.891952514648438,0.416091918945312,-0.101635814577348,0.121916318910519,-0.0546659087477295
1492637682.6,40.4459958503295,-79.9470078192571,7.19999980926514,0.152435302734375,-0.863815307617188,0.371505737304688,-0.0493478423669503,-0.0294614858751106,0.0102329301725205
1492637682.8,40.4459958503295,-79.9470078192571,7.19999980926514,0.108657836914062,-0.897293090820312,0.529403686523438,0.0757645361677733,-0.0281413569227583,0.0509603864069932
1492637683.0,40.4459958503295,-79.9470078192571,7.19999980926514,0.0104217529296875,-1.00201416015625,0.3482666015625,0.0327795182772403,0.0859458010151462,-0.01374697123088
1492637683.2,40.4459877105911,-79.9471028927531,8.56999969482422,-0.0789642333984375,-0.901596069335938,0.339523315429688,-0.0114835506204217,-0.013745107018117,0.0532286007074137
1492637683.4,40.4459877105911,-79.9471028927531,8.56999969482422,-0.0652618408203125,-0.988494873046875,0.377197265625,-0.0327092108244622,0.128918035732447,-0.0294553606046034
1492637683.6,40.4459877105911,-79.9471028927531,8.56999969482422,-0.0533294677734375,-0.97174072265625,0.3536376953125,0.00793009477792895,-0.101094393927735,0.0653811373936633
1492637683.8,40.4459877105911,-79.9471028927531,8.56999969482422,-0.128387451171875,-0.989501953125,0.403854370117188,-0.0632982791051123,0.219525167603559,-0.079048213791841
1492637684.0,40.4459877105911,-79.9471028927531,8.56999969482422,0.09844970703125,-1.04512023925781,0.356735229492188,0.00420939241897924,0.0467560539940852,-0.125890820521354
1492637684.2,40.4459783586116,-79.9472121254279,9.32999992370605,0.145111083984375,-0.936447143554688,0.254348754882812,0.00403708589645112,0.0244315735242779,-0.0480013481198062
1492637684.4,40.4459783586116,-79.9472121254279,9.32999992370605,-0.102462768554688,-0.849029541015625,0.365127563476562,-0.0321001458831611,0.158681257759063,-0.135081123127108
1492637684.6,40.4459783586116,-79.9472121254279,9.32999992370605,0.0546875,-0.8973388671875,0.291213989257812,0.0289807852983513,0.00938311546867618,-0.0114558537450849
1492637684.8,40.4459783586116,-79.9472121254279,9.32999992370605,0.125457763671875,-1.05888366699219,0.294265747070312,-0.0642881760822948,0.0844515013275027,-0.00300857308346252
1492637685.0,40.4459783586116,-79.9472121254279,9.32999992370605,0.0926666259765625,-0.86395263671875,0.356536865234375,0.190583797089341,-0.0810128277279924,0.0362791782657134
1492637685.2,40.4459687086515,-79.9473248385644,9.6899995803833,0.212509155273438,-0.870346069335938,0.13897705078125,-0.0281924896156878,0.00975116433132513,-0.0354988720663202
1492637685.4,40.4459687086515,-79.9473248385644,9.6899995803833,0.002288818359375,-0.816986083984375,0.334442138671875,-0.1245174283472,-0.199162637908813,0.0408214658209526
1492637685.6,40.4459687086515,-79.9473248385644,9.6899995803833,-0.0792083740234375,-1.00978088378906,0.37237548828125,0.0336812646223411,-0.00340591671810234,0.0270089808272566
1492637685.8,40.4459687086515,-79.9473248385644,9.6899995803833,0.151382446289062,-0.92547607421875,0.345458984375,-0.0530818605313504,-0.206011222968061,0.0309083812953506
1492637686.0,40.4459687086515,-79.9473248385644,9.6899995803833,0.026153564453125,-1.2059326171875,0.286819458007812,0.212947159711063,-0.0747754381389178,0.0396906876221049
1492637686.2,40.44595892797,-79.9474390785493,9.9399995803833,0.103958129882812,-0.964797973632812,0.333572387695312,0.0213825203922462,0.0232637773862782,0.00655616997155707
1492637686.4,40.44595892797,-79.9474390785493,9.9399995803833,0.30072021484375,-0.851837158203125,0.140777587890625,0.0237181126682457,0.150878728397349,-0.093973367488972
1492637686.6,40.44595892797,-79.9474390785493,9.9399995803833,0.0673980712890625,-0.820892333984375,-0.0120086669921875,-0.272199830804236,0.0570840590175214,0.000264451896244868
1492637686.8,40.44595892797,-79.9474390785493,9.9399995803833,-0.209686279296875,-0.924453735351562,0.074188232421875,0.101906924376318,-0.196375639828045,0.0719202631342439
1492637687.0,40.44595892797,-79.9474390785493,9.9399995803833,-0.0448760986328125,-0.915939331054688,0.294769287109375,-0.060296896556593,0.0429400104681106,-0.00605922411214828
1492637687.2,40.4459487877047,-79.9475595496723,10.5600004196167,0.132171630859375,-0.879745483398438,0.347198486328125,-0.0665017955803687,0.204652744496011,-0.0865061301084988
1492637687.4,40.4459487877047,-79.9475595496723,10.5600004196167,0.0357666015625,-0.93817138671875,0.198486328125,-0.0338176184701532,-0.00828109940960139,0.0540520501164662
1492637687.6,40.4459487877047,-79.9475595496723,10.5600004196167,0.243011474609375,-0.951644897460938,0.254653930664062,0.0611776039290822,0.116603312535811,-0.0487204016141276
1492637687.8,40.4459487877047,-79.9475595496723,10.5600004196167,0.30047607421875,-0.77392578125,0.3680419921875,-0.148404918060775,0.171142454815653,-0.111781126750005
1492637688.0,40.4459487877047,-79.9475595496723,10.5600004196167,0.363174438476562,-0.882797241210938,0.117538452148438,-0.119775670026314,0.203935821530562,-0.0849172882021576
1492637688.2,40.4459487877047,-79.9475595496723,10.5600004196167,0.323760986328125,-0.984588623046875,0.2701416015625,-0.0651963140140118,-0.0208493555420123,0.00578358693932508
1492637688.4,40.44593840462,-79.9476859842314,10.9099998474121,0.0684051513671875,-0.972610473632812,0.24090576171875,-0.0356762385949195,-0.0157312925590981,-0.0472380861513895
1492637688.6,40.44593840462,-79.9476859842314,10.9099998474121,0.0741119384765625,-0.919525146484375,0.22552490234375,-0.0644040235897132,0.00466772244258188,-0.0379889276855443
1492637688.8,40.44593840462,-79.9476859842314,10.9099998474121,0.121444702148438,-0.93865966796875,0.184829711914062,0.000580569117637274,0.0148828094357988,-0.0341513125547401
1492637689.0,40.44593840462,-79.9476859842314,10.9099998474121,0.0562744140625,-0.881072998046875,0.29425048828125,0.153998621614377,-0.0467408739758717,0.00489595534800167
1492637689.2,40.44593840462,-79.9476859842314,10.9099998474121,0.163467407226562,-0.970932006835938,0.166427612304688,-0.0300516423726721,0.0321001458831611,-0.0430390800606616
1492637689.4,40.4459267390641,-79.9478191568733,10.8800001144409,0.158370971679688,-1.03536987304688,0.127090454101562,0.00440859686851717,-0.0606801254374554,-0.121346668753351
1492637689.6,40.4459267390641,-79.9478191568733,10.8800001144409,0.193557739257812,-1.05271911621094,0.228439331054688,-0.036364932052814,0.144891942266851,-0.0647190755466696
1492637689.8,40.4459267390641,-79.9478191568733,10.8800001144409,0.214065551757812,-1.02932739257812,0.225692749023438,-4.26105774412678e-06,0.142525989954425,-0.077135265180837
1492637690.0,40.4459267390641,-79.9478191568733,10.8800001144409,0.251541137695312,-0.966751098632812,0.232101440429688,-0.00710238431113232,-0.264797308238252,0.140284673581014
1492637690.2,40.4459158410164,-79.9479429248674,10.8000001907349,0.0738067626953125,-0.9698486328125,0.2315673828125,-0.0174373135534028,-0.00521340414993912,-0.0513433489717466
1492637690.4,40.4459158410164,-79.9479429248674,10.8000001907349,0.13671875,-0.869613647460938,0.179672241210938,0.000252467671339512,0.0127735858524561,0.066074890857629
1492637690.6,40.4459158410164,-79.9479429248674,10.8000001907349,0.110504150390625,-0.90643310546875,0.217941284179688,-0.104307231466806,0.0751323017249884,-0.0407117435840413
1492637690.8,40.4459158410164,-79.9479429248674,10.8000001907349,0.0171051025390625,-1.04609680175781,0.267822265625,-0.133476568570335,0.143398441527535,-0.050782487246176
1492637691.0,40.4459158410164,-79.9479429248674,10.8000001907349,0.027801513671875,-0.956619262695312,0.232315063476562,-0.00169669993048948,0.0244736514695012,-0.0182061681601087
1492637691.2,40.4459048169532,-79.948068124006,10.6300001144409,0.14617919921875,-1.05802917480469,0.279312133789062,-0.0337390552179959,-0.0699836123895382,0.0147621682384182
1492637691.4,40.4459048169532,-79.948068124006,10.6300001144409,0.286422729492188,-1.00410461425781,0.207733154296875,0.168028953185241,-0.156369633932875,0.164188408577238
1492637691.6,40.4459048169532,-79.948068124006,10.6300001144409,-0.129196166992188,-0.972381591796875,0.377716064453125,0.0604164724895376,-0.321623573262253,0.0782159759511912
1492637691.8,40.4459048169532,-79.948068124006,10.6300001144409,-0.156494140625,-0.890777587890625,0.314712524414062,0.0397524729593948,-0.242762047062827,0.152435878686718
1492637692.0,40.4459048169532,-79.948068124006,10.6300001144409,-0.031494140625,-0.933395385742188,0.29638671875,-0.0463965272469245,-0.0943579279503795,0.0701386083649809
1492637692.2,40.4459048169532,-79.948068124006,10.6300001144409,0.07049560546875,-1.02178955078125,0.195220947265625,-0.00352256317384781,0.0298010389140957,-0.0374304628049547
1492637692.4,40.4458951349607,-79.9481780813875,10.5799999237061,0.18414306640625,-0.888092041015625,0.234725952148438,-0.0634378287462325,0.03444932028072,-0.0145991827797054
1492637692.6,40.4458951349607,-79.9481780813875,10.5799999237061,0.0435638427734375,-0.839706420898438,0.157791137695312,-0.0681481617662556,0.0504424015749728,0.0268936659520562
1492637692.8,40.4458951349607,-79.9481780813875,10.5799999237061,-0.09869384765625,-1.00355529785156,0.238449096679688,-0.022586002888853,0.150122124331658,-0.0571280011755078
1492637693.0,40.4458951349607,-79.9481780813875,10.5799999237061,-0.0744171142578125,-1.01646423339844,0.260330200195312,0.0885706125855283,-0.13354234864926,-0.00834448264354528
1492637693.2,40.4458836210406,-79.9483132332479,10.5,0.108718872070312,-0.949142456054688,0.135589599609375,0.0153906742556769,0.174334519698222,-0.0951853721010671
1492637693.4,40.4458836210406,-79.9483132332479,10.5,0.131820678710938,-0.902587890625,0.185531616210938,-0.0116241655259779,0.0585842176595631,0.0253189387994923
1492637693.6,40.4458836210406,-79.9483132332479,10.5,0.23809814453125,-0.825347900390625,0.0478057861328125,-0.136576221763079,0.130651753602088,-0.0646421101911663
1492637693.8,40.4458836210406,-79.9483132332479,10.5,0.311996459960938,-0.887924194335938,0.08258056640625,-0.0974424011249092,0.201650829315274,-0.161450146344419
1492637694.0,40.4458836210406,-79.9483132332479,10.5,-0.03271484375,-0.870895385742188,0.407135009765625,0.0482010852015621,0.125200529166805,-0.0296835935100232
1492637694.2,40.4458732529587,-79.9484350923003,10.1000003814697,-0.383041381835938,-1.10908508300781,0.462310791015625,0.0402805778035575,-0.339566088474444,0.138830321309722
1492637694.4,40.4458732529587,-79.9484350923003,10.1000003814697,0.116607666015625,-0.896682739257812,0.171157836914062,0.0663478648693621,-0.0950897646179333,0.0798245252495991
1492637694.6,40.4458732529587,-79.9484350923003,10.1000003814697,-0.077056884765625,-0.980377197265625,0.176071166992188,0.0361215191291807,0.0529441751029933,-0.042415367733365
1492637694.8,40.4458732529587,-79.9484350923003,10.1000003814697,0.04498291015625,-1.18942260742188,0.196273803710938,0.139256160768025,-0.0306897357698551,0.00150495233200378
1492637695.0,40.4458732529587,-79.9484350923003,10.1000003814697,0.005950927734375,-1.00738525390625,0.0541839599609375,0.00332335872430988,0.0776351405174449,0.0328863110369525
1492637695.2,40.445863729215,-79.9485470276029,9.27999973297119,0.0293426513671875,-1.29458618164062,0.177200317382812,0.080967021357243,-0.0462585755024583,0.0499941915635125
1492637695.4,40.445863729215,-79.9485470276029,9.27999973297119,0.00048828125,-0.981292724609375,0.066986083984375,-0.00770798714301634,-0.0605717347810892,0.062984026096483
1492637695.6,40.445863729215,-79.9485470276029,9.27999973297119,0.088592529296875,-1.09043884277344,-0.0032958984375,0.045808767594344,-0.0300849318862981,-0.017578993723395
1492637695.8,40.445863729215,-79.9485470276029,9.27999973297119,-0.0167999267578125,-0.98870849609375,-0.0055084228515625,0.050278883484042,-0.0481888346605478,0.0347579806510602
1492637696.0,40.445863729215,-79.9485470276029,9.27999973297119,0.0579986572265625,-1.01371765136719,-0.041717529296875,0.0401772471532624,0.107162140155371,-0.0755663969826714
1492637696.2,40.4458555516359,-79.9486431410455,7.55000019073486,-0.188796997070312,-0.98382568359375,-0.110076904296875,-0.0364384352989002,0.200186623347948,-0.184278496892469
1492637696.4,40.4458555516359,-79.9486431410455,7.55000019073486,0.0396575927734375,-1.07658386230469,-0.286514282226562,-0.00437823683209027,0.059590892551613,-0.0364498868915875
1492637696.6,40.4458555516359,-79.9486431410455,7.55000019073486,-0.00457763671875,-1.0377197265625,-0.213699340820312,0.0140420494796608,-0.0819947352219046,0.0184810063846049
1492637696.8,40.4458555516359,-79.9486431410455,7.55000019073486,0.028472900390625,-1.04360961914062,-0.165069580078125,-0.0133488286479132,0.0149744221772975,-0.027896878734689
1492637697.0,40.4458555516359,-79.9486431410455,7.55000019073486,0.0301055908203125,-1.0140380859375,-0.181625366210938,0.0153411394594015,-0.0351982011792503,0.0269032533319805
1492637697.2,40.4458504339084,-79.9487032911702,4.69000005722046,-0.000152587890625,-1.04246520996094,-0.0566558837890625,0.00794926953777752,-0.0660013876115428,0.00558278459313311
