timestamp,latitude,longitude,speed,accelerometerX,accelerometerY,accelerometerZ,gyroX,gyroY,gyroZ
1492637815.8,40.446398144991,-79.948755267769,0.0,0.116546630859375,-0.96014404296875,0.184112548828125,-0.0242771101810533,-0.0126103340776342,-0.0226065092292466
1492637816.0,40.446398144991,-79.948755267769,0.0,0.07958984375,-0.95477294921875,0.198104858398438,-0.0138787977048389,-0.0126750488921231,-0.00437424209045515
1492637816.2,40.4463981460236,-79.9487552552961,0.0,0.0689697265625,-0.962203979492188,0.187667846679688,-0.0160175823762816,-0.00415053655888849,0.000912931621679163
1492637816.4,40.4463981460236,-79.9487552552961,0.0,0.07061767578125,-0.964950561523438,0.195770263671875,-0.0181244091146433,-0.00307328789795144,-0.000177632844708285
1492637816.6,40.4463981460236,-79.9487552552961,0.0,0.0754852294921875,-0.963241577148438,0.201171875,-0.0138441766106679,-0.00416518394488393,-0.00226342061045834
1492637816.8,40.4463981460236,-79.9487552552961,0.0,0.07073974609375,-0.963088989257812,0.199676513671875,-0.0149608400557381,-0.00522112731710035,0.000926513743238567
1492637817.0,40.4463981460236,-79.9487552552961,0.0,0.0720672607421875,-0.963302612304688,0.192337036132812,-0.0149009189312114,-0.00309459318667207,-0.00227700273201775
1492637817.2,40.4463981470564,-79.9487552428216,0.0,0.0726318359375,-0.9556884765625,0.193893432617188,-0.0191638408881012,0.00225223533388001,0.000864195773730713
1492637817.4,40.4463981470564,-79.9487552428216,0.0,0.0662078857421875,-0.960586547851562,0.200698852539062,-0.0159669823155701,-0.00521526836270217,-0.00334865875466563
1492637817.6,40.4463981470564,-79.9487552428216,0.0,0.0706939697265625,-0.965652465820312,0.194854736328125,-0.0138787977048389,-0.000973119062314954,0.00199284344370629
1492637817.8,40.4463981470564,-79.9487552428216,0.0,0.0681304931640625,-0.960830688476562,0.20025634765625,-0.0138428450301229,-0.00203758455001963,-0.00120268354827978
1492637818.0,40.4463981470564,-79.9487552428216,0.0,0.0731353759765625,-0.9600830078125,0.191665649414062,-0.0160269034400969,-0.00734180249313044,-0.000145142279409318
1492637818.2,40.4463981480888,-79.9487552303516,0.0,0.0720367431640625,-0.96075439453125,0.196517944335938,-0.0149541821530129,-0.006285060172587,-0.000136886480030073
1492637818.4,40.4463981480888,-79.9487552303516,0.0,0.0753326416015625,-0.954742431640625,0.23455810546875,-0.00860041242430189,-0.00313454060302326,0.00418489133695051
1492637818.6,40.4463981480888,-79.9487552303516,0.0,0.069244384765625,-0.937484741210938,0.290023803710938,0.00107272128708392,0.00105674232054344,8.25579937924564e-06
1492637818.8,40.4463981480888,-79.9487552303516,0.0,0.080230712890625,-0.944351196289062,0.333389282226562,-0.0116521287174237,0.00220270053760454,-0.00332362504041889
1492637819.0,40.4463981480888,-79.9487552303516,0.0,0.0815582275390625,-0.907638549804688,0.404006958007812,0.0136923764285334,-0.0160444803032914,0.00231402067116985
1492637819.2,40.4463972847246,-79.9487656589575,0.5,0.0826263427734375,-0.907379150390625,0.415771484375,-0.00531433795525312,-0.00847604280139519,-0.00536360643541959
1492637819.4,40.4463972847246,-79.9487656589575,0.5,0.1180419921875,-0.915695190429688,0.359283447265625,-0.0147038450105455,0.0192418715080405,-0.00446505588362685
1492637819.6,40.4463972847246,-79.9487656589575,0.5,0.0940093994140625,-0.913558959960938,0.382232666015625,-0.0497214838678884,0.0215958395955616,-0.0122931515918058
1492637819.8,40.4463972847246,-79.9487656589575,0.5,0.018310546875,-0.984100341796875,0.382339477539062,-0.00584191016719782,0.0702307537386976,-0.0791408917977757
1492637820.0,40.4463972847246,-79.9487656589575,0.5,0.15020751953125,-1.00552368164062,0.325668334960938,0.00645097510849894,0.0531479069263843,0.0244518135485625
1492637820.2,40.4463988288898,-79.9487470069327,2.3199999332428,0.104385375976562,-0.896942138671875,0.346099853515625,-0.0175923095288454,0.0469286268327223,0.0658040473747679
1492637820.4,40.4463988288898,-79.9487470069327,2.3199999332428,0.17144775390625,-0.844970703125,0.370834350585938,-0.010990865818757,-0.057370348834705,-0.00636175921198128
1492637820.6,40.4463988288898,-79.9487470069327,2.3199999332428,0.11083984375,-0.894363403320312,0.259597778320312,-0.10306060576054,-0.00145994490958144,-0.0181108269930839
1492637820.8,40.4463988288898,-79.9487470069327,2.3199999332428,0.067626953125,-0.960006713867188,0.242095947265625,-0.0175283936626835,-0.0381774794907219,0.0148460578127557
1492637821.0,40.4463988288898,-79.9487470069327,2.3199999332428,0.0768280029296875,-1.03701782226562,0.189987182617188,0.0215324563616177,-0.0341723515273517,0.0418909913147284
1492637821.2,40.4464016337985,-79.9487131263434,3.3199999332428,0.100509643554688,-0.985809326171875,0.235580444335938,0.0424752888578918,0.056094694672557,-0.0380935899163844
1492637821.4,40.4464016337985,-79.9487131263434,3.3199999332428,0.0001068115234375,-1.04148864746094,0.288406372070312,0.00230523223957259,-0.035122833720401,-0.0318721792938503
1492637821.6,40.4464016337985,-79.9487131263434,3.3199999332428,0.1759033203125,-0.850982666015625,0.300033569335938,0.00786990733729316,0.0573897899106625,0.000998685408779714
1492637821.8,40.4464016337985,-79.9487131263434,3.3199999332428,-0.113433837890625,-0.78411865234375,0.404251098632812,-0.0371915772551746,-0.0497457186338081,0.0445285860583429
1492637822.0,40.4464016337985,-79.9487131263434,3.3199999332428,0.061767578125,-0.942840576171875,0.329681396484375,-0.0700965304197576,-0.0112481271800587,-0.0198804975374415
1492637822.2,40.4464050310005,-79.9486720914225,3.72000002861023,0.163345336914062,-0.9290771484375,-0.0062255859375,0.0815888694717765,-0.0122279041450988,0.023257385799662
1492637822.4,40.4464050310005,-79.9486720914225,3.72000002861023,0.028167724609375,-1.01945495605469,0.420257568359375,-0.00208818461073113,0.00745978052942095,0.00102558333578951
1492637822.6,40.4464050310005,-79.9486720914225,3.72000002861023,-0.0355072021484375,-0.9949951171875,0.308456420898438,0.0315789652578326,0.0327646045751359,-0.0328138730553023
1492637822.8,40.4464050310005,-79.9486720914225,3.72000002861023,0.0355072021484375,-0.974884033203125,0.289505004882812,-0.0304444586334588,0.0246606053780247,-0.0185009800927805
1492637823.0,40.4464050310005,-79.9486720914225,3.72000002861023,0.155731201171875,-0.930801391601562,0.212692260742188,-0.0352386812278195,-0.0231734962253245,-0.00563205307329957
1492637823.2,40.4464089565637,-79.9486246744085,4.30000019073486,-0.023590087890625,-0.821762084960938,0.350509643554688,-0.0331217344773155,-0.0710462136644799,0.0467576518907392
1492637823.4,40.4464089565637,-79.9486246744085,4.30000019073486,0.214767456054688,-0.853927612304688,0.15216064453125,-0.0930194231865056,0.138880122422106,-0.0524890408726987
1492637823.8,40.4464089565637,-79.9486246744085,4.30000019073486,0.242294311523438,-1.1019287109375,0.373825073242188,-0.0101527690237091,0.162811021661449,-0.0250470300521952
1492637824.3,40.4464129710253,-79.9485761835877,4.17000007629395,0.0006103515625,-0.994293212890625,0.219985961914062,-0.0415977772787107,-0.0348344133743454,-0.0141967791389944
1492637824.4,40.4464129710253,-79.9485761835877,4.17000007629395,0.06109619140625,-0.981765747070312,0.224517822265625,-0.0658815453624892,0.000426904722739702,-0.0102715460083266
1492637824.6,40.4464129710253,-79.9485761835877,4.17000007629395,-0.0556182861328125,-1.00746154785156,0.222686767578125,-0.127732662731252,0.108262824633901,-0.0229114411740607
1492637824.8,40.4464129710253,-79.9485761835877,4.17000007629395,0.108901977539062,-1.13728332519531,0.16632080078125,-0.0556707194270164,0.0886246747556569,-0.162863219618815
1492637825.0,40.4464129710253,-79.9485761835877,4.17000007629395,0.0107879638671875,-1.08656311035156,0.197799682617188,0.0102433165007718,-0.111749701449142,0.0462404660070458
1492637825.2,40.4464171000668,-79.9485263087528,4.1100001335144,0.173751831054688,-0.63580322265625,0.111984252929688,-0.257790531410253,0.126119053426773,-0.080798443260241
1492637825.4,40.4464171000668,-79.9485263087528,4.1100001335144,0.232269287109375,-0.987258911132812,0.18206787109375,-0.124249248025429,0.279473190057351,-0.183249717763371
1492637825.6,40.4464171000668,-79.9485263087528,4.1100001335144,0.195281982421875,-0.978500366210938,0.173904418945312,-0.00865900196828364,0.0553761738104536,0.0402845725451926
1492637825.8,40.4464171000668,-79.9485263087528,4.1100001335144,0.051605224609375,-1.03315734863281,0.213607788085938,-0.0384416650708578,0.0608761340936853,-0.036801956787696
1492637826.0,40.4464171000668,-79.9485263087528,4.1100001335144,0.089111328125,-0.9093017578125,0.249847412109375,-0.100400640463769,0.0899919416593036,-0.0844248697166019
1492637826.2,40.4464209825476,-79.9484794121318,3.95000004768372,0.170822143554688,-0.9818115234375,0.145111083984375,-0.0505305522070545,0.0556400930744805,-0.0123892917071576
1492637826.4,40.4464209825476,-79.9484794121318,3.95000004768372,0.056304931640625,-1.04148864746094,0.116119384765625,-0.0124159233180584,0.0734795439524853,0.013544038355816
1492637826.6,40.4464209825476,-79.9484794121318,3.95000004768372,0.0356597900390625,-1.05610656738281,0.1512451171875,-0.0493939150538086,0.0418023080504288,-0.0251365122648219
1492637826.8,40.4464209825476,-79.9484794121318,3.95000004768372,0.1402587890625,-0.923080444335938,0.165008544921875,-0.0181177512119181,-0.0041372207534381,-0.00124103306797692
1492637827.0,40.4464209825476,-79.9484794121318,3.95000004768372,0.040313720703125,-0.920883178710938,0.0262298583984375,-0.0247205265025515,0.00441871688065947,0.0189273521833022
1492637827.2,40.4464242392098,-79.9484400747963,3.17000007629395,0.0659332275390625,-1.0382080078125,0.0562896728515625,0.0114151073804066,-0.0181555680993972,0.0118920795316398
1492637827.4,40.4464242392098,-79.9484400747963,3.17000007629395,-0.0264434814453125,-1.00022888183594,0.034454345703125,-0.047153131312616,-0.00713647277308533,0.0176612854010785
1492637827.6,40.4464242392098,-79.9484400747963,3.17000007629395,-0.0275421142578125,-0.966934204101562,-0.038116455078125,0.0165076040168562,0.00307781527180458,-0.0371564235287855
1492637827.8,40.4464242392098,-79.9484400747963,3.17000007629395,0.0984649658203125,-1.00407409667969,0.0398101806640625,0.0129951608551507,0.0211891748971064,-0.00418648923360456
1492637828.0,40.4464242392098,-79.9484400747963,3.17000007629395,-0.0272369384765625,-1.00294494628906,0.0573577880859375,-0.0121701135494441,-0.0062983759780374,0.029745645163422
1492637828.2,40.4464262934168,-79.9484152619591,1.64999997615814,0.02783203125,-1.01817321777344,0.172760009765625,0.00600090088427555,-0.0340764777281089,0.00974530537692696
1492637828.4,40.4464262934168,-79.9484152619591,1.64999997615814,0.0422821044921875,-0.924270629882812,0.234283447265625,-0.0113956663044491,-0.0254486347445792,0.0404651348671
1492637828.6,40.4464262934168,-79.9484152619591,1.64999997615814,-0.08465576171875,-0.942214965820312,0.221328735351562,-0.0595655925212573,-0.0964077630414135,0.0198970091362
1492637828.8,40.4464262934168,-79.9484152619591,1.64999997615814,0.0745697021484375,-0.958282470703125,0.198944091796875,-0.0135051562039008,-0.133943953341644,-0.0200506735310976
1492637829.0,40.4464262934168,-79.9484152619591,1.64999997615814,-0.107620239257812,-0.867034912109375,0.260452270507812,-0.1189444974501,-0.080092172939152,-0.144949999178615
1492637829.2,40.4464287137723,-79.9483860264015,2.00999999046326,0.276351928710938,-1.10711669921875,0.169662475585938,0.00376837294246212,-0.0627712395253857,0.0791004117492065
1492637829.4,40.4464287137723,-79.9483860264015,2.00999999046326,-0.0458984375,-0.93670654296875,0.194717407226562,0.0899365479086299,-0.0239572645341348,0.184371441214513
1492637829.6,40.4464287137723,-79.9483860264015,2.00999999046326,-0.017059326171875,-0.9400634765625,0.162582397460938,-0.0214938405258115,-0.0211465643196652,-0.0748004718531646
1492637829.8,40.4464287137723,-79.9483860264015,2.00999999046326,0.177597045898438,-1.05093383789062,0.125137329101562,-0.0449506970911204,0.118353275688102,-0.0743344186624007
1492637830.0,40.4464287137723,-79.9483860264015,2.00999999046326,0.07183837890625,-1.0028076171875,0.100753784179688,0.0369979654439258,0.0752931566548292,0.0609586920874777
1492637830.2,40.4464287137723,-79.9483860264015,2.00999999046326,0.0383148193359375,-0.975860595703125,0.131195068359375,-0.00354067266926035,0.169148279791402,-0.0377902558682244
1492637830.4,40.4464306026005,-79.9483632111798,1.78999996185303,-0.01092529296875,-0.972702026367188,0.195480346679688,0.0454902535279705,0.12521251339171,-0.0648964420752689
1492637830.6,40.4464306026005,-79.9483632111798,1.78999996185303,0.12359619140625,-0.924758911132812,0.246292114257812,-0.0176951075469225,0.0905219107162293,-0.0579903327364754
1492637830.8,40.4464306026005,-79.9483632111798,1.78999996185303,0.127639770507812,-0.949798583984375,0.174728393554688,-0.0665060566381128,0.0908622627035415,0.0843817265069426
1492637831.0,40.4464306026005,-79.9483632111798,1.78999996185303,0.0234527587890625,-0.94512939453125,0.188125610351562,-0.0413567612000585,0.0226070418614646,-0.000481765841195334
1492637831.2,40.4464306026005,-79.9483632111798,1.78999996185303,0.100570678710938,-0.94830322265625,0.195068359375,-0.0173981650853787,0.0734955229190257,-0.088863560305437
1492637831.4,40.4464327687365,-79.9483370463486,1.5,0.113555908203125,-0.957870483398438,0.177764892578125,0.00955994936505744,0.0573839309562644,0.0330024248604799
1492637831.6,40.4464327687365,-79.9483370463486,1.5,0.0467529296875,-1.02122497558594,0.177398681640625,-0.0359984810868191,0.0544861453741491,0.014417821509471
1492637831.8,40.4464327687365,-79.9483370463486,1.5,0.0398712158203125,-0.923095703125,0.180084228515625,-0.00488823218084044,0.0404515527455406,-0.00975036538299811
1492637832.0,40.4464327687365,-79.9483370463486,1.5,0.0554962158203125,-0.966690063476562,0.149139404296875,-0.0327283855843108,0.0470173100970219,0.00487465005928104
1492637832.2,40.4464340761047,-79.9483212546033,1.20000004768372,0.0279388427734375,-0.953765869140625,0.139816284179688,-0.0271543894227749,0.0374038311940539,-0.0185001811444534
1492637832.4,40.4464340761047,-79.9483212546033,1.20000004768372,0.05389404296875,-0.969467163085938,0.185546875,-0.0189720932896155,-0.00732555721048096,-0.0183009766949155
1492637832.6,40.4464340761047,-79.9483212546033,1.20000004768372,0.0740509033203125,-0.962295532226562,0.206451416015625,0.00327142708305334,0.0180626237773534,0.0042517366803115
1492637832.8,40.4464340761047,-79.9483212546033,1.20000004768372,0.027099609375,-0.948654174804688,0.229965209960938,-0.00947605979071994,0.00644325194133771,-0.00437850314819928
1492637833.0,40.4464340761047,-79.9483212546033,1.20000004768372,0.0684356689453125,-0.937301635742188,0.235076904296875,-0.0232989311126672,-0.0104880610049501,-0.0151384729004464
1492637833.2,40.4464349639944,-79.9483105297528,0.879999995231628,0.0774383544921875,-0.968185424804688,0.203720092773438,-0.0231697677997984,0.0203601328497648,-0.00775326088154769
1492637833.4,40.4464349639944,-79.9483105297528,0.879999995231628,0.026947021484375,-0.949722290039062,0.219879150390625,-0.00171001573593988,0.00319765752085814,-0.0288135387818943
1492637833.6,40.4464349639944,-79.9483105297528,0.879999995231628,0.0686798095703125,-0.927841186523438,0.224075317382812,-0.0252552892494394,-0.00303067732051017,-0.0237074600238854
1492637833.8,40.4464349639944,-79.9483105297528,0.879999995231628,0.0704498291015625,-0.963027954101562,0.232421875,-0.0416470457588771,-0.00823822251605111,0.00385971936785184
1492637834.0,40.4464349639944,-79.9483105297528,0.879999995231628,0.046142578125,-0.94036865234375,0.244720458984375,-0.0126609341383457,-0.0137485691275341,-0.0160873571968417
1492637834.2,40.4464361237035,-79.9482965215853,1.0900000333786,0.12060546875,-0.945877075195312,0.183563232421875,-0.0678890361921909,-0.019761454236715,0.0473355578472864
1492637834.4,40.4464361237035,-79.9482965215853,1.0900000333786,0.002685546875,-0.996963500976562,0.14324951171875,-0.0362861024845476,0.00449222012674566,0.00814660977455239
1492637834.6,40.4464361237035,-79.9482965215853,1.0900000333786,0.088348388671875,-0.972396850585938,0.118759155273438,-0.0223953205548033,-0.0221939855763933,-0.00976794224619263
1492637834.8,40.4464361237035,-79.9482965215853,1.0900000333786,0.0478668212890625,-0.990219116210938,0.103317260742188,-0.0119131185042515,-0.00523923681251289,0.0116199044682337
1492637835.0,40.4464361237035,-79.9482965215853,1.0900000333786,0.0434417724609375,-0.985397338867188,0.0959320068359375,-0.0161387562058802,-0.0105312042146093,0.00625922751001323
1492637835.2,40.4464361237035,-79.9482965215853,1.0900000333786,0.0573883056640625,-0.981597900390625,0.110626220703125,-0.0225111680622218,-0.00836232582284881,0.00618838742501713
1492637835.4,40.4464368037489,-79.9482883072939,0.579999983310699,0.0428466796875,-0.985321044921875,0.115570068359375,-0.0170663352135548,-0.00201627926129899,0.000896686339029679
1492637835.6,40.4464368037489,-79.9482883072939,0.579999983310699,0.05474853515625,-0.97454833984375,0.22198486328125,-0.00969710216119652,-0.00738228254169965,0.00418462502084151
1492637835.8,40.4464368037489,-79.9482883072939,0.579999983310699,0.047027587890625,-0.945053100585938,0.186843872070312,-0.013814881838677,-0.00416571657710194,-0.00439554737917578
1492637836.0,40.4464368037489,-79.9482883072939,0.579999983310699,0.064971923828125,-0.9688720703125,0.20391845703125,-0.00953198617361161,-0.00100241383430583,-0.00435986102056872
1492637836.2,40.446436818734,-79.9482881262887,0.0,0.054229736328125,-0.969329833984375,0.193145751953125,-0.0159523349295746,0.00648639515099699,0.00195236339513709
1492637836.4,40.446436818734,-79.9482881262887,0.0,0.0385894775390625,-0.98919677734375,0.128448486328125,0.00398728478406664,-0.0244904293843687,0.00650130885310144
1492637836.6,40.446436818734,-79.9482881262887,0.0,0.0255584716796875,-1.00900268554688,0.102706909179688,-0.012703544715787,8.17590454654326e-05,-0.00546134444742549
1492637836.8,40.446436818734,-79.9482881262887,0.0,0.054534912109375,-0.979782104492188,0.123779296875,-0.0139120872184649,-0.00735538461468985,0.00094275902588805
1492637837.0,40.446436818734,-79.9482881262887,0.0,0.0609588623046875,-0.986480712890625,0.127029418945312,-0.0201553357619377,0.00225782797216918,-0.00447704010853221
1492637837.2,40.4464368495551,-79.9482877539995,0.430000007152557,0.0353851318359375,-0.99029541015625,0.122940063476562,-0.0152165035203857,-0.0275565267473769,0.00737882043228255
1492637837.4,40.4464368495551,-79.9482877539995,0.430000007152557,-0.0027313232421875,-0.982620239257812,0.149642944335938,-0.00095820536021051,-0.00531407163914411,-0.0106582369986061
1492637837.6,40.4464368495551,-79.9482877539995,0.430000007152557,-0.0105743408203125,-0.976669311523438,0.142044067382812,0.00112012555448733,-0.0914833118697479,0.0237042642305773
1492637837.8,40.4464368495551,-79.9482877539995,0.430000007152557,0.0266571044921875,-0.968048095703125,0.1572265625,0.0165669925091649,-0.0820157741945162,-0.0102808670721419
1492637838.0,40.4464368495551,-79.9482877539995,0.430000007152557,0.0439453125,-0.974655151367188,0.108001708984375,-0.018585668615445,-0.124327012329259,0.0449115486230963
1492637838.2,40.4464368495551,-79.9482877539995,0.430000007152557,0.0010833740234375,-1.00601196289062,0.116104125976562,-0.00297421830540049,-0.160593940053958,0.0515622608133512
1492637838.4,40.4464360533337,-79.9482973715846,1.10000002384186,0.118148803710938,-1.00387573242188,0.0941925048828125,-0.0298875916495233,-0.135960232602943,0.00857457976172812
1492637838.6,40.4464360533337,-79.9482973715846,1.10000002384186,0.119979858398438,-0.974166870117188,0.132598876953125,0.0209212608914445,-0.168201526023879,0.013442838234393
1492637838.8,40.4464360533337,-79.9482973715846,1.10000002384186,0.174819946289062,-0.94189453125,0.20355224609375,0.00414574286892635,-0.0638543471407209,-0.0264481191016859
1492637839.0,40.4464360533337,-79.9482973715846,1.10000002384186,0.152069091796875,-0.9462890625,0.2254638671875,-0.0781981327718877,-0.029272667753824,0.0174005619303597
1492637839.2,40.4464360533337,-79.9482973715846,1.10000002384186,0.099822998046875,-0.939102172851562,0.195068359375,-0.00323946914997239,-0.00210602779003466,0.00210469620948962
1492637839.4,40.4464340475636,-79.948321599351,1.88999998569489,0.187286376953125,-0.98828125,0.2044677734375,-0.0333030957475499,0.104461162177813,0.000455666862512558
1492637839.6,40.4464340475636,-79.948321599351,1.88999998569489,0.0859375,-0.986541748046875,0.216354370117188,-0.0231591151554381,0.0841886473279119,0.0262009777525266
1492637839.8,40.4464340475636,-79.948321599351,1.88999998569489,0.0352630615234375,-0.970382690429688,0.186004638671875,0.00369540232859395,0.103147424812077,-0.0578039114601699
1492637840.0,40.4464340475636,-79.948321599351,1.88999998569489,0.04425048828125,-0.94476318359375,0.214080810546875,-0.043491018497648,0.159840265465466,-0.00299019727194097
1492637840.2,40.4464340475636,-79.948321599351,1.88999998569489,-0.0197601318359375,-0.951080322265625,0.189498901367188,-0.0160703129658651,0.126686839371178,-0.00155768292158735
1492637840.4,40.4464325103688,-79.9483401671814,1.87999999523163,-0.0377044677734375,-0.961471557617188,0.219833374023438,-0.00777216932528725,0.0447219315534826,-0.0300489792115821
1492637840.6,40.4464325103688,-79.9483401671814,1.87999999523163,-0.013580322265625,-0.90460205078125,0.201583862304688,-0.00388342150155354,0.0266161645664699,-0.0129030154814339
1492637840.8,40.4464325103688,-79.9483401671814,1.87999999523163,-0.0252685546875,-0.94598388671875,0.204025268554688,-0.024265125956148,0.0182399903059527,-0.00669279013547813
1492637841.0,40.4464325103688,-79.9483401671814,1.87999999523163,0.0135040283203125,-0.991470336914062,0.270431518554688,-0.0107080381109906,0.0947371620896068,-0.021678397589354
1492637841.2,40.4464325103688,-79.9483401671814,1.87999999523163,0.0277099609375,-0.935455322265625,0.188079833984375,-0.0825883538288833,0.0228717600738185,-0.0222288729866734
1492637841.4,40.4464312380928,-79.9483555350466,1.53999996185303,0.109954833984375,-1.0050048828125,0.206695556640625,0.00684645453037571,0.00633299707220843,-0.0298002399657687
1492637841.6,40.4464312380928,-79.9483555350466,1.53999996185303,0.0384979248046875,-0.92718505859375,0.1812744140625,-0.0063084959901797,0.0223801405365899,0.0062749401604447
1492637841.8,40.4464312380928,-79.9483555350466,1.53999996185303,0.0908966064453125,-0.960845947265625,0.224288940429688,-0.00921507000389218,0.0372890489510715,-0.00658786158852901
1492637842.0,40.4464312380928,-79.9483555350466,1.53999996185303,0.09649658203125,-0.9256591796875,0.201568603515625,-0.00540888017395093,-0.00741051204925449,0.00209617409400137
1492637842.2,40.4464312380928,-79.9483555350466,1.53999996185303,0.0365142822265625,-0.925888061523438,0.200759887695312,-0.0164436881506943,-0.0179723426163997,0.024400947171742
1492637842.4,40.4464286726966,-79.9483865225568,1.62000000476837,0.0388946533203125,-1.00807189941406,0.2064208984375,-0.0178527666834552,-0.0254182747081523,-0.0321036079925782
1492637842.6,40.4464286726966,-79.9483865225568,1.62000000476837,0.115982055664062,-0.980316162109375,0.230743408203125,-0.0208477576453583,-0.0275163130149167,0.029711556701469
1492637842.8,40.4464286726966,-79.9483865225568,1.62000000476837,0.043060302734375,-0.91668701171875,0.200439453125,-0.00278326965524181,-0.0265695592473935,0.0330927060214336
1492637843.0,40.4464286726966,-79.9483865225568,1.62000000476837,0.0306549072265625,-0.947463989257812,0.207870483398438,-0.0287517534446045,-0.00619584427606935,-0.00347702311920745
1492637843.2,40.4464272866893,-79.9484032641866,1.20000004768372,0.071258544921875,-0.948501586914062,0.2083740234375,-0.0279546693303437,-0.0242827028193425,0.00617374003902169
1492637843.4,40.4464272866893,-79.9484032641866,1.20000004768372,0.0859222412109375,-0.965866088867188,0.197555541992188,-0.0283509477005475,0.0374131522578692,-0.0089165296456943
1492637843.6,40.4464272866893,-79.9484032641866,1.20000004768372,0.0679473876953125,-0.969680786132812,0.179244995117188,-0.0320831016521846,0.00872078730557347,0.0145760132782217
1492637843.8,40.4464272866893,-79.9484032641866,1.20000004768372,0.0441436767578125,-0.955810546875,0.23370361328125,0.024233700655285,0.0413216074736695,-0.0361098012203844
1492637844.0,40.4464272866893,-79.9484032641866,1.20000004768372,0.0663299560546875,-0.949935913085938,0.20721435546875,-0.0254949737475466,0.000165115987584913,-0.00452630858869867
1492637844.2,40.4464253544087,-79.9484266042702,1.36000001430511,0.08221435546875,-0.963287353515625,0.2171630859375,-0.0210522884170764,0.00119788985831764,-0.0172780565202161
1492637844.4,40.4464253544087,-79.9484266042702,1.36000001430511,0.116256713867188,-0.963912963867188,0.234939575195312,-0.0198770354280244,0.0373585574555225,-0.00563098780886354
1492637844.6,40.4464253544087,-79.9484266042702,1.36000001430511,0.030487060546875,-0.925979614257812,0.319976806640625,-0.00427091144016007,0.0159850918109826,0.00951094720099998
1492637844.8,40.4464253544087,-79.9484266042702,1.36000001430511,0.05181884765625,-0.910049438476562,0.3348388671875,-0.00106606338435872,-0.0021206751760301,-0.00107165602264789
1492637845.0,40.4464253544087,-79.9484266042702,1.36000001430511,0.064178466796875,-0.938705444335938,0.37005615234375,-0.0151672350402193,-0.0190469281162467,0.00842357852792063
1492637845.2,40.4464240167879,-79.9484427614385,1.04999995231628,0.08837890625,-0.915008544921875,0.378997802734375,-0.00117924773068709,-0.0074376762923733,0.00427197670459611
1492637845.4,40.4464240167879,-79.9484427614385,1.04999995231628,0.0680084228515625,-0.926773071289062,0.369537353515625,-0.0128873028310024,-0.00097871170060412,0.00733407932596921
1492637845.6,40.4464240167879,-79.9484427614385,1.04999995231628,0.0706024169921875,-0.916717529296875,0.319015502929688,-0.00954663355960705,-0.00100214751819682,-0.00329379763621
1492637845.8,40.4464240167879,-79.9484427614385,1.04999995231628,0.0686187744140625,-0.986495971679688,0.14825439453125,-0.0278121902120245,-0.0189662343352173,-0.00130201945693974
1492637846.0,40.4464240167879,-79.9484427614385,1.04999995231628,0.0695037841796875,-0.953750610351562,0.245101928710938,-0.00860840190757213,-0.00419820714240091,0.00418755449804059
1492637846.2,40.4464240850465,-79.9484419369406,0.0,0.0633544921875,-0.96148681640625,0.190902709960938,-0.0148929294479411,-0.00203092664729443,-0.00227966589310783
1492637846.4,40.4464240850465,-79.9484419369406,0.0,0.0684356689453125,-0.946136474609375,0.205963134765625,-0.0203071359440722,-0.00624990644619796,0.00194064548634074
1492637846.6,40.4464240850465,-79.9484419369406,0.0,0.063995361328125,-0.962844848632812,0.218658447265625,-0.0160109244735564,-0.00521446941437515,-0.000150468601589477
1492637846.8,40.4464240850465,-79.9484419369406,0.0,0.0711517333984375,-0.96466064453125,0.2080078125,-0.0170823141800953,-0.00414361234005429,0.000902012661209838
1492637847.0,40.4464240850465,-79.9484419369406,0.0,0.0681610107421875,-0.955734252929688,0.21478271484375,-0.0138588239966633,-0.00416491762877492,-0.00119735722609963
1492637847.2,40.4464240058366,-79.9484428937201,0.0,0.0696868896484375,-0.962234497070312,0.203170776367188,-0.0149461926697427,-0.00522139363320935,-0.000139549641120152
1492637847.4,40.4464240058366,-79.9484428937201,0.0,0.0673065185546875,-0.962615966796875,0.211807250976562,-0.0138734713826588,-0.00416465131266591,-0.000131293841740906
1492637847.6,40.4464240058366,-79.9484428937201,0.0,0.06707763671875,-0.958694458007812,0.214599609375,-0.0180951143426524,-0.00307382053016946,-0.00230975961342572
1492637847.8,40.4464240058366,-79.9484428937201,0.0,0.0700225830078125,-0.959808349609375,0.201263427734375,-0.0160109244735564,-0.00521446941437515,-0.000150468601589477
1492637848.0,40.4464240058366,-79.9484428937201,0.0,0.0678558349609375,-0.95794677734375,0.205093383789062,-0.0138894503491993,-0.00629198439142121,-0.000125967519560748
1492637848.2,40.4464240089973,-79.9484428555415,0.0,0.06884765625,-0.961257934570312,0.213027954101562,-0.013881460865929,-0.00522831785204356,-0.000128630680650827
1492637848.4,40.4464240089973,-79.9484428555415,0.0,0.0693206787109375,-0.959609985351562,0.204986572265625,-0.0160269034400969,-0.00734180249313044,-0.000145142279409318
1492637848.6,40.4464240089973,-79.9484428555415,0.0,0.0678558349609375,-0.9600830078125,0.210693359375,-0.0127861027095794,-0.00310817530823148,-0.00118910142672038
1492637848.8,40.4464240089973,-79.9484428555415,0.0,0.069580078125,-0.958938598632812,0.199600219726562,-0.0117360182917612,-0.00311483321095668,-0.000112119081892336
1492637849.0,40.4464240089973,-79.9484428555415,0.0,0.0677490234375,-0.960830688476562,0.20947265625,-0.0181550354671792,-0.00520035466059773,0.000893756861830592
1492637849.2,40.4464240121596,-79.9484428173437,0.0,0.0684356689453125,-0.958084106445312,0.20855712890625,-0.013881460865929,-0.00522831785204356,-0.000128630680650827
1492637849.4,40.4464240121596,-79.9484428173437,0.0,0.0661163330078125,-0.956817626953125,0.196945190429688,-0.0138961082519245,-0.00522805153593455,0.000937432703707892
1492637849.6,40.4464240121596,-79.9484428173437,0.0,0.0698394775390625,-0.954986572265625,0.199798583984375,-0.0181403880811837,-0.00520062097670674,-0.000172306522528127
1492637849.8,40.4464240121596,-79.9484428173437,0.0,0.0676727294921875,-0.958480834960938,0.194305419921875,-0.0160189139568266,-0.0062781359537528,-0.000147805440499398
1492637850.0,40.4464240121596,-79.9484428173437,0.0,0.066497802734375,-0.957199096679688,0.19793701171875,-0.0117586551610269,-0.00417823343422532,0.000956607463556462
1492637850.2,40.4464240153252,-79.9484427791065,0.0,0.0685577392578125,-0.960006713867188,0.213409423828125,-0.0117067235197703,-0.00311536584317469,-0.00224424585060977
1492637850.4,40.4464240153252,-79.9484427791065,0.0,0.06915283203125,-0.96173095703125,0.2073974609375,-0.0160388876650022,-0.00308633738729283,0.00304239522930652
1492637850.6,40.4464240153252,-79.9484427791065,0.0,0.07366943359375,-0.964187622070312,0.215011596679688,-0.0159896191848357,-0.00627866858597081,-0.00227993220921684
1492637850.8,40.4464240153252,-79.9484427791065,0.0,0.0612640380859375,-0.951629638671875,0.21820068359375,-0.0150354085662604,-0.00734739513141961,0.0051960936028536
1492637851.0,40.4464240153252,-79.9484427791065,0.0,0.0666351318359375,-0.958343505859375,0.216705322265625,-0.019190472499002,-0.00519396307398154,-0.00124928886735617
1492637851.2,40.4464240185517,-79.9484427401335,0.0,0.066436767578125,-0.9635009765625,0.207260131835938,-0.0181470459839089,-0.00413668812122008,0.000891093700740513
1492637851.4,40.4464240185517,-79.9484427401335,0.0,0.06982421875,-0.956512451171875,0.213775634765625,-0.0159336928019441,0.00116699718967272,-0.00229857433684739
1492637851.6,40.4464240185517,-79.9484427401335,0.0,0.0708770751953125,-0.958770751953125,0.210723876953125,-0.0181643565309945,-0.00839162059483968,-0.000164317039257889
1492637851.8,40.4464240185517,-79.9484427401335,0.0,0.119384765625,-0.921478271484375,0.264144897460938,-0.0107431918373796,-0.0126947562841897,-7.72316716122979e-05
1492637852.0,40.4464240185517,-79.9484427401335,0.0,0.0696258544921875,-0.92718505859375,0.343841552734375,0.00720278548422831,-0.025575401212467,0.00440460212688205
1492637852.2,40.4464241799798,-79.9484407902382,0.310000002384186,0.0513153076171875,-0.924285888671875,0.34014892578125,-0.00255556938204004,-0.0372118172794592,0.0107320065608013
1492637852.4,40.4464241799798,-79.9484407902382,0.310000002384186,0.0620269775390625,-0.915420532226562,0.404800415039062,0.00149696284873354,-0.0510653149539424,0.0182727471873607
1492637852.6,40.4464241799798,-79.9484407902382,0.310000002384186,0.0291748046875,-0.917877197265625,0.44903564453125,-0.0242709849105461,-0.0774905308702536,0.0191433345477076
1492637852.8,40.4464241799798,-79.9484407902382,0.310000002384186,0.082672119140625,-0.871795654296875,0.37615966796875,-0.0731581004089127,-0.0846203457406138,0.007999070650162
1492637853.0,40.4464241799798,-79.9484407902382,0.310000002384186,0.10162353515625,-0.865020751953125,0.415786743164062,-0.102440089226552,0.0304431270529138,-0.0459083698191129
1492637853.2,40.4464253961419,-79.9484261001738,1.97000002861023,-0.052337646484375,-0.980743408203125,0.44390869140625,-0.102465389256908,0.0485283876995329,-0.0342269463296984
1492637853.4,40.4464253961419,-79.9484261001738,1.97000002861023,0.02679443359375,-0.9560546875,0.330459594726562,-0.0409104154013612,-0.0805659492970771,0.0658943285357216
1492637853.6,40.4464253961419,-79.9484261001738,1.97000002861023,0.017120361328125,-0.929046630859375,0.374008178710938,-0.00979350859265739,-0.107366404610981,0.0342956558858224
1492637853.8,40.4464253961419,-79.9484261001738,1.97000002861023,0.133148193359375,-0.896484375,0.359146118164062,0.0447427042099853,-0.0790133263815609,-0.0441189918826887
1492637854.0,40.4464253961419,-79.9484261001738,1.97000002861023,0.143234252929688,-0.903915405273438,0.341567993164062,-0.0583357447298587,-0.00812130974419664,0.0559330407943892
1492637854.2,40.4464280948819,-79.9483935020006,3.4300000667572,0.073944091796875,-1.01429748535156,0.305252075195312,-0.146955625795553,0.0584017911248927,0.0313973376714892
1492637854.4,40.4464280948819,-79.9483935020006,3.4300000667572,0.0133819580078125,-0.921127319335938,0.366287231445312,-0.119671007795474,0.0858632430213537,-0.0792804414388959
1492637854.6,40.4464280948819,-79.9483935020006,3.4300000667572,0.147506713867188,-1.01869201660156,0.254837036132812,-0.0869833685758411,0.118620124429328,-0.115281585686805
1492637854.8,40.4464280948819,-79.9483935020006,3.4300000667572,0.003692626953125,-1.00395202636719,0.37225341796875,-0.0327278529520928,0.110833574034155,-0.0379385939409418
1492637855.0,40.4464280948819,-79.9483935020006,3.4300000667572,-0.0035552978515625,-1.021728515625,0.294723510742188,-0.00600303141314761,0.093637542875513,-0.0546800235015069
1492637855.2,40.4464322331918,-79.9483435152119,4.40999984741211,0.13446044921875,-1.10549926757812,0.237411499023438,0.0921546947805569,0.065337727867895,-0.0834560117120311
1492637855.4,40.4464322331918,-79.9483435152119,4.40999984741211,0.0504302978515625,-0.956390380859375,0.311431884765625,-0.0177499686653781,-0.0924154182512757,0.0789566010503422
1492637855.6,40.4464322331918,-79.9483435152119,4.40999984741211,-0.073394775390625,-0.858016967773438,0.165283203125,0.113642143719752,-0.0496586332661625,0.0727279998928649
1492637855.8,40.4464322331918,-79.9483435152119,4.40999984741211,-0.124252319335938,-0.948883056640625,0.314773559570312,0.120290991697244,-0.152882224485416,0.0751948860106053
1492637856.0,40.4464322331918,-79.9483435152119,4.40999984741211,0.170822143554688,-0.754302978515625,0.279891967773438,0.013209545322902,-0.0224310069134104,-0.0435216448501839
1492637856.2,40.446436644523,-79.9482902305891,4.98000001907349,0.240341186523438,-1.18650817871094,0.196136474609375,-0.0276129857624866,0.00231881436113199,0.0732800731868383
1492637856.4,40.446436644523,-79.9482902305891,4.98000001907349,-0.0593109130859375,-0.926101684570312,0.356307983398438,0.0281703853786402,-0.0289118094261182,-0.0508152441275839
1492637856.6,40.446436644523,-79.9482902305891,4.98000001907349,0.470016479492188,-1.03398132324219,0.19195556640625,0.0485278550673149,0.160287942844708,-0.111869277382086
1492637856.8,40.446436644523,-79.9482902305891,4.98000001907349,-0.0887908935546875,-1.07621765136719,0.297943115234375,0.0416696826281428,0.00930162273931976,-0.00492844591330064
1492637857.0,40.446436644523,-79.9482902305891,4.98000001907349,0.292312622070312,-0.9989013671875,0.364532470703125,-0.237601107186362,0.0568528966349026,-0.0377644232056506
1492637857.2,40.446436644523,-79.9482902305891,4.98000001907349,0.0523529052734375,-0.8404541015625,0.357666015625,-0.147634199241306,-0.0150013201043073,-0.0366578797727227
1492637857.4,40.4464387154471,-79.9482652158253,6.34999990463257,0.196029663085938,-0.850967407226562,0.21295166015625,-0.118824122568828,-0.174723873849592,0.10478952994022
1492637857.6,40.4464387154471,-79.9482652158253,6.34999990463257,0.112930297851562,-1.00267028808594,0.229660034179688,-0.1064859635546,0.0549346217017185,-0.0481454251347795
1492637857.8,40.4464387154471,-79.9482652158253,6.34999990463257,0.058929443359375,-0.920822143554688,0.299774169921875,-0.0495941847677826,-0.0134998298817207,0.0368445673651373
1492637858.0,40.4464387154471,-79.9482652158253,6.34999990463257,0.0115814208984375,-0.996185302734375,0.235061645507812,0.0775943941527667,-0.0738936655019926,0.0478985501017291
1492637858.2,40.4464387154471,-79.9482652158253,6.34999990463257,0.0992584228515625,-0.8583984375,0.241683959960938,0.105123756657025,-0.0900156437930053,0.128188063277656
1492637858.4,40.4464496416924,-79.9481258671828,7.65999984741211,0.08831787109375,-1.06239318847656,0.261871337890625,0.126521457067484,-0.0263397284453197,0.0781307547963087
1492637858.6,40.4464496416924,-79.9481258671828,7.65999984741211,-0.0294189453125,-0.770828247070312,0.425491333007812,-0.0209862420220424,-0.096661562293298,0.00216701417899748
1492637858.8,40.4464496416924,-79.9481258671828,7.65999984741211,-0.130569458007812,-0.987319946289062,0.275558471679688,-0.045338985978054,-0.227328762229709,0.075823658343973
1492637859.0,40.4464496416924,-79.9481258671828,7.65999984741211,0.353225708007812,-1.33598327636719,0.0937042236328125,0.259134096180198,0.252511347181389,-0.198446780207799
1492637859.2,40.4464571143534,-79.9480305519735,8.35000038146973,-0.297210693359375,-0.924758911132812,0.431228637695312,0.0479574059618199,-0.333235754563326,0.126098014454162
1492637859.4,40.4464571143534,-79.9480305519735,8.35000038146973,0.18310546875,-0.888885498046875,0.151535034179688,-0.0246944275238687,0.0416640899898537,0.114790765097903
1492637859.6,40.4464571143534,-79.9480305519735,8.35000038146973,-0.0424346923828125,-0.927703857421875,0.168380737304688,-0.173424251237633,0.0330282575230537,-0.0711647243329884
1492637859.8,40.4464571143534,-79.9480305519735,8.35000038146973,0.364059448242188,-0.981246948242188,0.420211791992188,0.092794918706612,0.254659719232756,-0.182029723668006
1492637860.0,40.4464571143534,-79.9480305519735,8.35000038146973,0.0201873779296875,-0.74212646484375,0.119873046875,0.0386195642316751,0.170981866201921,-0.159977950893823
1492637860.2,40.4464651018598,-79.9479286698139,9.02000045776367,0.565338134765625,-0.717300415039062,-0.0521087646484375,-0.251095610745903,0.0569490367502544,0.0143416551022947
1492637860.4,40.4464651018598,-79.9479286698139,9.02000045776367,0.451873779296875,-0.9581298828125,0.153152465820312,-0.086039011653299,0.062245797842313,-0.0596833042414388
1492637860.6,40.4464651018598,-79.9479286698139,9.02000045776367,0.0765533447265625,-0.851730346679688,0.398422241210938,-0.0242121290504554,-0.132784945635242,0.139768819277866
1492637860.8,40.4464651018598,-79.9479286698139,9.02000045776367,0.441787719726562,-1.12457275390625,-0.0521087646484375,-0.0108601046092341,0.561666266536,-0.299034374580092
1492637861.0,40.4464651018598,-79.9479286698139,9.02000045776367,0.256454467773438,-0.963424682617188,0.150482177734375,-0.254378755737753,0.361184298623162,-0.0461850722563722
1492637861.2,40.4464734905568,-79.9478216703912,9.35000038146973,-0.256332397460938,-1.1358642578125,-0.04608154296875,-0.103761549759449,-0.259941033990492,-0.0302455205000299
1492637861.4,40.4464734905568,-79.9478216703912,9.35000038146973,-0.184814453125,-1.21347045898438,-0.03131103515625,0.422398920491397,-0.246294197616599,0.281109702547205
1492637861.6,40.4464734905568,-79.9478216703912,9.35000038146973,0.49267578125,-0.815261840820312,-0.0306549072265625,0.0769967808041529,-0.0558353027823833,-0.131278129090475
1492637861.8,40.4464734905568,-79.9478216703912,9.35000038146973,0.374954223632812,-0.584381103515625,0.177474975585938,0.0778303502253477,-0.279188764452931,0.0740198993376623
1492637862.0,40.4464734905568,-79.9478216703912,9.35000038146973,0.692718505859375,-1.36331176757812,0.0954742431640625,-0.190110020731415,-0.309315241652234,0.336841674679293
1492637862.2,40.4464822083341,-79.9477104734869,9.47000026702881,0.205322265625,-1.21669006347656,0.129547119140625,0.356410848685304,0.166769277989634,-0.271864538822995
1492637862.4,40.4464822083341,-79.9477104734869,9.47000026702881,0.44488525390625,-1.08309936523438,0.163497924804688,0.138024981396082,0.240530051753232,-0.22631116837719
1492637862.6,40.4464822083341,-79.9477104734869,9.47000026702881,0.403274536132812,-1.31419372558594,-0.408309936523438,-0.0834344401072015,-0.466391678538416,0.238115097276748
1492637862.8,40.4464822083341,-79.9477104734869,9.47000026702881,-0.157989501953125,-1.06837463378906,0.0645751953125,0.270479695056154,-0.32191705361438,0.135810562949681
1492637863.0,40.4464822083341,-79.9477104734869,9.47000026702881,-0.227737426757812,-1.14613342285156,0.134078979492188,-0.284129727223355,-0.308737335695687,0.126899625942276
1492637863.2,40.4464903699578,-79.9476063704269,8.78999996185303,-0.0542449951171875,-1.07785034179688,0.144195556640625,0.24467526198994,-0.0260563681053353,0.00470474038173398
1492637863.4,40.4464903699578,-79.9476063704269,8.78999996185303,0.167831420898438,-0.989761352539062,0.0843658447265625,-0.471105473667856,-0.0373553616622145,0.00913384359064476
1492637863.6,40.4464903699578,-79.9476063704269,8.78999996185303,-0.0327911376953125,-0.800094604492188,0.291976928710938,-0.308816697896171,0.416845696986364,-0.0842035610300163
1492637863.8,40.4464903699578,-79.9476063704269,8.78999996185303,0.445266723632812,-0.798141479492188,0.10101318359375,0.0812775459403463,-0.179215827660228,0.110048474144799
1492637864.0,40.4464903699578,-79.9476063704269,8.78999996185303,-0.390777587890625,-0.684066772460938,0.233978271484375,-0.195339670164004,-0.409268204736761,0.353039286745264
1492637864.2,40.4464903699578,-79.9476063704269,8.78999996185303,0.225189208984375,-1.03642272949219,0.0570220947265625,0.0524472292435845,0.179415032109766,-0.0766934467559929
1492637864.4,40.4464985575999,-79.9475021695785,8.78999996185303,0.110748291015625,-1.04965209960938,0.116867065429688,0.0244195892993726,-0.0288809167574733,-0.0103375924033606
1492637864.6,40.4464985575999,-79.9475021695785,8.78999996185303,0.253082275390625,-1.0523681640625,0.0153961181640625,-0.00826245728197084,0.147895721660351,-0.0932268834354228
1492637864.8,40.4464985575999,-79.9475021695785,8.78999996185303,0.0550384521484375,-0.92303466796875,-0.026885986328125,-0.0931429938610853,-0.00896260233255267,0.031055920419741
1492637865.0,40.4464985575999,-79.9475021695785,8.78999996185303,-0.174285888671875,-1.16575622558594,-0.0281982421875,-0.156297994899551,0.398804911129949,-0.2659842791361
1492637865.2,40.4464985575999,-79.9475021695785,8.78999996185303,0.01556396484375,-1.07124328613281,0.0151519775390625,0.0762044903798543,-0.0111408017881285,-0.0493031012606369
1492637865.4,40.4465069330658,-79.9473985326104,8.46000003814697,-0.172592163085938,-0.946395874023438,-0.045379638671875,0.0637105364418566,0.117645940102577,-0.0774849382319644
1492637865.6,40.4465069330658,-79.9473985326104,8.46000003814697,-0.046173095703125,-0.934158325195312,0.042205810546875,-0.238723096953613,0.129200064491886,0.00575216163846215
1492637865.8,40.4465069330658,-79.9473985326104,8.46000003814697,0.125762939453125,-1.06854248046875,-0.055267333984375,-0.0531441785008582,0.0705436751667819,-0.0465733611433057
1492637866.0,40.4465069330658,-79.9473985326104,8.46000003814697,-0.115570068359375,-0.974700927734375,-0.0851898193359375,0.145844022356554,-0.251970459163994,0.0991689284596076
1492637866.2,40.4465069330658,-79.9473985326104,8.46000003814697,-0.078826904296875,-1.00189208984375,0.069427490234375,-0.0900870165102194,0.134596427808714,-0.113222163215847
1492637866.4,40.4465140626269,-79.9473103123123,7.03999996185303,-0.255691528320312,-1.22886657714844,0.0688934326171875,-0.0814394661346231,-0.0739186992162393,0.0739919361462165
1492637866.6,40.4465140626269,-79.9473103123123,7.03999996185303,0.135650634765625,-1.04188537597656,-0.1356201171875,0.0150540506938909,-0.0330777923193292,-0.0285482879373224
1492637866.8,40.4465140626269,-79.9473103123123,7.03999996185303,0.0839691162109375,-0.981185913085938,-0.125381469726562,-0.00774074402442431,-0.0850512452049886,-0.0254489010606882
1492637867.0,40.4465140626269,-79.9473103123123,7.03999996185303,-0.055450439453125,-1.02801513671875,-0.0679931640625,-0.013680125887519,-0.113715913281947,0.0811856668827386
1492637867.2,40.4465140626269,-79.9473103123123,7.03999996185303,0.07086181640625,-1.08210754394531,-0.149917602539062,0.00892798123838164,-0.0351686400911504,-0.0488636796807739
1492637867.4,40.4465195453334,-79.9472424699878,5.0,0.0781097412109375,-0.994613647460938,-0.0870819091796875,0.00554070664790986,-0.0276976742851511,-0.0307920011557142
1492637867.6,40.4465195453334,-79.9472424699878,5.0,0.0028533935546875,-1.04986572265625,-0.03448486328125,-0.0390009288997744,-0.0369843833223664,-0.0493497065797133
1492637867.8,40.4465195453334,-79.9472424699878,5.0,0.13031005859375,-1.03038024902344,-0.0906982421875,0.0125743814029181,-0.0543338125597966,-0.0146580386397961
1492637868.0,40.4465195453334,-79.9472424699878,5.0,0.120758056640625,-1.01654052734375,-0.0303955078125,-0.0086510124850134,-0.0371755982886341,-0.010654774889189
1492637868.2,40.4465195453334,-79.9472424699878,5.0,0.120574951171875,-0.995758056640625,-0.0053253173828125,-0.0166860358098915,-0.0424356077576496,0.0287264534142487
1492637868.4,40.4465223716379,-79.9472074976486,2.76999998092651,0.0807647705078125,-0.985931396484375,0.096466064453125,-0.00874289154262113,-0.00845100908714845,0.0116606508329119
1492637868.6,40.4465223716379,-79.9472074976486,2.76999998092651,0.08807373046875,-0.9615478515625,0.129547119140625,0.00459581709314974,-3.38221458440063e-05,-0.0244757819983732
1492637868.8,40.4465223716379,-79.9472074976486,2.76999998092651,0.0746612548828125,-1.01887512207031,0.0626220703125,-0.0022786006286718,-0.0276425468505865,-0.00421684927003147
1492637869.0,40.4465223716379,-79.9472074976486,2.76999998092651,0.115158081054688,-1.01805114746094,0.0015869140625,-0.0262787420563569,-0.0072797508397316,-0.029038043261788
1492637869.2,40.4465223716379,-79.9472074976486,2.76999998092651,0.10491943359375,-0.98577880859375,0.0146484375,-0.0137642817779655,0.00647148144889255,-0.00229005222135914
1492637869.4,40.4465250781932,-79.947178223456,1.6599999666214,0.12591552734375,-0.991668701171875,0.124359130859375,0.00627786963764379,-0.00110334763961983,0.00753062061441706
1492637869.6,40.4465250781932,-79.947178223456,1.6599999666214,0.09735107421875,-0.974990844726562,0.23291015625,-0.0014855112560462,-0.017006414089028,0.0213529593041463
1492637869.8,40.4465250781932,-79.947178223456,1.6599999666214,0.05694580078125,-0.961822509765625,0.243804931640625,-0.0202711832693561,-0.030718231593519,-0.0139890525739682
1492637870.0,40.4465250781932,-79.947178223456,1.6599999666214,0.0854949951171875,-0.9317626953125,0.287185668945312,-0.0152804193865476,-0.0711716485518226,-0.0117011308814811
1492637870.2,40.4465250781932,-79.947178223456,1.6599999666214,0.075469970703125,-0.908782958984375,0.37701416015625,0.0049875680895004,-0.131928739344781,0.0302455205000299
1492637870.4,40.4465264636651,-79.9471632949383,1.03999996185303,0.0440521240234375,-0.892364501953125,0.393768310546875,0.0164772439804293,-0.171361899289476,0.0251338491037318
1492637870.6,40.4465264636651,-79.9471632949383,1.03999996185303,-0.05670166015625,-0.976394653320312,0.332275390625,-0.0199779692333384,-0.238141995203758,0.00680730606235154
1492637870.8,40.4465264636651,-79.9471632949383,1.03999996185303,-0.0480194091796875,-0.947265625,0.306182861328125,0.025408953644337,-0.377767003782759,0.115319935206502
1492637871.0,40.4465264636651,-79.9471632949383,1.03999996185303,-0.1605224609375,-0.946701049804688,0.371536254882812,-0.00583578489669064,-0.426494862247939,0.115125790763035
1492637871.2,40.4465264636651,-79.9471632949383,1.03999996185303,-0.247573852539062,-0.935531616210938,0.27349853515625,0.0456963821963426,-0.552339876398543,0.171421287781784
1492637871.4,40.4465285717529,-79.9471405802028,2.64000010490417,-0.201431274414062,-1.03640747070312,0.1422119140625,0.121601266953563,-0.632622997987854,0.106300341226622
1492637871.6,40.4465285717529,-79.9471405802028,2.64000010490417,-0.118545532226562,-0.915435791015625,0.295181274414062,0.0111802165722616,-0.642534218300693,0.154241235589683
1492637871.8,40.4465285717529,-79.9471405802028,2.64000010490417,-0.10223388671875,-0.953857421875,0.326263427734375,0.0126116656581792,-0.496818027676462,0.129356924680092
1492637872.0,40.4465285717529,-79.9471405802028,2.64000010490417,-0.114959716796875,-0.982513427734375,0.274871826171875,0.0221228791752882,-0.41923322090362,0.0994000908422265
1492637872.2,40.4465316560535,-79.9471073467346,3.76999998092651,-0.139312744140625,-0.960479736328125,0.355056762695312,0.0024367923974225,-0.376571510769422,0.00526160736566955
1492637872.4,40.4465316560535,-79.9471073467346,3.76999998092651,-0.0685272216796875,-0.978500366210938,0.34527587890625,0.0358405556341774,-0.429959102193914,0.102766859092305
1492637872.6,40.4465316560535,-79.9471073467346,3.76999998092651,-0.0423583984375,-0.935775756835938,0.319564819335938,0.050382480450446,-0.340701660363254,0.100552973278122
1492637872.8,40.4465316560535,-79.9471073467346,3.76999998092651,-0.03594970703125,-0.907699584960938,0.301437377929688,-0.021442175200664,-0.209404889145149,0.0514991438955163
1492637873.0,40.4465316560535,-79.9471073467346,3.76999998092651,-0.072509765625,-0.916671752929688,0.372634887695312,-0.0253261293344355,-0.25830691834562,0.0750422868801438
1492637873.2,40.4465316560535,-79.9471073467346,3.76999998092651,-0.0347442626953125,-0.933563232421875,0.344696044921875,-0.0423892687546822,-0.180549805050249,0.0416142888774692
1492637873.4,40.4464435808102,-79.9469981324613,6.28000020980835,0.0171051025390625,-0.90509033203125,0.283126831054688,-0.00954583461128002,-0.144604320869122,-0.0039894153129387
1492637873.6,40.4464435808102,-79.9469981324613,6.28000020980835,-0.037750244140625,-0.9527587890625,0.272689819335938,-0.0285379016090711,-0.125334219853527,-0.00636602026972541
1492637873.8,40.4464435808102,-79.9469981324613,6.28000020980835,0.0342254638671875,-0.9791259765625,0.290573120117188,0.000667121853064849,-0.0106502475153359,-0.0543426009913939
1492637874.0,40.4464435808102,-79.9469981324613,6.28000020980835,0.0570220947265625,-0.926300048828125,0.279571533203125,-0.0118577247535778,-0.0850136946336185,0.0416803352725031
1492637874.2,40.446381213328,-79.9469693031329,8.06999969482422,0.047637939453125,-0.930801391601562,0.27545166015625,-0.0297858588958822,0.00764007653521932,0.00180775374794579
1492637874.4,40.446381213328,-79.9469693031329,8.06999969482422,0.0404510498046875,-0.963180541992188,0.293746948242188,-0.104329602019963,-0.0865418164671059,0.0279429514215474
1492637874.6,40.446381213328,-79.9469693031329,8.06999969482422,0.090057373046875,-0.934005737304688,0.268692016601562,-0.0642402391826734,0.0323238514147277,-0.0348599797208102
1492637874.8,40.446381213328,-79.9469693031329,8.06999969482422,0.119461059570312,-0.9937744140625,0.242019653320312,0.00429967357993293,-0.0798018883803334,0.0311701700305054
1492637875.0,40.446381213328,-79.9469693031329,8.06999969482422,0.155532836914062,-0.921630859375,0.20587158203125,0.0121922177864918,-0.0915602772252512,-0.00710238431113232
1492637875.2,40.4463043042246,-79.9469337519494,9.43000030517578,0.10882568359375,-0.96044921875,0.224929809570312,0.0378927875701924,0.0540006511074277,-0.0157446083645485
1492637875.4,40.4463043042246,-79.9469337519494,9.43000030517578,0.098541259765625,-0.9334716796875,0.14837646484375,0.0339142912177231,-0.0172397070005189,0.0025241440811771
1492637875.6,40.4463043042246,-79.9469337519494,9.43000030517578,0.101593017578125,-0.9642333984375,0.142318725585938,-0.0404970928001809,-0.000800013591459803,0.00171986943197317
1492637875.8,40.4463043042246,-79.9469337519494,9.43000030517578,0.0192108154296875,-1.00723266601562,0.126373291015625,-0.0354091235375845,-0.00295797302275101,0.0177707413218807
1492637876.0,40.4463043042246,-79.9469337519494,9.43000030517578,0.0142974853515625,-0.980972290039062,0.182662963867188,0.00560408988185374,-0.0244949567582218,0.0438353652265953
1492637876.2,40.4462139781676,-79.9468919987878,10.0900001525879,0.0718841552734375,-0.892349243164062,0.120208740234375,0.0498154934543682,-0.0747757044550268,0.0540137005967691
1492637876.4,40.4462139781676,-79.9468919987878,10.0900001525879,-0.0193328857421875,-0.9818115234375,0.125015258789062,0.0102092280388188,-0.0447413726294402,0.00768348606098761
1492637876.6,40.4462139781676,-79.9468919987878,10.0900001525879,0.09234619140625,-1.01071166992188,0.0850982666015625,-0.0315038641150923,-0.00192786231310836,-0.0333702074070199
1492637876.8,40.4462139781676,-79.9468919987878,10.0900001525879,0.0046539306640625,-1.20742797851562,0.032318115234375,0.182306159789156,-0.0437408230078974,-0.0385367399217736
1492637877.0,40.4462139781676,-79.9468919987878,10.0900001525879,-0.0036163330078125,-0.95068359375,0.0768890380859375,-0.0627451405467029,-0.0612814672115953,0.0378994454729176
1492637877.2,40.4461310581448,-79.9468536690608,9.61999988555908,0.0164947509765625,-0.9898681640625,0.217391967773438,0.0142588307923933,0.0977606488751737,-0.0544832158969501
1492637877.4,40.4461310581448,-79.9468536690608,9.61999988555908,0.25830078125,-1.00140380859375,0.140792846679688,-0.00973358746813061,-0.0584321511613196,0.0565604815472119
1492637877.6,40.4461310581448,-79.9468536690608,9.61999988555908,0.134124755859375,-0.911102294921875,0.118988037109375,-0.118319719858367,0.0199196460054657,0.0189952627910992
1492637877.8,40.4461310581448,-79.9468536690608,9.61999988555908,0.155487060546875,-0.993927001953125,0.141891479492188,-0.0103019060447535,0.10004883688377,-0.0483432980037724
1492637878.0,40.4461310581448,-79.9468536690608,9.61999988555908,0.0711669921875,-0.97540283203125,0.156967163085938,-0.0223260783664613,0.0416334636373177,0.0199220428504467
1492637878.2,40.4461310581448,-79.9468536690608,9.61999988555908,0.0929412841796875,-0.974899291992188,0.146011352539062,-0.0147235524026121,-0.0796673987452844,0.0981465409171262
1492637878.4,40.4460432512799,-79.9468130803941,10.1800003051758,0.1876220703125,-1.02821350097656,0.0934295654296875,-0.0223796079043719,0.140544065471188,-0.0773592370285127
1492637878.6,40.4460432512799,-79.9468130803941,10.1800003051758,-0.0035247802734375,-0.964035034179688,0.163360595703125,-0.0261402576796728,0.0384616387790334,-0.0142276718076393
1492637878.8,40.4460432512799,-79.9468130803941,10.1800003051758,0.0584869384765625,-0.796951293945312,0.0403289794921875,0.11318115053506,0.0535146242084882,0.00741796890030671
1492637879.0,40.4460432512799,-79.9468130803941,10.1800003051758,0.21722412109375,-1.06723022460938,0.123428344726562,0.0304015817399086,0.126376581104184,-0.0511931466862662
1492637879.2,40.4460432512799,-79.9468130803941,10.1800003051758,0.077606201171875,-0.995437622070312,0.208145141601562,0.104326139910546,-0.194254698335906,0.129515116448843
1492637879.4,40.445953305113,-79.946775477487,10.5900001525879,0.0152130126953125,-0.985031127929688,0.1744384765625,0.114804879851681,-0.213481922457951,0.0539708237032188
1492637879.6,40.445953305113,-79.946775477487,10.5900001525879,0.117691040039062,-0.948944091796875,0.095550537109375,-0.0956687358389165,-0.0174644777965216,-0.0222587003908823
1492637879.8,40.445953305113,-79.946775477487,10.5900001525879,0.164443969726562,-0.88458251953125,0.130477905273438,0.098206462041653,-0.0367987609943879,0.0405503560219825
1492637880.0,40.445953305113,-79.946775477487,10.5900001525879,0.140213012695312,-1.00498962402344,0.0306396484375,-0.0630556651298061,0.095079644605791,-0.0094206660400463
1492637880.2,40.445953305113,-79.946775477487,10.5900001525879,0.075775146484375,-1.08450317382812,0.146743774414062,0.131233121668053,-0.0519071401745164,0.0313315575925642
1492637880.4,40.4458616589675,-79.9467384740583,10.6899995803833,0.0540008544921875,-0.964569091796875,0.0454864501953125,-0.0327888393410556,-0.135944786268621,-0.0127794448068542
1492637880.6,40.4458616589675,-79.9467384740583,10.6899995803833,-0.032501220703125,-0.944534301757812,-0.015625,0.0534837315398433,-0.0545926718177523,0.0305424629615737
1492637880.8,40.4458616589675,-79.9467384740583,10.6899995803833,0.01666259765625,-1.0546875,-0.080810546875,0.0209465609218002,-0.0692674883724159,0.0654322700865928
1492637881.0,40.4458616589675,-79.9467384740583,10.6899995803833,0.030303955078125,-1.00727844238281,-0.0567626953125,-0.080225863625874,0.044129910843158,-0.0275906152093299
1492637881.2,40.4458616589675,-79.9467384740583,10.6899995803833,0.16241455078125,-0.95196533203125,0.0237274169921875,-0.157315588752071,0.0467390097631086,-0.151001233807493
1492637881.4,40.4457719271296,-79.9467022435584,10.1199998855591,0.165512084960938,-0.906005859375,-0.0532989501953125,0.109121694085452,0.170533123558243,-0.0984807676339311
1492637881.6,40.4457719271296,-79.9467022435584,10.1199998855591,0.220977783203125,-1.07209777832031,-0.0976409912109375,-0.024569791584853,-0.0913022169156226,0.110870325657198
1492637881.8,40.4457719271296,-79.9467022435584,10.1199998855591,0.106216430664062,-0.96600341796875,-0.0424652099609375,-0.0183142925003659,0.0607464381485984,-0.0291320528482678
1492637882.0,40.4457719271296,-79.9467022435584,10.1199998855591,0.0176239013671875,-0.917373657226562,-0.109298706054688,-0.105310710565548,0.0442875699796907,-0.0619666985600727
1492637882.2,40.4457719271296,-79.9467022435584,10.1199998855591,0.1446533203125,-1.045654296875,-0.139511108398438,-0.0979297596043937,0.148469100243045,-0.154920607983762
1492637882.4,40.4456927465371,-79.9466702732732,8.22999954223633,-0.3798828125,-0.82891845703125,-0.282791137695312,-0.0708864239990751,-0.198427339131842,0.168248131342955
1492637882.6,40.4456927465371,-79.9466702732732,8.22999954223633,0.032440185546875,-1.05520629882812,-0.1519775390625,0.0114100473743355,-0.210680543307296,0.0625009286747426
1492637882.8,40.4456927465371,-79.9466702732732,8.22999954223633,-0.188873291015625,-1.0074462890625,-0.201385498046875,-0.0267551815753721,-0.133839823743022,0.0917658732614054
1492637883.0,40.4456927465371,-79.9466702732732,8.22999954223633,-0.084991455078125,-0.996780395507812,-0.195449829101562,0.0120808976529264,-0.0192314851797892,-0.0371441729877712
1492637883.2,40.4456343367606,-79.946646689499,5.65000009536743,0.00054931640625,-1.03729248046875,-0.139602661132812,-0.0197657152944591,-0.070076024079364,0.00530954426529098
1492637883.4,40.4456343367606,-79.946646689499,5.65000009536743,0.0465087890625,-0.964401245117188,-0.0777130126953125,0.0521500204659316,-0.0864952111480295,0.0327435656025242
1492637883.6,40.4456343367606,-79.946646689499,5.65000009536743,0.0128021240234375,-0.990036010742188,-0.113250732421875,-0.029139776015429,-0.115748970458114,0.042648926960965
1492637883.8,40.4456343367606,-79.946646689499,5.65000009536743,0.061859130859375,-1.00984191894531,-0.06378173828125,-0.00217740050724878,-0.00636815079859747,-5.85895439817432e-06
1492637884.0,40.4456343367606,-79.946646689499,5.65000009536743,0.0416412353515625,-0.995819091796875,0.0116119384765625,-0.01962856249832,-0.0381641636852715,0.0126920931230996
1492637884.2,40.4456343367606,-79.946646689499,5.65000009536743,0.05877685546875,-1.00379943847656,0.0826568603515625,-0.0104449177952908,-0.00418968502691266,-0.0171555511100724
1492637884.4,40.445597439358,-79.9466317916504,3.77999997138977,0.087799072265625,-0.98931884765625,0.06884765625,-0.0114710337632983,-0.000992027506054516,-0.0182405229381707
1492637884.6,40.445597439358,-79.9466317916504,3.77999997138977,0.0790863037109375,-0.959228515625,0.108596801757812,-0.0109136341471447,-0.0275850225710408,0.00422430612108369
1492637884.8,40.445597439358,-79.9466317916504,3.77999997138977,0.09344482421875,-0.98199462890625,0.0761566162109375,-0.0169704614143119,-0.000954210618575391,-0.00550235712821271
1492637885.0,40.445597439358,-79.9466317916504,3.77999997138977,0.071807861328125,-0.973403930664062,0.090667724609375,0.0148915978673961,-9.66727475698763e-05,0.00121892883092927
1492637885.2,40.445597439358,-79.9466317916504,3.77999997138977,0.10943603515625,-0.999786376953125,0.034149169921875,-0.0176956401791405,0.0384075766089048,-0.00881000320209113
1492637885.4,40.4455688755003,-79.9466202585884,3.0699999332428,0.079498291015625,-0.985916137695312,0.0471038818359375,-0.0295115533036041,0.0246560780041716,-0.00889549067308267
1492637885.6,40.4455688755003,-79.9466202585884,3.0699999332428,0.058929443359375,-1.00051879882812,0.01385498046875,0.00038615835806149,0.0319073330202394,-0.0107405286762896
1492637885.8,40.4455688755003,-79.9466202585884,3.0699999332428,0.0566864013671875,-1.028564453125,-0.0084075927734375,-0.0108443919588027,-0.0222672225063705,0.00207886354691585
1492637886.0,40.4455688755003,-79.9466202585884,3.0699999332428,0.0994110107421875,-0.987030029296875,-0.0286712646484375,-0.0231111782558166,0.0320609974151369,-0.00565042888482112
1492637886.2,40.4455688755003,-79.9466202585884,3.0699999332428,0.04034423828125,-1.00735473632812,-0.0042572021484375,-0.0327803172255673,0.0108486530165468,-0.0110257532290371
1492637886.4,40.4455480963152,-79.9466118686983,2.07999992370605,0.074371337890625,-0.9793701171875,0.119400024414062,-0.00427224302070511,-0.00954636724349804,-0.00428396092950146
1492637886.6,40.4455480963152,-79.9466118686983,2.07999992370605,0.0634765625,-0.950668334960938,0.207107543945312,-0.002251969017771,0.00320751121689143,0.0106308064393783
1492637886.8,40.4455480963152,-79.9466118686983,2.07999992370605,0.0706634521484375,-0.94927978515625,0.224517822265625,-0.0118119183828284,-0.00736870042014024,0.00309672371554414
1492637887.0,40.4455480963152,-79.9466118686983,2.07999992370605,0.0207366943359375,-0.945648193359375,0.2711181640625,0.00476439519015176,-0.0393854893611819,0.0193422726811365
1492637887.2,40.4455480963152,-79.9466118686983,2.07999992370605,0.0027618408203125,-0.97412109375,0.255950927734375,-0.00299499096190311,-0.0723096172856135,0.0236126514890786
1492637887.4,40.4455312590781,-79.9466050704254,1.67999994754791,-0.03021240234375,-0.957611083984375,0.287216186523438,-0.0159062622427163,-0.123287047923583,0.00548637816167224
1492637887.6,40.4455312590781,-79.9466050704254,1.67999994754791,-0.044525146484375,-0.920059204101562,0.309982299804688,-0.0174868483496783,-0.203044195197603,0.0771123619954624
1492637887.8,40.4455312590781,-79.9466050704254,1.67999994754791,-0.0814056396484375,-0.95574951171875,0.268157958984375,0.0247615391833387,-0.233101696524674,0.0861521959996273
1492637888.0,40.4455312590781,-79.9466050704254,1.67999994754791,-0.192489624023438,-0.95306396484375,0.241043090820312,0.0239519382119547,-0.297979496472312,0.109768043282014
1492637888.2,40.4455312590781,-79.9466050704254,1.67999994754791,-0.278182983398438,-0.945755004882812,0.255447387695312,0.00556334351717553,-0.446777763426091,0.127023196616855
1492637888.4,40.4455076639767,-79.9465955435692,3.13000011444092,-0.227996826171875,-1.02857971191406,0.182525634765625,0.0639779178153006,-0.555652316162384,0.156690012212011
1492637888.6,40.4455076639767,-79.9465955435692,3.13000011444092,-0.2530517578125,-0.996063232421875,0.230270385742188,0.0240693836160271,-0.552207783608475,0.117888820393993
1492637888.8,40.4455076639767,-79.9465955435692,3.13000011444092,-0.206878662109375,-0.978317260742188,0.1561279296875,0.0487241300396537,-0.537464257497687,0.191671964710747
1492637889.0,40.4455076639767,-79.9465955435692,3.13000011444092,-0.280776977539062,-0.992218017578125,0.167266845703125,0.0909504133356231,-0.52817275477051,0.146233110191815
1492637889.2,40.4455076639767,-79.9465955435692,3.13000011444092,-0.25927734375,-0.98956298828125,0.1988525390625,0.0194024601217723,-0.588329835369874,0.205363808507062
1492637889.4,40.4454821806122,-79.9465852543,3.92000007629395,-0.286117553710938,-1.29420471191406,0.0357666015625,0.185361338191695,-0.596866598244123,0.135648642755404
1492637889.6,40.4454821806122,-79.9465852543,3.92000007629395,-0.005523681640625,-0.870071411132812,0.147064208984375,0.164963388454451,-0.435057457784761,0.0806453114975615
1492637889.8,40.4454821806122,-79.9465852543,3.92000007629395,-0.309844970703125,-0.872314453125,0.319610595703125,0.117641146412615,-0.47836045710945,0.0909347006851916
1492637890.0,40.4454821806122,-79.9465852543,3.92000007629395,-0.08441162109375,-0.965560913085938,0.449539184570312,0.101860585373351,-0.466558126106546,0.0832791778156498
1492637890.2,40.4454821806122,-79.9465852543,3.92000007629395,-0.1165771484375,-0.915145874023438,0.338729858398438,-0.0101205447745191,-0.425390449343883,0.195045124547441
1492637890.4,40.4454465405983,-79.9466987765158,4.44000005722046,-0.148040771484375,-0.941146850585938,0.435806274414062,0.156557386789725,-0.291389504354911,0.150558616434322
1492637890.6,40.4454465405983,-79.9466987765158,4.44000005722046,-0.0908660888671875,-0.888656616210938,0.4837646484375,0.113596869981221,-0.168804732010782,0.0111945976421481
1492637890.8,40.4454465405983,-79.9466987765158,4.44000005722046,0.0872650146484375,-0.862167358398438,0.517440795898438,-0.0172919049578845,-0.0743389460362538,0.0554579328559191
1492637891.0,40.4454465405983,-79.9466987765158,4.44000005722046,-0.1209716796875,-0.794052124023438,0.575103759765625,-0.0837055499061715,0.0282111317433184,0.061976818572215
1492637891.2,40.4454409809654,-79.9467499144341,5.53000020980835,-0.250823974609375,-0.914459228515625,0.551422119140625,-0.0541636365661406,-0.242148721063782,0.167465960930799
1492637891.4,40.4454409809654,-79.9467499144341,5.53000020980835,-0.110214233398438,-0.805816650390625,0.525161743164062,-0.0251277238332246,-0.151929345447385,0.118484569529843
1492637891.6,40.4454409809654,-79.9467499144341,5.53000020980835,-0.123550415039062,-0.797714233398438,0.550064086914062,-0.07840958776244,-0.200517654271445,0.0946077324606289
1492637891.8,40.4454409809654,-79.9467499144341,5.53000020980835,-0.105697631835938,-0.916854858398438,0.4906005859375,-0.127001625012026,-0.220406141292157,0.132545261137135
1492637892.0,40.4454409809654,-79.9467499144341,5.53000020980835,-0.137054443359375,-0.683456420898438,0.49554443359375,-0.142898299874818,-0.104373011545731,0.0350575862736941
1492637892.2,40.4454409809654,-79.9467499144341,5.53000020980835,-0.0706939697265625,-0.927734375,0.557205200195312,-0.0560544809400968,-0.0932428624019633,-0.00139949115283664
1492637892.4,40.4454323090464,-79.9468474936414,7.17999982833862,0.023651123046875,-0.915878295898438,0.558456420898438,-0.00652341309014909,-0.114835239888108,0.0247524844356325
1492637892.6,40.4454323090464,-79.9468474936414,7.17999982833862,-0.079010009765625,-0.91583251953125,0.50146484375,0.0242819038710155,-0.124609041088699,0.0250931027390536
1492637892.8,40.4454323090464,-79.9468474936414,7.17999982833862,0.0541534423828125,-0.93304443359375,0.407501220703125,-0.0126060730198901,0.169188759839971,-0.153034290983659
1492637893.0,40.4454323090464,-79.9468474936414,7.17999982833862,0.0748291015625,-0.786209106445312,0.585494995117188,-0.0696645656909468,0.039794550904618,-0.101040065441497
1492637893.2,40.4454323090464,-79.9468474936414,7.17999982833862,0.07763671875,-0.866836547851562,0.4962158203125,-0.0380515119711612,0.0406566161494767,-0.0761957019482571
1492637893.4,40.4454237077822,-79.9469453884237,9.02000045776367,-0.001708984375,-0.890472412109375,0.51312255859375,-0.0344242865664732,-0.037005422294978,0.00507412082492797
1492637893.6,40.4454237077822,-79.9469453884237,9.02000045776367,0.00201416015625,-0.924758911132812,0.54913330078125,-0.0326058801741671,-0.00298407200143379,-0.0312463364376817
1492637893.8,40.4454237077822,-79.9469453884237,9.02000045776367,0.073486328125,-0.8936767578125,0.515365600585938,0.0116007297083852,0.0722526256382858,-0.0299216801114763
1492637894.0,40.4454237077822,-79.9469453884237,9.02000045776367,0.041168212890625,-0.810012817382812,0.46942138671875,-0.0682853145623947,-0.0282771781383523,-0.00595722504239825
1492637894.2,40.4454136042072,-79.9470603816678,10.4700002670288,0.121383666992188,-0.84368896484375,0.5189208984375,0.0174037577236678,0.136037996906774,-0.0300268749745344
1492637894.4,40.4454136042072,-79.9470603816678,10.4700002670288,0.143402099609375,-0.830795288085938,0.236709594726562,-0.00436012733667773,0.0138590903127724,0.0148465904449737
1492637894.6,40.4454136042072,-79.9470603816678,10.4700002670288,0.15838623046875,-0.740097045898438,0.470382690429688,0.0474042674034104,-0.0992368390674046,-0.0163179869472425
1492637894.8,40.4454136042072,-79.9470603816678,10.4700002670288,0.0775299072265625,-0.984832763671875,0.308609008789062,-0.000696416625055721,0.0106507801475539,0.0564747277601113
1492637895.0,40.4454136042072,-79.9470603816678,10.4700002670288,-0.0538330078125,-1.09144592285156,0.344635009765625,0.0223878637037511,-0.0203707854941251,-0.0903464084003931
1492637895.2,40.4454020748594,-79.9471916022605,11.5100002288818,-0.094207763671875,-0.809783935546875,0.407623291015625,-0.0161499414824585,-0.114772122970273,0.0278524039444847
1492637895.4,40.4454020748594,-79.9471916022605,11.5100002288818,-0.0714263916015625,-0.838882446289062,0.422500610351562,-0.0669561308623362,-0.113381420249033,0.00600436299369265
1492637895.6,40.4454020748594,-79.9471916022605,11.5100002288818,-0.01556396484375,-0.878250122070312,0.34588623046875,-0.0201633252452079,-0.0105077683970166,-0.0108414624816036
1492637895.8,40.4454020748594,-79.9471916022605,11.5100002288818,0.0886993408203125,-0.926239013671875,0.469696044921875,-0.113817379719479,0.183689671975452,-0.0645459700758145
1492637896.0,40.4454020748594,-79.9471916022605,11.5100002288818,0.0044708251953125,-0.703964233398438,0.281982421875,-0.185199417997418,0.0331180060517894,0.0108129666579397
1492637896.2,40.4453898858201,-79.9473303310937,12.039999961853,0.243499755859375,-1.31005859375,0.327072143554688,-0.171030868365979,0.245734667471573,-0.207098325325031
1492637896.4,40.4453898858201,-79.9473303310937,12.039999961853,-0.092254638671875,-1.2265625,0.140960693359375,0.212229704113396,0.0209433651284921,-0.0885093598804565
1492637896.6,40.4453898858201,-79.9473303310937,12.039999961853,-0.07647705078125,-0.662582397460938,0.379638671875,-0.0278334955007451,0.0640114736450356,0.0453970428898177
1492637896.8,40.4453898858201,-79.9473303310937,12.039999961853,0.149215698242188,-0.959304809570312,0.261428833007812,0.0024636903244323,0.0425325468213285,-0.00115075190702324
1492637897.0,40.4453898858201,-79.9473303310937,12.039999961853,-0.052642822265625,-1.08734130859375,0.247238159179688,-0.0380824046398061,-0.0805800640508545,0.0925786700260975
1492637897.2,40.4453898858201,-79.9473303310937,12.039999961853,-0.126998901367188,-0.80291748046875,0.331527709960938,-0.0445927682406138,-0.048634381510918,0.0412513000208914
1492637897.4,40.4453773868257,-79.9474725876631,12.039999961853,0.112701416015625,-0.991775512695312,0.2430419921875,-0.00746297632272905,-0.0669590603395353,0.0416787373758491
1492637897.6,40.4453773868257,-79.9474725876631,12.039999961853,-0.00726318359375,-0.946304321289062,0.388885498046875,0.094409060643309,-0.169743496295034,0.012066782899149
1492637897.8,40.4453773868257,-79.9474725876631,12.039999961853,0.175430297851562,-1.35169982910156,0.204010009765625,0.191135604067205,0.149811866064663,0.0442188604235667
1492637898.0,40.4453773868257,-79.9474725876631,12.039999961853,-0.229278564453125,-0.928192138671875,0.299758911132812,0.150411876258258,-0.0860491316654413,0.167025207770391
1492637898.2,40.4453773868257,-79.9474725876631,12.039999961853,-0.457534790039062,-0.770233154296875,0.304214477539062,-0.00775619035874677,-0.326486505412738,0.154297960920902
1492637898.4,40.4453650246765,-79.9476113531833,11.6700000762939,0.01611328125,-1.12326049804688,0.263565063476562,-0.033810960567428,-0.0444508217545126,0.0338873932907133
1492637898.6,40.4453650246765,-79.9476113531833,11.6700000762939,-0.108505249023438,-0.844894409179688,0.34112548828125,-0.136134403338234,-0.171441527806069,-0.0286729238763381
1492637898.8,40.4453650246765,-79.9476113531833,11.6700000762939,-0.026763916015625,-0.801010131835938,0.240890502929688,-0.0360067368861983,-0.135898713581762,0.143920953733408
1492637899.0,40.4453650246765,-79.9476113531833,11.6700000762939,-0.0202178955078125,-0.925338745117188,0.229110717773438,0.00820626458297016,-0.0649422484460183,-0.0125429561020552
1492637899.2,40.4453650246765,-79.9476113531833,11.6700000762939,0.198287963867188,-0.786392211914062,0.205673217773438,-0.0231103793074896,-0.0296276671271315,0.0382235521775803
1492637899.4,40.4453546205695,-79.9477436244579,11.1800003051758,-0.146759033203125,-1.00465393066406,0.293228149414062,0.230484608121453,-0.222727885130488,0.155403172773285
1492637899.6,40.4453546205695,-79.9477436244579,11.1800003051758,0.0179901123046875,-1.013671875,0.127670288085938,0.13341371796861,-0.362505226523842,0.168630827591599
1492637899.8,40.4453546205695,-79.9477436244579,11.1800003051758,-0.061431884765625,-0.827529907226562,0.281448364257812,-0.100416086798092,-0.163145248378254,0.0889549067308267
1492637900.0,40.4453546205695,-79.9477436244579,11.1800003051758,-0.110000610351562,-0.981231689453125,0.264663696289062,0.0496671553816508,-0.0822072554768929,0.138262269049208
1492637900.2,40.4453546205695,-79.9477436244579,11.1800003051758,-0.118637084960938,-0.8736572265625,0.267181396484375,-0.0107658287066453,-0.0254600863372665,-0.00537559066032494
1492637900.4,40.4453450395037,-79.9478672030575,10.3999996185303,0.0019989013671875,-0.913360595703125,0.287216186523438,-0.0325432958885503,-0.0317081285707014,-0.0514296353910652
1492637900.6,40.4453450395037,-79.9478672030575,10.3999996185303,-0.0547027587890625,-0.965591430664062,0.243057250976562,0.0329094805384362,-0.0151062486512565,-0.000690291354548539
1492637900.8,40.4453450395037,-79.9478672030575,10.3999996185303,-0.0535125732421875,-0.9483642578125,0.206253051757812,0.0363881015542977,-0.0683103482766415,0.0272041905351594
1492637901.0,40.4453450395037,-79.9478672030575,10.3999996185303,-0.016937255859375,-0.9259033203125,0.193572998046875,0.0206608037368347,-0.0650194801176305,0.0110414658794685
1492637901.2,40.4453450395037,-79.9478672030575,10.3999996185303,0.0337982177734375,-0.967330932617188,0.154495239257812,-0.00433615888686702,0.00534816010109713,0.00847151542754206
1492637901.4,40.4453361671267,-79.947981640841,9.68000030517578,-0.012939453125,-0.910598754882812,0.242568969726562,-0.00180056321300257,-0.0244598030318328,-0.037272803668422
1492637901.6,40.4453361671267,-79.947981640841,9.68000030517578,0.140274047851562,-1.02200317382812,0.213973999023438,-0.0910867671834351,-0.0440809086791006,0.0173068186599889
1492637901.8,40.4453361671267,-79.947981640841,9.68000030517578,0.00836181640625,-0.91400146484375,0.202316284179688,-0.0395442137621506,-0.0391021290211974,-0.0109660984206193
1492637902.0,40.4453361671267,-79.947981640841,9.68000030517578,0.1092529296875,-0.957260131835938,0.170440673828125,-0.0673305713116013,0.0461722890831398,-0.0349273576963892
1492637902.2,40.445327551952,-79.9480927611742,9.03999996185303,-0.0442657470703125,-0.9478759765625,0.0943145751953125,-0.044802625334512,-0.0167286463873327,-0.00361417591534653
1492637902.4,40.445327551952,-79.9480927611742,9.03999996185303,0.0393829345703125,-1.01905822753906,0.16607666015625,-0.0732228152234016,-0.00803715385375013,-0.0231194340551959
1492637902.6,40.445327551952,-79.9480927611742,9.03999996185303,-0.0059356689453125,-0.976104736328125,0.121124267578125,-0.0880326540453323,0.103745837109018,-0.0470162448325859
1492637902.8,40.445327551952,-79.9480927611742,9.03999996185303,-0.0669097900390625,-0.946395874023438,0.140426635742188,-0.0594239123512651,0.0525108787936374,0.0131168673169673
1492637903.0,40.445327551952,-79.9480927611742,9.03999996185303,0.00970458984375,-0.788070678710938,0.187301635742188,-0.0703995981518086,0.0238507380905316,-0.0562254558820799
1492637903.2,40.445327551952,-79.9480927611742,9.03999996185303,0.0870361328125,-1.05564880371094,0.137847900390625,-0.0729796686158774,-0.0452625532547687,0.0164290407646988
1492637903.4,40.4453212009174,-79.9481908163618,8.14000034332275,-0.0124359130859375,-0.969024658203125,0.082366943359375,0.022822225277543,-0.0841825220574047,-0.00168151991227603
1492637903.6,40.4453212009174,-79.9481908163618,8.14000034332275,0.0676116943359375,-0.98077392578125,0.0383758544921875,0.0556478162416417,-0.104606304457222,0.000839694691701984
1492637903.8,40.4453212009174,-79.9481908163618,8.14000034332275,0.058441162109375,-1.00395202636719,0.0673828125,0.0648759357348753,-0.00681636081005781,-0.0750193836947691
1492637904.0,40.4453212009174,-79.9481908163618,8.14000034332275,0.0647735595703125,-0.943191528320312,0.155364990234375,0.000153131762679556,0.0223372636430396,0.00101013700146706
1492637904.2,40.4453212009174,-79.9481908163618,8.14000034332275,0.18017578125,-0.940017700195312,0.216567993164062,-0.0139538988475792,-0.0903195104733833,0.0363414962352213
1492637904.4,40.4453160301101,-79.948278776978,7.19999980926514,0.0681610107421875,-1.03233337402344,0.194061279296875,-0.0091383709644979,-0.00844381855220523,0.0404443622105974
1492637904.6,40.4453160301101,-79.948278776978,7.19999980926514,-0.020965576171875,-0.983108520507812,0.0703582763671875,-0.0295853228657993,-0.0274569245226079,0.0456151557830952
1492637904.8,40.4453160301101,-79.948278776978,7.19999980926514,-0.0126190185546875,-0.98822021484375,0.05609130859375,0.00365438964780673,-0.0415053655888849,0.0214688068115648
1492637905.0,40.4453160301101,-79.948278776978,7.19999980926514,0.0194091796875,-1.00459289550781,-0.0502471923828125,-0.0463973261952515,-0.032669263408111,0.0262646273025795
1492637905.2,40.4453114872954,-79.9483560548088,5.94999980926514,-0.0497589111328125,-0.975753784179688,-0.0422210693359375,-0.0269072480736156,-0.0168426296819881,0.0114963337936541
1492637905.4,40.4453114872954,-79.9483560548088,5.94999980926514,0.121658325195312,-1.20175170898438,-0.066680908203125,0.00859109136048661,0.0350490641582058,0.0138582913644453
1492637905.6,40.4453114872954,-79.9483560548088,5.94999980926514,0.05499267578125,-0.89569091796875,0.0273284912109375,0.00689252721723408,-0.0298250073639064,0.024670459074058
1492637905.8,40.4453114872954,-79.9483560548088,5.94999980926514,0.029693603515625,-1.02577209472656,0.06201171875,-0.00632580653726521,-0.0286825112562624,-0.0202488127161995
1492637906.0,40.4453114872954,-79.9483560548088,5.94999980926514,0.07318115234375,-0.951797485351562,0.244308471679688,0.0137570912430223,-0.022416093211306,0.0716350385814964
1492637906.2,40.4453114872954,-79.9483560548088,5.94999980926514,0.0206451416015625,-0.955276489257812,0.255767822265625,-0.0210189989034504,0.0192820852405007,-0.00986088656823639
1492637906.4,40.4453082702539,-79.9484107799108,3.79999995231628,0.202316284179688,-0.8929443359375,0.293869018554688,0.0150425991012036,0.0466958665534494,-0.061806908894668
1492637906.6,40.4453082702539,-79.9484107799108,3.79999995231628,0.0420379638671875,-0.887069702148438,0.402374267578125,0.016166985713435,-0.0468902773130251,0.115437646926684
1492637906.8,40.4453082702539,-79.9484107799108,3.79999995231628,0.0119171142578125,-0.95648193359375,0.481643676757812,0.0116934077143199,0.0169451613839562,0.0107381318313085
1492637907.0,40.4453082702539,-79.9484107799108,3.79999995231628,0.0672607421875,-0.880203247070312,0.405548095703125,-0.0114465326812696,0.0894190957088275,-0.0483275853533409
1492637907.2,40.4453052499636,-79.9484621580767,4.55000019073486,0.1044921875,-0.91455078125,0.454986572265625,0.0247631370799928,0.0870683234146146,0.0277504048747347
1492637907.4,40.4453052499636,-79.9484621580767,4.55000019073486,0.011444091796875,-0.88763427734375,0.42822265625,-0.032197617579058,0.0246800464539823,0.03159308001161
1492637907.6,40.4453052499636,-79.9484621580767,4.55000019073486,0.10528564453125,-0.895828247070312,0.390457153320312,-0.0460204889010053,0.0428545229971191,0.0399343668618472
1492637907.8,40.4453052499636,-79.9484621580767,4.55000019073486,-0.114547729492188,-0.942306518554688,0.36236572265625,0.0450657456502119,-0.0236885515801458,0.0399724500654353
1492637908.0,40.4453052499636,-79.9484621580767,4.55000019073486,-0.0073699951171875,-0.939529418945312,0.195709228515625,-0.0444875733775557,-0.0209771872743361,0.0486445015230603
1492637908.2,40.4453052499636,-79.9484621580767,4.55000019073486,-0.087249755859375,-1.01219177246094,0.283050537109375,-0.0200626577560029,-0.0413477064523522,0.042549857368414
1492637908.4,40.445301279123,-79.9485297060554,6.30999994277954,-0.1031494140625,-1.05332946777344,0.191940307617188,-0.0250747269275321,-0.0232339499820693,0.0296572282152314
1492637908.6,40.445301279123,-79.9485297060554,6.30999994277954,-0.1248779296875,-0.899017333984375,0.185882568359375,0.0271056535748265,0.0179028341119487,-0.0253578209514075
1492637908.8,40.445301279123,-79.9485297060554,6.30999994277954,-0.0604400634765625,-1.04154968261719,0.133819580078125,-0.102440888174879,0.0570260021057577,-0.108883607483999
1492637909.0,40.445301279123,-79.9485297060554,6.30999994277954,-0.009002685546875,-1.00942993164062,0.0921630859375,-0.0923799982087776,-0.0302527110349731,-0.0360528095730567
1492637909.2,40.4452971224464,-79.9486004152921,5.78999996185303,-0.023529052734375,-0.978225708007812,0.0989837646484375,-0.0591892878592291,-0.154911819552165,0.0381774794907219
1492637909.4,40.4452971224464,-79.9486004152921,5.78999996185303,-0.0796661376953125,-0.964859008789062,0.09747314453125,-0.0295147490969122,-0.160434683020771,-0.0318745761388314
1492637909.6,40.4452971224464,-79.9486004152921,5.78999996185303,-0.0284576416015625,-1.06108093261719,0.052398681640625,0.0143536393272001,-0.122425248994834,-0.0261924556370383
1492637909.8,40.4452971224464,-79.9486004152921,5.78999996185303,0.010589599609375,-0.9456787109375,-0.05682373046875,-0.0305421966454647,-0.135960765235161,-0.0212861139607853
1492637910.0,40.4452971224464,-79.9486004152921,5.78999996185303,0.00537109375,-1.04544067382812,-0.24713134765625,-0.00514309669716102,-0.0903802305462371,0.0151075802318015
1492637910.2,40.4452971224464,-79.9486004152921,5.78999996185303,-0.0059661865234375,-1.11766052246094,-0.03167724609375,-0.0378328664456657,-0.0752779766366158,-0.000193079179030745
1492637910.4,40.4452938887651,-79.9486554234535,4.28999996185303,-0.037841796875,-1.02449035644531,-0.048858642578125,-0.0773459212230623,-0.036734845128226,-0.0486767257722503
1492637910.6,40.4452938887651,-79.9486554234535,4.28999996185303,0.00408935546875,-1.00572204589844,-0.072540283203125,0.045710230634011,-0.0354021993187503,-0.0133014243805098
1492637910.8,40.4452938887651,-79.9486554234535,4.28999996185303,0.0778961181640625,-1.00384521484375,-0.009857177734375,-0.0298577642453144,-0.0487406416384122,-0.0236366199388893
1492637911.0,40.4452938887651,-79.9486554234535,4.28999996185303,0.05987548828125,-1.01095581054688,-0.00543212890625,-0.0196818257201216,-0.0413546306711864,0.0148322093750873
1492637911.2,40.4452938887651,-79.9486554234535,4.28999996185303,0.0310211181640625,-0.995498657226562,0.101470947265625,-0.0025608957042202,-0.0340202850291082,0.0128561438462485
1492637911.4,40.4452925875143,-79.9486775590336,1.46000003814697,0.0236968994140625,-0.977569580078125,0.0841522216796875,-0.0129205923446284,-0.00736097725297901,0.00628399490815097
1492637911.6,40.4452925875143,-79.9486775590336,1.46000003814697,0.04412841796875,-0.94903564453125,0.296295166015625,6.39158661619017e-05,-0.00319259751478699,-0.00638839082288208
1492637911.8,40.4452925875143,-79.9486775590336,1.46000003814697,0.039886474609375,-0.945892333984375,0.203826904296875,-0.015965650735025,-0.00308766896783787,-0.00228792169248707
1492637912.0,40.4452925875143,-79.9486775590336,1.46000003814697,0.0464019775390625,-0.964309692382812,0.251968383789062,-0.0149155663172068,-0.00309432687056307,-0.00121093934765903
1492637912.2,40.4452925875143,-79.9486775590336,1.46000003814697,0.040985107421875,-0.970230102539062,0.229095458984375,-0.0160175823762816,-0.00415053655888849,0.000912931621679163
1492637912.4,40.4452925491336,-79.9486782119276,0.0,0.043243408203125,-0.95147705078125,0.23175048828125,-0.0139267346044604,-0.00735511829858084,0.00200882241024677
1492637912.6,40.4452925491336,-79.9486782119276,0.0,0.044891357421875,-0.951400756835938,0.232284545898438,-0.0170610088913746,-0.00520781151164995,-0.00122745094641752
1492637912.8,40.4452925491336,-79.9486782119276,0.0,0.0432281494140625,-0.95916748046875,0.227935791015625,-0.0149461926697427,-0.00522139363320935,-0.000139549641120152
1492637913.0,40.4452925491336,-79.9486782119276,0.0,0.0465545654296875,-0.963516235351562,0.225753784179688,-0.0160242402790068,-0.00308660370340184,0.0019763318449478
1492637913.2,40.4452924641506,-79.9486796575739,0.0,0.03631591796875,-0.957473754882812,0.232864379882812,-0.0128180606426604,-0.00736284146574207,-0.00117844878236006
1492637913.4,40.4452924641506,-79.9486796575739,0.0,0.040496826171875,-0.956878662109375,0.233840942382812,-0.0149834769250038,-0.00628452754036899,0.00199524028868737
1492637913.6,40.4452924641506,-79.9486796575739,0.0,0.0472869873046875,-0.955032348632812,0.234161376953125,-0.0160255718595518,-0.00521420309826614,0.000915594782769242
1492637913.8,40.4452924641506,-79.9486796575739,0.0,0.0388336181640625,-0.9599609375,0.229019165039062,-0.0138961082519245,-0.00522805153593455,0.000937432703707892
1492637914.0,40.4452924641506,-79.9486796575739,0.0,0.046844482421875,-0.955078125,0.234893798828125,-0.0106273443299612,-0.00312255637811791,-0.00329939027449917
1492637914.2,40.4452924618599,-79.9486796965405,0.0,0.0428009033203125,-0.951217651367188,0.234619140625,-0.0160175823762816,-0.00415053655888849,0.000912931621679163
1492637914.4,40.4452924618599,-79.9486796965405,0.0,0.0449066162109375,-0.9591064453125,0.229202270507812,-0.0181403880811837,-0.00520062097670674,-0.000172306522528127
1492637914.6,40.4452924618599,-79.9486796965405,0.0,0.0421600341796875,-0.954437255859375,0.236175537109375,-0.0160415508260923,-0.00734153617702144,0.000920921104949401
1492637914.8,40.4452924618599,-79.9486796965405,0.0,0.0430755615234375,-0.955734252929688,0.23193359375,-0.0160109244735564,-0.00521446941437515,-0.000150468601589477
1492637915.0,40.4452924618599,-79.9486796965405,0.0,0.04443359375,-0.957077026367188,0.224853515625,-0.0159736402182953,-0.00415133550721552,-0.00228525853139699
1492637915.2,40.4452925859307,-79.9486775859724,0.0,0.044586181640625,-0.951568603515625,0.241897583007812,-0.0160335613428221,-0.00627786963764379,0.000918257943859321
1492637915.4,40.4452925859307,-79.9486775859724,0.0,0.0475921630859375,-0.947433471679688,0.261077880859375,-0.0149009189312114,-0.00309459318667207,-0.00227700273201775
1492637915.6,40.4452925859307,-79.9486775859724,0.0,0.0405731201171875,-0.940093994140625,0.300125122070312,-0.00760758596992035,-0.0127144636762563,0.00421977874723055
1492637915.8,40.4452925859307,-79.9486775859724,0.0,0.042022705078125,-0.922500610351562,0.327301025390625,0.00192839494532638,-0.0170311814871657,0.00539476542017351
1492637916.0,40.4452925859307,-79.9486775859724,0.0,0.0262298583984375,-0.948348999023438,0.333602905273438,-0.0207505522655704,-0.036028574807137,0.0180061647622437
1492637916.2,40.4452922368927,-79.9486835234582,0.180000007152557,0.0597381591796875,-0.9324951171875,0.310928344726562,-0.00781531253494653,-0.028667863870267,0.0106561064697341
1492637916.4,40.4452922368927,-79.9486835234582,0.180000007152557,0.0498046875,-0.933975219726562,0.30010986328125,-0.0272840853678618,-0.0572606265977937,0.0169278508368707
1492637916.6,40.4452922368927,-79.9486835234582,0.180000007152557,0.0491790771484375,-0.952239990234375,0.269134521484375,-0.0344722234660947,-0.0433874215312439,0.00509009979146845
1492637916.8,40.4452922368927,-79.9486835234582,0.180000007152557,0.0593109130859375,-0.96295166015625,0.235275268554688,-0.0204416255791212,-0.0339065680505618,-0.00332042924711079
1492637917.0,40.4452922368927,-79.9486835234582,0.180000007152557,0.0386505126953125,-0.962554931640625,0.2340087890625,-0.0330666070427508,-0.0253157430061842,-0.00986914236761564
1492637917.2,40.4452917315833,-79.9486921192776,0.75,0.076904296875,-0.953460693359375,0.244171142578125,-0.0260702165430037,-0.0413130853581812,0.0147666956122714
1492637917.4,40.4452917315833,-79.9486921192776,0.75,0.0556640625,-0.970779418945312,0.2413330078125,-0.0210336462894458,0.00758042172680154,-0.0151619087180391
1492637917.6,40.4452917315833,-79.9486921192776,0.75,0.094085693359375,-0.96331787109375,0.167770385742188,-0.0432292297624932,0.0119780996348494,-0.0249964299914837
1492637917.8,40.4452917315833,-79.9486921192776,0.75,0.0628204345703125,-0.956130981445312,0.161773681640625,-0.0351188389787659,0.0044834316951484,0.000695085044510681
1492637918.0,40.4452917315833,-79.9486921192776,0.75,0.032073974609375,-0.97100830078125,0.1658935546875,-0.0266409319646077,-0.000890294752413489,0.000795752533715676
1492637918.2,40.4452917315833,-79.9486921192776,0.75,0.03472900390625,-0.9876708984375,0.1578369140625,-0.016132098303155,-0.011595137070096,0.00519582728674459
1492637918.4,40.445291299984,-79.9486994612143,0.519999980926514,0.025634765625,-0.972381591796875,0.140518188476562,-0.0214917099969395,-0.0104960504882203,0.00833675947638405
1492637918.6,40.445291299984,-79.9486994612143,0.519999980926514,0.0423126220703125,-0.977294921875,0.147171020507812,-0.0138228713219473,-0.00522938311647959,-0.0043928842180857
1492637918.8,40.445291299984,-79.9486994612143,0.519999980926514,0.034454345703125,-0.965438842773438,0.178543090820312,-0.0109389341775005,-0.0212016917542298,0.00953864407633681
1492637919.0,40.445291299984,-79.9486994612143,0.519999980926514,0.04583740234375,-0.961318969726562,0.19219970703125,-0.0119810291120485,-0.020131367312127,0.00845899857041869
1492637919.2,40.445291299984,-79.9486994612143,0.519999980926514,0.0448760986328125,-0.955825805664062,0.237991333007812,-0.0128327080286558,-0.00736257514963306,-0.000112385398001344
1492637919.4,40.4452912633581,-79.9487000842581,0.0,0.0394287109375,-0.97174072265625,0.215713500976562,-0.0148862715452159,-0.00309485950278108,-0.00334306611637647
1492637919.6,40.4452912633581,-79.9487000842581,0.0,0.04644775390625,-0.958023071289062,0.222305297851562,-0.00961454416740407,-0.00419234818800274,-8.76179998636069e-05
1492637919.8,40.4452912633581,-79.9487000842581,0.0,0.0452117919921875,-0.956298828125,0.223709106445312,-0.0170823141800953,-0.00414361234005429,0.000902012661209838
1492637920.0,40.4452912633581,-79.9487000842581,0.0,0.0449676513671875,-0.954254150390625,0.241439819335938,-0.00637507501743168,-0.00208632039796808,-0.00219231420935323
1492637920.2,40.4452912609786,-79.9487001247345,0.0,0.0488128662109375,-0.957763671875,0.239578247070312,-0.0149448610891977,-0.00309379423834505,0.000921187421058408
1492637920.4,40.4452912609786,-79.9487001247345,0.0,0.048126220703125,-0.954727172851562,0.237197875976562,-0.0159510033490296,-0.00308793528394688,-0.00335398507684579
1492637920.6,40.4452912609786,-79.9487001247345,0.0,0.0479278564453125,-0.9505615234375,0.237060546875,-0.0170543509886494,-0.00627174436713661,-0.00229085116968616
1492637920.8,40.4452912609786,-79.9487001247345,0.0,0.0474700927734375,-0.954483032226562,0.23773193359375,-0.019125225052295,-0.00625896119390423,-0.00657694262805969
1492637921.0,40.4452912609786,-79.9487001247345,0.0,0.046112060546875,-0.9571533203125,0.234695434570312,-0.0224472521960599,-0.0115549233376358,-0.000200003397864951
1492637921.2,40.4452912531215,-79.9487002583928,0.0,0.0384521484375,-0.951553344726562,0.224273681640625,-0.0128486869951963,-0.00948990822838836,-0.000107059075821185
1492637921.4,40.4452912531215,-79.9487002583928,0.0,0.0457763671875,-0.959259033203125,0.213882446289062,-0.0127807763873993,-0.00629970755858244,-0.00331323871216758
1492637921.6,40.4452912531215,-79.9487002583928,0.0,0.05487060546875,-0.9573974609375,0.249786376953125,-0.0108710235697034,-0.0180114910844239,0.00633246443999041
1492637921.8,40.4452912531215,-79.9487002583928,0.0,0.050323486328125,-0.958572387695312,0.253494262695312,-0.0116707708450542,-0.00417983133087936,-0.00543977284259585
1492637922.0,40.4452912531215,-79.9487002583928,0.0,0.0608062744140625,-0.947006225585938,0.293655395507812,-0.00760891755046539,-0.0148420630711206,0.00315904168505199
1492637922.2,40.4452909407884,-79.948705571491,0.219999998807907,0.0559539794921875,-0.935714721679688,0.29803466796875,-0.00651888571629596,-0.00953038827695756,0.00422270822442964
1492637922.4,40.4452909407884,-79.948705571491,0.219999998807907,0.0500335693359375,-0.935638427734375,0.279632568359375,-0.0212147412435712,-0.0126287098891557,-0.0129791818886102
1492637922.6,40.4452909407884,-79.948705571491,0.219999998807907,0.0666351318359375,-0.933914184570312,0.29376220703125,-0.0136937080090784,-0.0211889085809974,-0.0224760143358327
1492637922.8,40.4452909407884,-79.948705571491,0.219999998807907,0.0482177734375,-0.950180053710938,0.2811279296875,-0.0308479275386058,-0.0232035899456424,-0.0151829476906507
1492637923.0,40.4452909407884,-79.948705571491,0.219999998807907,0.0784454345703125,-0.949066162109375,0.27557373046875,-0.0277376217015023,-0.016839966520898,-0.00557159931655477
1492637923.2,40.4452909407884,-79.948705571491,0.219999998807907,0.023712158203125,-0.963348388671875,0.27105712890625,-0.0180085616072248,-0.016904947651496,-0.016133962515918
1492637923.4,40.4452903412573,-79.9487157701169,0.850000023841858,0.0595855712890625,-0.951507568359375,0.291778564453125,-0.01579787158635,-0.0158564611303318,-0.0214451046778631
1492637923.6,40.4452903412573,-79.9487157701169,0.850000023841858,0.008148193359375,-0.925506591796875,0.313430786132812,-0.020063989336548,-0.0668791655068329,0.0287549492379126
1492637923.8,40.4452903412573,-79.9487157701169,0.850000023841858,0.05621337890625,-0.930633544921875,0.305801391601562,-0.028400748812932,-0.0817204296296265,0.00738361412224469
1492637924.0,40.4452903412573,-79.9487157701169,0.850000023841858,0.0314788818359375,-0.946365356445312,0.303695678710938,-0.0156519303586137,-0.0913773180583628,0.00434041994461114
1492637924.2,40.4452903412573,-79.9487157701169,0.850000023841858,0.0363006591796875,-0.948883056640625,0.3250732421875,-0.0278433491967784,-0.108313424694613,0.0298484431814991
1492637924.4,40.4452893419063,-79.9487327700787,1.75999999046326,-0.0040435791015625,-0.969268798828125,0.332015991210938,-0.0124582675793907,-0.14351242482219,0.0535535063604034
1492637924.6,40.4452893419063,-79.9487327700787,1.75999999046326,0.0074462890625,-0.968948364257812,0.267044067382812,0.00952745879975848,-0.151110157096077,-0.000578704904874219
1492637924.8,40.4452893419063,-79.9487327700787,1.75999999046326,0.0149383544921875,-0.943038940429688,0.28179931640625,0.0069873357520409,-0.214905115744489,0.0720624759364541
1492637925.0,40.4452893419063,-79.9487327700787,1.75999999046326,-0.147537231445312,-0.973907470703125,0.275909423828125,-0.00127272468494887,-0.298883107030176,0.0849891935515897
1492637925.2,40.4452893419063,-79.9487327700787,1.75999999046326,-0.107284545898438,-0.927627563476562,0.25372314453125,0.0364690616514361,-0.385290433862233,0.081333738639347
1492637925.4,40.4452879744814,-79.9487560313469,2.50999999046326,-0.127456665039062,-0.97564697265625,0.320892333984375,0.0378102295764,-0.462948211248943,0.0964748747008835
1492637925.6,40.4452879744814,-79.9487560313469,2.50999999046326,-0.0979766845703125,-0.906570434570312,0.323150634765625,0.0109168299404528,-0.406400512874964,0.0693982495819388
1492637925.8,40.4452879744814,-79.9487560313469,2.50999999046326,0.005645751953125,-0.978988647460938,0.342620849609375,-0.0138729387504408,-0.430703455718591,0.0777368732710859
1492637926.0,40.4452879744814,-79.9487560313469,2.50999999046326,-0.103408813476562,-0.923736572265625,0.300445556640625,-0.0161382235736622,-0.413666148960918,0.096861565691163
1492637926.2,40.4452879744814,-79.9487560313469,2.50999999046326,-0.0186309814453125,-0.858993530273438,0.341903686523438,0.0280952842358999,-0.514997830541779,0.155151504050272
1492637926.4,40.4452874240797,-79.9487653942316,3.25,-0.035858154296875,-0.896957397460938,0.322341918945312,-0.0526296557782549,-0.31877106141867,0.0141445811816289
1492637926.6,40.4452874240797,-79.9487653942316,3.25,-0.02581787109375,-0.903884887695312,0.3472900390625,0.0291610813041496,-0.328862577737307,0.101371362681103
1492637926.8,40.4452874240797,-79.9487653942316,3.25,-0.030181884765625,-0.901153564453125,0.378143310546875,0.0352818244374788,-0.358685987204559,0.104709635107517
1492637927.0,40.4452874240797,-79.9487653942316,3.25,-0.257980346679688,-0.956649780273438,0.5562744140625,-0.000781105147720241,-0.411631227571988,0.142860749303448
1492637927.2,40.4452874240797,-79.9487653942316,3.25,-0.0650177001953125,-0.912307739257812,0.365142822265625,-0.010585799016956,-0.261604710723465,0.00803022963491593
1492637927.4,40.4453570576684,-79.9487740321999,4.17999982833862,0.143417358398438,-0.8778076171875,0.274871826171875,0.033677536196815,-0.24061101185037,0.0532102248958922
1492637927.6,40.4453570576684,-79.9487740321999,4.17999982833862,-0.0058441162109375,-0.946929931640625,0.29437255859375,-0.0150258211863361,-0.153064917336195,0.0802072214982434
1492637927.8,40.4453570576684,-79.9487740321999,4.17999982833862,0.030120849609375,-0.941650390625,0.300567626953125,-0.0175382473587168,-0.187098518170754,0.01203162917276
1492637928.0,40.4453570576684,-79.9487740321999,4.17999982833862,0.060638427734375,-0.929550170898438,0.278472900390625,-0.0268646374961743,-0.112586466663645,-0.0436992776948922
1492637928.2,40.4454038980411,-79.9487790713084,5.71999979019165,0.0881805419921875,-0.92376708984375,0.280502319335938,0.00480114681319485,-0.125542479050771,0.0472865556832289
1492637928.4,40.4454038980411,-79.9487790713084,5.71999979019165,0.0115966796875,-0.944900512695312,0.299911499023438,0.045910234031876,-0.157719323973327,0.0605850505865396
1492637928.6,40.4454038980411,-79.9487790713084,5.71999979019165,0.0399627685546875,-0.93603515625,0.2869873046875,-0.00177366528599277,-0.119114673443756,0.064262077103612
1492637928.8,40.4454038980411,-79.9487790713084,5.71999979019165,0.0539093017578125,-0.926284790039062,0.294143676757812,-0.0484008222833181,-0.116686403161822,0.0488514291397595
1492637929.0,40.4454038980411,-79.9487790713084,5.71999979019165,0.04638671875,-0.94921875,0.237030029296875,0.0115442706932755,-0.0458170233937232,-0.0125581361202686
1492637929.2,40.4454038980411,-79.9487790713084,5.71999979019165,0.0775604248046875,-0.942062377929688,0.298965454101562,-0.0092022868306598,-0.0520589403566509,0.0213644108968337
1492637929.4,40.4454617064737,-79.9487852903658,6.69000005722046,-0.0184783935546875,-0.984878540039062,0.291580200195312,-0.0694653612414088,0.0259738101115428,-0.0455592294002035
1492637929.6,40.4454617064737,-79.9487852903658,6.69000005722046,0.068817138671875,-0.961807250976562,0.319671630859375,-0.0456436516067591,-0.0103429187255407,-0.016433834454661
1492637929.8,40.4454617064737,-79.9487852903658,6.69000005722046,0.126296997070312,-0.964813232421875,0.233734130859375,-0.0579890011559304,0.0705820246864791,-0.00397450161083425
1492637930.0,40.4454617064737,-79.9487852903658,6.69000005722046,0.15533447265625,-0.9312744140625,0.2274169921875,-0.0478551405759609,0.0619991891253717,-0.0486295878209559
1492637930.2,40.4454617064737,-79.9487852903658,6.69000005722046,0.173690795898438,-0.953079223632812,0.115264892578125,-0.089099516378018,0.175015756305064,-0.0855947963834737
1492637930.4,40.445522658785,-79.9487918476431,7.65000009536743,0.14520263671875,-0.938919067382812,0.215927124023438,0.0039859532035216,-0.0383199586090412,-0.000926513743238567
1492637930.6,40.445522658785,-79.9487918476431,7.65000009536743,0.13165283203125,-0.9178466796875,0.218887329101562,-0.0616766803173631,0.0823012650633727,-0.0392275639085402
1492637930.8,40.445522658785,-79.9487918476431,7.65000009536743,0.198196411132812,-0.926681518554688,0.1419677734375,-0.0772061052658331,0.0111341438854033,-0.0328056172559231
1492637931.0,40.445522658785,-79.9487918476431,7.65000009536743,0.162551879882812,-0.957626342773438,0.138336181640625,-0.0457283401294236,0.0577301418979747,-0.0507292240243744
1492637931.2,40.445522658785,-79.9487918476431,7.65000009536743,0.14910888671875,-0.991836547851562,0.0865478515625,0.0317534023092328,0.065739598876388,-0.0275661141273012
1492637931.4,40.4455943873713,-79.9487995642369,7.80999994277954,0.0565948486328125,-0.922607421875,0.146331787109375,0.00688853247559896,-0.0245058757186911,0.0278553334216838
1492637931.6,40.4455943873713,-79.9487995642369,7.80999994277954,0.039306640625,-1.00799560546875,0.0734405517578125,-0.068362546234007,0.000447144747024304,0.015292137295344
1492637931.8,40.4455943873713,-79.9487995642369,7.80999994277954,0.0106658935546875,-1.00935363769531,0.0718231201171875,-0.0102883239231941,-0.0392858871364129,0.0298500410781531
1492637932.0,40.4455943873713,-79.9487995642369,7.80999994277954,0.037384033203125,-1.02432250976562,0.0471343994140625,0.0095146756265261,-0.00325251863931377,0.00330445028057032
1492637932.2,40.4455943873713,-79.9487995642369,7.80999994277954,0.0670318603515625,-1.05513000488281,0.0509796142578125,-0.00821824880787552,0.010688064402815,-0.0161049340600362
1492637932.4,40.4456577528162,-79.9488069026756,6.82000017166138,0.04461669921875,-1.00413513183594,-0.0325927734375,-0.0132534874808883,-0.0360778432873034,0.0148844073324529
1492637932.6,40.4456577528162,-79.9488069026756,6.82000017166138,0.0635833740234375,-1.00654602050781,-0.0619659423828125,-0.01203162917276,-0.0307685653381215,0.00635350341260204
1492637932.8,40.4456577528162,-79.9488069026756,6.82000017166138,0.0421600341796875,-1.04881286621094,-0.00323486328125,-0.00670264383151143,-0.0105908590230271,0.0170181319978243
1492637933.0,40.4456577528162,-79.9488069026756,6.82000017166138,0.018096923828125,-1.01527404785156,-0.009368896484375,-0.0289088799489191,-0.0232139762738937,-0.00130228577304875
1492637933.2,40.4456577528162,-79.9488069026756,6.82000017166138,0.066558837890625,-1.01467895507812,-0.032379150390625,-0.014887603125761,-0.0169243887274536,-0.0107708887127165
1492637933.4,40.4456974767901,-79.9488121487311,4.32000017166138,0.0337066650390625,-1.01632690429688,-0.0094146728515625,-0.0170317141193838,-0.00520834414386797,-0.00335957771513496
1492637933.6,40.4456974767901,-79.9488121487311,4.32000017166138,0.0402374267578125,-1.00733947753906,-0.0166778564453125,-0.0310396751370915,-0.0253277272310896,-0.00238486075616596
1492637933.8,40.4456974767901,-79.9488121487311,4.32000017166138,0.0799713134765625,-0.979339599609375,0.01263427734375,-0.00550475397319379,-0.0201745105217863,0.00212813202708232
1492637934.0,40.4456974767901,-79.9488121487311,4.32000017166138,0.0782012939453125,-1.01815795898438,0.036285400390625,-0.00442404320283963,-0.006352171832057,0.00850081019953293
1492637934.2,40.4456974767901,-79.9488121487311,4.32000017166138,0.035552978515625,-0.997787475585938,0.040771484375,0.00301576361840573,-0.0159747054827313,0.00433695783519404
1492637934.4,40.4457261878026,-79.9488159403851,2.17000007629395,0.0904541015625,-0.991195678710938,0.1124267578125,-0.00335398507684579,-0.0212525581310503,2.05063403936101e-05
1492637934.6,40.4457261878026,-79.9488159403851,2.17000007629395,0.0890350341796875,-0.955215454101562,0.197601318359375,-0.00102611596800753,0.00319765752085814,-0.00108497182809828
1492637934.8,40.4457261878026,-79.9488159403851,2.17000007629395,0.0762786865234375,-0.9505615234375,0.244674682617188,-0.00522112731710035,3.27568814079746e-05,-0.00751703849285766
1492637935.0,40.4457261878026,-79.9488159403851,2.17000007629395,0.097320556640625,-0.935516357421875,0.28912353515625,-0.00289991611098728,0.00214304572918676,-0.0202932875064038
1492637935.2,40.4457261878026,-79.9488159403851,2.17000007629395,0.123031616210938,-0.9661865234375,0.287887573242188,-0.0102225438442692,0.0234653786807972,-0.0182908566827732
1492637935.4,40.4457415868483,-79.9488179740247,1.37999999523163,0.126678466796875,-0.9351806640625,0.295867919921875,0.00590422813670567,0.0616559076608605,-0.00862837561574772
1492637935.6,40.4457415868483,-79.9488179740247,1.37999999523163,0.135772705078125,-0.915313720703125,0.347152709960938,0.00747629212817945,0.0882350542881783,-0.0310713667540635
1492637935.8,40.4457415868483,-79.9488179740247,1.37999999523163,0.159271240234375,-0.933563232421875,0.329345703125,-0.0218807978322,0.102250205840829,-0.0569972399659849
1492637936.0,40.4457415868483,-79.9488179740247,1.37999999523163,0.214370727539062,-0.955596923828125,0.29608154296875,-0.0243186554940586,0.175660241288863,-0.0721386423436304
1492637936.2,40.4457415868483,-79.9488179740247,1.37999999523163,0.241714477539062,-0.930755615234375,0.269241333007812,0.0147395313691526,0.233919819611546,-0.0153797552952076
1492637936.4,40.4457594585069,-79.9488203342043,2.44000005722046,0.1876220703125,-0.912811279296875,0.2767333984375,-0.0241695184730141,0.296932075215584,-0.017006946721246
1492637936.6,40.4457594585069,-79.9488203342043,2.44000005722046,0.169143676757812,-0.934112548828125,0.272964477539062,-0.0288793188608193,0.283125981808504,-0.0692640262629988
1492637936.8,40.4457594585069,-79.9488203342043,2.44000005722046,0.262680053710938,-0.932388305664062,0.266510009765625,-0.0237873548565878,0.310754680221422,-0.0372967721182327
1492637937.0,40.4457594585069,-79.9488203342043,2.44000005722046,0.236038208007812,-0.89508056640625,0.26690673828125,-0.0515116607526396,0.350296497138592,-0.0131597442105175
1492637937.2,40.4457594585069,-79.9488203342043,2.44000005722046,0.252105712890625,-0.8975830078125,0.205352783203125,-0.0547985341700154,0.417326663879232,-0.0474852275005489
1492637937.4,40.4457839042362,-79.9488235625735,3.20000004768372,0.309173583984375,-0.96380615234375,0.243087768554688,-0.0646016301425971,0.420571991983602,-0.107301956112601
1492637937.6,40.4457839042362,-79.9488235625735,3.20000004768372,0.3099365234375,-0.99822998046875,0.2518310546875,0.00323041440226612,0.363764901719449,-0.0371569561610035
1492637937.8,40.4457839042362,-79.9488235625735,3.20000004768372,0.164886474609375,-0.931365966796875,0.226486206054688,0.0347156363897279,0.335906372504457,-0.0186370676244835
1492637938.0,40.4457839042362,-79.9488235625735,3.20000004768372,0.134490966796875,-0.959213256835938,0.175277709960938,0.057471815272237,0.349583302598668,-0.0397636582359731
1492637938.2,40.4458078142539,-79.9488267201951,4.17999982833862,0.044769287109375,-0.953857421875,0.208602905273438,-0.0635954878827652,0.443969992688821,-0.0902926125463735
1492637938.4,40.4458078142539,-79.9488267201951,4.17999982833862,0.216201782226562,-0.93988037109375,0.268997192382812,0.0010183928008463,0.30207916665438,-0.0647419787320443
1492637938.6,40.4458078142539,-79.9488267201951,4.17999982833862,0.246856689453125,-0.910980224609375,0.191497802734375,0.0405072128123232,0.385849964007258,-0.102937567718179
1492637938.8,40.4458078142539,-79.9488267201951,4.17999982833862,0.112472534179688,-1.0706787109375,0.298934936523438,-0.00308101106511267,0.378673543817822,-0.189728656063316
1492637939.0,40.4458078142539,-79.9488267201951,4.17999982833862,0.350860595703125,-0.927413940429688,0.37347412109375,0.066983295105455,0.161240022934411,-0.0594382934211515
1492637939.2,40.4458078142539,-79.9488267201951,4.17999982833862,0.169876098632812,-0.887649536132812,0.217483520507812,0.0939539264130144,0.192987299973137,0.0100598247016653
1492637939.4,40.4458283723491,-79.9489538102411,5.09000015258789,0.0003662109375,-0.905838012695312,0.413558959960938,0.0745165788809621,0.09313100963618,0.052767074890503
1492637939.6,40.4458283723491,-79.9489538102411,5.09000015258789,0.168121337890625,-0.914779663085938,0.289031982421875,-0.105685151014814,0.192139349482056,-0.109265504784316
1492637939.8,40.4458283723491,-79.9489538102411,5.09000015258789,0.2176513671875,-1.04226684570312,0.281356811523438,-0.0517340347036613,0.240727924622224,-0.0565940373769469
1492637940.0,40.4458283723491,-79.9489538102411,5.09000015258789,0.2039794921875,-0.819625854492188,0.176925659179688,-0.0536203517037644,0.180112513999258,-0.0298015715463137
1492637940.2,40.44582114879,-79.9490330516568,5.92000007629395,0.0661468505859375,-0.956954956054688,0.3218994140625,0.08768697573584,0.0387987949730374,0.0722339835106552
1492637940.4,40.44582114879,-79.9490330516568,5.92000007629395,0.11260986328125,-0.744232177734375,0.330322265625,0.00379766771445299,0.00743980682124536,0.115170798185458
1492637940.6,40.44582114879,-79.9490330516568,5.92000007629395,0.235870361328125,-0.916519165039062,0.28704833984375,-0.150229716039697,-0.278742152338125,0.241211820992292
1492637940.8,40.44582114879,-79.9490330516568,5.92000007629395,0.4296875,-0.929473876953125,0.141342163085938,0.0315909494827379,-0.274615051596829,0.186553369095615
1492637941.0,40.44582114879,-79.9490330516568,5.92000007629395,0.292892456054688,-0.857559204101562,0.2430419921875,0.0772886632596256,-0.0430499990211309,0.00943211763273364
1492637941.2,40.44582114879,-79.9490330516568,5.92000007629395,-0.0962066650390625,-0.750045776367188,0.4215087890625,-0.221303093947296,0.0248411676999321,-0.0012636699372426
1492637941.4,40.4458144094089,-79.9491069817083,6.6399998664856,0.208145141601562,-0.710617065429688,0.275955200195312,0.13842552082403,-0.266815984344532,0.0884691461479963
1492637941.6,40.4458144094089,-79.9491069817083,6.6399998664856,0.083160400390625,-0.888702392578125,0.372451782226562,-0.169601549808933,-0.237149967697703,0.123622606220933
1492637941.8,40.4458144094089,-79.9491069817083,6.6399998664856,0.2255859375,-1.12350463867188,0.410995483398438,-0.0239269044977079,0.102274973238967,0.01441808782558
1492637942.0,40.4458144094089,-79.9491069817083,6.6399998664856,-0.23443603515625,-0.673843383789062,0.336715698242188,0.0606239327384548,0.204872455285943,-0.192892757754439
1492637942.2,40.4458066712818,-79.9491918678615,7.44000005722046,-0.272811889648438,-1.04963684082031,0.35986328125,-0.0592345615977604,-0.133634760339086,0.0530491036499424
1492637942.4,40.4458066712818,-79.9491918678615,7.44000005722046,0.023040771484375,-1.01571655273438,0.228866577148438,0.0208810471589843,0.0456005083970998,-0.0222943867494893
1492637942.6,40.4458066712818,-79.9491918678615,7.44000005722046,0.105575561523438,-1.02888488769531,0.277847290039062,-0.0637600712381321,-0.0474583295735391,-0.0357153870629437
1492637942.8,40.4458066712818,-79.9491918678615,7.44000005722046,0.015777587890625,-0.941360473632812,0.259658813476562,-0.0663209669423523,-0.0346708952834146,0.00260909891995063
1492637943.0,40.4458066712818,-79.9491918678615,7.44000005722046,-0.1634521484375,-1.00090026855469,0.17584228515625,-0.000472444777380057,-0.120177274718698,0.123986127709729
1492637943.2,40.445798612535,-79.9492802711671,7.76000022888184,-0.09332275390625,-1.03126525878906,0.16436767578125,0.178993453709207,-0.127759028026044,-0.0756713255296205
1492637943.4,40.445798612535,-79.9492802711671,7.76000022888184,0.108474731445312,-0.912216186523438,0.23468017578125,-0.0186032454786395,-0.120096314621559,-0.106501942521141
1492637943.6,40.445798612535,-79.9492802711671,7.76000022888184,-0.137008666992188,-1.08633422851562,0.239334106445312,0.119871011193339,-0.290093876484587,0.108597317666815
1492637943.8,40.445798612535,-79.9492802711671,7.76000022888184,-0.185028076171875,-1.06277465820312,0.191802978515625,0.0762241977719209,-0.227057652430739,0.0642729960640813
1492637944.0,40.445798612535,-79.9492802711671,7.76000022888184,-0.300582885742188,-0.800643920898438,0.113113403320312,0.0991066104900998,-0.399512779347692,0.165176441341658
1492637944.2,40.4457902064466,-79.9493724847607,7.53000020980835,0.642379760742188,-0.580276489257812,0.1312255859375,-0.220420256045934,0.6034765640697,-0.13815707418615
1492637944.4,40.4457902064466,-79.9493724847607,7.53000020980835,-0.02423095703125,-0.52349853515625,-0.409622192382812,0.0454654861298328,-0.621471010923147,0.228106671584121
1492637944.6,40.4457902064466,-79.9493724847607,7.53000020980835,0.368667602539062,-0.847503662109375,0.224349975585938,-0.0748851603758291,0.208960940191432,-0.0940665781271248
1492637944.8,40.4457902064466,-79.9493724847607,7.53000020980835,0.241165161132812,-0.838790893554688,0.23260498046875,-0.0959734014676215,0.152713646388414,-0.139984535326162
1492637945.0,40.4457902064466,-79.9493724847607,7.53000020980835,0.159896850585938,-0.85101318359375,0.203872680664062,-0.0312860175379239,-0.0678757203867405,-0.00760865123435638
1492637945.2,40.4457902064466,-79.9493724847607,7.53000020980835,0.386611938476562,-0.98699951171875,0.183868408203125,-0.0925333962875662,0.213338111759087,-0.0473451452272107
1492637945.4,40.4457823575155,-79.9494585864177,7.15000009536743,-0.096160888671875,-1.07183837890625,0.29559326171875,0.0523239248851138,0.0113847473439797,0.150842509406524
1492637945.6,40.4457823575155,-79.9494585864177,7.15000009536743,-0.263107299804688,-0.932998657226562,0.24267578125,0.0541543155023253,-0.0992725254260117,0.0349294882252613
1492637945.8,40.4457823575155,-79.9494585864177,7.15000009536743,0.351547241210938,-1.1480712890625,0.113494873046875,-0.084327930652923,0.163276808536104,-0.129230424528313
1492637946.0,40.4457823575155,-79.9494585864177,7.15000009536743,0.09710693359375,-0.649642944335938,0.202621459960938,-0.198297643186755,0.100239519217819,0.148047255526377
1492637946.2,40.4457823575155,-79.9494585864177,7.15000009536743,0.131637573242188,-0.916366577148438,0.19512939453125,-0.116556707216735,0.098609664630691,-0.0664868818782642
1492637946.4,40.4457748738587,-79.9495406810676,7.03000020980835,-0.112838745117188,-1.28582763671875,0.096099853515625,0.135670214360234,-0.0391972038721132,-0.129654133457745
1492637946.6,40.4457748738587,-79.9495406810676,7.03000020980835,0.094207763671875,-0.724395751953125,0.151138305664062,0.00659318791070917,0.0903538652514453,-0.120647855283315
1492637946.8,40.4457748738587,-79.9495406810676,7.03000020980835,0.157699584960938,-1.00923156738281,0.187942504882812,-0.0371745330241981,0.0683122124894045,-0.0474703137984444
1492637947.0,40.4457748738587,-79.9495406810676,7.03000020980835,-0.227920532226562,-0.833206176757812,0.05889892578125,0.0176764654192919,0.241325537970838,-0.14757933812285
1492637947.2,40.4457677138066,-79.9496192258205,6.57999992370605,-0.0322265625,-1.21060180664062,0.08990478515625,0.0876827146780959,0.111113205948613,-0.0431037948751505
1492637947.4,40.4457677138066,-79.9496192258205,6.57999992370605,-0.149200439453125,-0.9061279296875,0.248687744140625,-0.106980778885137,0.0996112795166698,-0.0653252110107717
1492637947.6,40.4457677138066,-79.9496192258205,6.57999992370605,-0.0179595947265625,-1.10008239746094,0.187164306640625,0.127348102269845,-0.146528188440596,0.185070787316767
1492637947.8,40.4457677138066,-79.9496192258205,6.57999992370605,0.344345092773438,-0.950942993164062,0.205413818359375,-0.131659760074683,-0.282047401567022,0.282992823754
1492637948.0,40.4457677138066,-79.9496192258205,6.57999992370605,0.0279388427734375,-0.888336181640625,0.329681396484375,-0.154931260628123,-0.102163386789293,0.0594516092266019
1492637948.2,40.4457611233733,-79.949691521936,5.75,0.094818115234375,-1.0294189453125,0.263595581054688,0.018620023393507,-0.0798881747996519,0.0739655708514247
1492637948.4,40.4457611233733,-79.949691521936,5.75,0.0855255126953125,-0.907333374023438,0.402481079101562,-0.0136071552736509,0.0468934731063332,0.00826938150080504
1492637948.6,40.4457611233733,-79.949691521936,5.75,0.102035522460938,-1.0645751953125,0.339950561523438,-0.0330311870002528,0.0619286153564846,0.11252068658472
1492637948.8,40.4457611233733,-79.949691521936,5.75,0.12432861328125,-0.810226440429688,0.268875122070312,0.0824924800296404,-0.0707415480357748,0.00315957431727001
1492637949.0,40.4457611233733,-79.949691521936,5.75,0.149749755859375,-1.00357055664062,0.162704467773438,-0.176311384175388,-0.0307728263958656,-0.0507715682857066
1492637949.2,40.4457543816821,-79.9497654773284,6.15999984741211,0.26959228515625,-1.04112243652344,0.108108520507812,-0.283541168622447,0.162458419133123,-0.0470370174890885
1492637949.4,40.4457543816821,-79.9497654773284,6.15999984741211,-0.3187255859375,-1.27162170410156,0.195816040039062,0.022419022688505,0.174293773333544,-0.064193101231379
1492637949.6,40.4457543816821,-79.9497654773284,6.15999984741211,0.20037841796875,-0.866897583007812,0.2916259765625,0.00706749690085228,0.0201585315552458,-0.0383633681348094
1492637949.8,40.4457543816821,-79.9497654773284,6.15999984741211,0.192306518554688,-0.911468505859375,0.3255615234375,-0.170521938281665,0.312770426850503,-0.052665075820753
1492637950.0,40.4457543816821,-79.9497654773284,6.15999984741211,-0.082550048828125,-0.789947509765625,0.448562622070312,-0.187148052967029,0.1554420549252,-0.090812994223375
1492637950.2,40.4457543816821,-79.9497654773284,6.15999984741211,0.0784759521484375,-1.15882873535156,0.411239624023438,-0.0169654014082408,0.0745514662912422,-0.11978206161293
1492637950.4,40.4457489272455,-79.9498253117219,6.59000015258789,0.520645141601562,-0.784439086914062,-0.071685791015625,-0.0473318294217603,0.0439048737310463,-0.0965571663785669
1492637950.6,40.4457489272455,-79.9498253117219,6.59000015258789,0.17041015625,-0.80401611328125,0.265899658203125,-0.14656467374753,0.267915869874734,-0.193044291620465
1492637950.8,40.4457489272455,-79.9498253117219,6.59000015258789,0.167770385742188,-1.02549743652344,0.295974731445312,-0.0920327220026313,0.123968817162644,-0.132406510444342
1492637951.0,40.4457489272455,-79.9498253117219,6.59000015258789,0.10467529296875,-0.841629028320312,0.418365478515625,-0.125223698668289,0.0242009437738771,-0.0962375870477574
1492637951.2,40.4457489272455,-79.9498253117219,6.59000015258789,0.0739898681640625,-0.928482055664062,0.164901733398438,-0.0224493827249319,0.00119842249053566,-0.0706030636590907
1492637951.4,40.4457494133773,-79.9498199789248,7.21999979019165,0.089111328125,-0.904739379882812,0.276077270507812,-0.0741634437204176,-0.181408940817909,0.0284966226121749
1492637951.6,40.4457494133773,-79.9498199789248,7.21999979019165,0.027191162109375,-0.916091918945312,0.271713256835938,0.0796809808668438,0.0537258128829315,-0.0345079098247017
1492637951.8,40.4457494133773,-79.9498199789248,7.21999979019165,0.0803985595703125,-0.93310546875,0.325531005859375,-0.0459544425059713,-0.0550049291544966,0.0593794375610607
