timestamp,latitude,longitude,speed,accelerometerX,accelerometerY,accelerometerZ,gyroX,gyroY,gyroZ
1492638042.3,40.4462849349616,-79.9488921117904,0.0,0.1204833984375,-0.901504516601562,0.230484008789062,-0.00927552376063698,-0.0169518192866814,0.0457959844211116
1492638042.5,40.4462849349616,-79.9488921117904,0.0,0.109207153320312,-0.942184448242188,0.238632202148438,-0.0100752710359878,-0.00312015953313684,0.0340237471385253
1492638042.7,40.4462849349616,-79.9488921117904,0.0,0.109786987304688,-0.943679809570312,0.250625610351562,-0.019963588163452,0.00438196525761638,-0.017275127043017
1492638042.9,40.4462849349616,-79.9488921117904,0.0,0.107757568359375,-0.941146850585938,0.293289184570312,-0.00424294824871424,0.00215502995409212,-4.9002164057458e-05
1492638043.1,40.4462849349616,-79.9488921117904,0.0,0.119644165039062,-0.937530517578125,0.348785400390625,0.00329140079122893,0.00316889538108529,-0.00530554952365586
1492638043.3,40.4462849349616,-79.9488921117904,0.0,0.114105224609375,-0.90582275390625,0.412490844726562,-0.00491619537228627,0.0191758251130065,-0.019291672620425
1492638043.5,40.4462849349616,-79.9488921117904,0.0,0.119598388671875,-0.910140991210938,0.420578002929688,-0.0029878004269599,0.013846573455649,-0.00752982166609004
1492638043.7,40.4462849349616,-79.9488921117904,0.0,0.117538452148438,-0.907699584960938,0.41815185546875,-0.0157525978478187,0.02137612880563,-0.00448130116627633
1492638043.9,40.4462849349616,-79.9488921117904,0.0,0.132217407226562,-0.899444580078125,0.45294189453125,-0.0166309083753268,0.0501025822198787,-0.00243199870746036
1492638044.1,40.4462849547178,-79.9488921145194,0.0,0.0555572509765625,-0.931137084960938,0.411224365234375,0.00255370516927698,-0.00532818639292153,0.0437546714455659
1492638044.3,40.4462849547178,-79.9488921145194,0.0,0.10235595703125,-0.930343627929688,0.389053344726562,-0.0198317616894931,0.0277834280722517,-0.0141355264339226
1492638044.5,40.4462920284035,-79.9488930916201,1.74000000953674,0.169662475585938,-0.8726806640625,0.507522583007812,-0.016064986643685,0.0532837281419784,-0.0418843334120032
1492638044.7,40.4462920284035,-79.9488930916201,1.74000000953674,0.1033935546875,-0.916717529296875,0.422958374023438,-0.0267754215996567,-0.00514309669716102,0.00826884886858703
1492638044.9,40.4462920284035,-79.9488930916201,1.74000000953674,0.0621185302734375,-0.874069213867188,0.442886352539062,-0.000705205056652982,0.0127661290014038,-0.0192320178120072
1492638045.1,40.4462920284035,-79.9488930916201,1.74000000953674,0.0633392333984375,-0.94757080078125,0.466140747070312,0.00393135840117497,-0.020234165330204,0.0128870365148934
1492638045.3,40.4462920284035,-79.9488930916201,1.74000000953674,0.140625,-0.892684936523438,0.453353881835938,0.0288897051890706,-0.0352828897019148,0.0483664675052561
1492638045.5,40.4462920284035,-79.9488930916201,1.74000000953674,0.0997467041015625,-0.872711181640625,0.378311157226562,0.0348298860004923,-0.0214991668479917,0.0110742227608765
1492638045.7,40.4462920284035,-79.9488930916201,1.74000000953674,0.140213012695312,-0.878402709960938,0.430328369140625,0.00141893222879422,0.0510496023035109,0.00201521399686296
1492638045.9,40.446319063535,-79.9488968260304,3.73000001907349,0.0992889404296875,-0.873748779296875,0.4593505859375,-0.0500330737154277,0.026920563879066,0.0132790538273531
1492638046.1,40.446319063535,-79.9488968260304,3.73000001907349,0.105575561523438,-0.913589477539062,0.4168701171875,-0.0353460066197497,0.0672400238345386,-0.0261245450292413
1492638046.3,40.4463632136931,-79.9489029245695,5.67000007629395,0.0796356201171875,-0.938858032226562,0.333724975585938,-0.0357433502543895,-0.0103985787923234,0.038044587752327
1492638046.5,40.4463632136931,-79.9489029245695,5.67000007629395,0.0569915771484375,-0.848098754882812,0.313156127929688,-0.0679950300035761,0.00256808623916341,-0.0102987102514454
1492638046.7,40.4463632136931,-79.9489029245695,5.67000007629395,0.131683349609375,-0.970809936523438,0.40960693359375,-0.0339515754729842,-0.00722728656625704,-0.0131235252196925
1492638046.9,40.4463632136931,-79.9489029245695,5.67000007629395,0.0986785888671875,-0.917678833007812,0.331817626953125,-0.0156553924680308,0.00116193718360157,-0.0225537786396631
1492638047.1,40.4463632136931,-79.9489029245695,5.67000007629395,0.146728515625,-0.972549438476562,0.359222412109375,0.0118111194345014,0.0339515754729842,-0.0660719613804299
1492638047.3,40.4463832949637,-79.9489056984307,5.6100001335144,0.058807373046875,-0.951644897460938,0.3095703125,-0.0139413819904558,-0.0307587116420882,-0.0096592852737174
1492638047.5,40.4463832949637,-79.9489056984307,5.6100001335144,0.09735107421875,-0.9600830078125,0.201339721679688,0.0162559352938437,-0.0011728561440709,-0.0211548201190444
1492638047.7,40.4463832949637,-79.9489056984307,5.6100001335144,0.102874755859375,-0.965362548828125,0.214401245117188,-0.019895677555655,0.0309760255870386,-0.0077471356110405
1492638047.9,40.4463832949637,-79.9489056984307,5.6100001335144,0.157485961914062,-0.936187744140625,0.216339111328125,0.00363787804904824,-0.107448962604773,0.0642873771339678
1492638048.1,40.4463832949637,-79.9489056984307,5.6100001335144,0.021820068359375,-0.924346923828125,0.259597778320312,0.0192631767967611,-0.0703255622735044,0.032365130411624
1492638048.3,40.446485975745,-79.9489237606849,7.6100001335144,0.0839691162109375,-0.9739990234375,0.255966186523438,-0.036935913790527,-0.0391122490333397,0.0317091938351375
1492638048.5,40.446485975745,-79.9489237606849,7.6100001335144,0.172409057617188,-0.90087890625,0.182266235351562,-0.030684143131566,0.0629621881755443,0.0197814279448906
1492638048.7,40.446485975745,-79.9489237606849,7.6100001335144,0.10791015625,-0.9647216796875,0.184478759765625,-0.0613642915214968,0.0386917358972162,-0.00819161719697473
1492638048.9,40.446485975745,-79.9489237606849,7.6100001335144,0.0632476806640625,-0.943405151367188,0.176025390625,0.0420340030652657,-0.0449469686655943,0.0165395619499371
1492638049.1,40.446485975745,-79.9489237606849,7.6100001335144,0.075531005859375,-0.953109741210938,0.148391723632812,-0.0316210432030558,0.00977619804557188,-0.0184746147979887
1492638049.3,40.4465521834928,-79.9489354661486,7.15000009536743,0.10205078125,-0.938201904296875,0.079010009765625,-0.0180530363974291,-0.0573165529806854,0.0426116427057038
1492638049.5,40.4465521834928,-79.9489354661486,7.15000009536743,0.121841430664062,-1.0252685546875,0.0430908203125,-0.0578025798796248,0.0758976942222772,-0.0146484512598718
1492638049.7,40.4465521834928,-79.9489354661486,7.15000009536743,0.0046539306640625,-0.95513916015625,-0.070709228515625,-0.0462148996605811,-0.0103325323972894,0.0251426375353291
1492638049.9,40.4465521834928,-79.9489354661486,7.15000009536743,0.0979766845703125,-1.08221435546875,-0.0924835205078125,-0.0191593135142481,0.0724512974556057,-0.0387668370399564
1492638050.1,40.4465521834928,-79.9489354661486,7.15000009536743,0.047637939453125,-1.04594421386719,-0.115127563476562,0.00962652839230942,-6.31169178348779e-05,-0.00309991950885223
1492638050.3,40.4466064449285,-79.9489450595162,5.44000005722046,0.0767822265625,-1.02009582519531,-0.100296020507812,-0.011897139537711,-0.0148138335635658,0.00524749261189213
1492638050.5,40.4466064449285,-79.9489450595162,5.44000005722046,0.0398406982421875,-1.05433654785156,-0.1348876953125,0.000589357549234535,-0.0340402587372838,0.0160870908807326
1492638050.7,40.4466064449285,-79.9489450595162,5.44000005722046,0.0549774169921875,-1.00508117675781,-0.0444793701171875,-0.0246140000589484,-0.000902278977318846,0.00828003414516536
1492638050.9,40.4466064449285,-79.9489450595162,5.44000005722046,0.081268310546875,-1.03758239746094,-0.068145751953125,0.00409780596930492,-2.47673981377369e-05,0.0117703730698232
1492638051.1,40.4466064449285,-79.9489450595162,5.44000005722046,0.0707550048828125,-1.00265502929688,-0.0417938232421875,-0.0158751032579623,0.0128678617550449,-0.000195742340120824
1492638051.3,40.4466373751018,-79.94895052794,2.1800000667572,0.0848541259765625,-0.997970581054688,-0.0294952392578125,-0.0170263877972036,0.00330205343558925,0.000883370533579283
1492638051.5,40.4466373751018,-79.94895052794,2.1800000667572,0.08734130859375,-0.989532470703125,0.10235595703125,-0.00321416911961663,0.00321257122296259,0.00315744378839794
1492638051.7,40.4466373751018,-79.94895052794,2.1800000667572,0.06732177734375,-0.96954345703125,0.102127075195312,-0.0130217924660514,-0.0169334434751598,0.00844009012667912
1492638051.9,40.4466373751018,-79.94895052794,2.1800000667572,0.0910186767578125,-0.983383178710938,0.117019653320312,-0.0149421979281076,0.00116140455138356,0.00304266154541553
1492638052.1,40.4466373751018,-79.94895052794,2.1800000667572,0.0653228759765625,-0.975936889648438,0.1231689453125,-0.000322242491899588,-0.0233980007052182,0.0107192233875689
1492638052.3,40.4466454453599,-79.9489519547536,0.219999998807907,0.0912628173828125,-0.944625854492188,0.26507568359375,-0.00530501689143784,-0.00528477686715324,-0.0043055325343311
1492638052.5,40.4466454453599,-79.9489519547536,0.219999998807907,0.082275390625,-0.936233520507812,0.227294921875,-0.0158498032276066,0.00648453093823394,-0.00551008029537394
1492638052.7,40.4466454453599,-79.9489519547536,0.219999998807907,0.0985107421875,-0.956527709960938,0.236846923828125,-0.0159190454159486,0.00116673087356371,-0.00336463772120611
1492638052.9,40.4466454453599,-79.9489519547536,0.219999998807907,0.090972900390625,-0.956634521484375,0.226913452148438,-0.0117440077750314,-0.00417849975033432,-0.000109455920802257
1492638053.1,40.4466454453599,-79.9489519547536,0.219999998807907,0.0901947021484375,-0.950607299804688,0.233627319335938,-0.0128167290621153,-0.00523524207087777,-0.000117711720181502
1492638053.3,40.4466451750135,-79.9489519069566,0.0,0.0881805419921875,-0.955062866210938,0.218292236328125,-0.0170756562773701,-0.00520754519554094,-0.000161387562058802
1492638053.5,40.4466451750135,-79.9489519069566,0.0,0.0970458984375,-0.950637817382812,0.234130859375,-0.0159869560237457,-0.00202346979624221,-0.000158458084859715
1492638053.7,40.4466451750135,-79.9489519069566,0.0,0.09368896484375,-0.956649780273438,0.2276611328125,-0.0107019128404834,-0.00524882419243717,0.000970189585115866
1492638053.9,40.4466451750135,-79.9489519069566,0.0,0.090667724609375,-0.949676513671875,0.229537963867188,-0.0170689983746449,-0.0062714780510276,-0.00122478778532744
1492638054.1,40.4466451750135,-79.9489519069566,0.0,0.0956573486328125,-0.94818115234375,0.229339599609375,-0.0138588239966633,-0.00416491762877492,-0.00119735722609963
1492638054.3,40.4466451866326,-79.9489519090108,0.0,0.0921783447265625,-0.954574584960938,0.22930908203125,-0.0149688295390084,-0.00628479385647799,0.000929176904328646
1492638054.5,40.4466451866326,-79.9489519090108,0.0,0.0932464599609375,-0.950637817382812,0.233001708984375,-0.0170676667940998,-0.00414387865616329,-0.000164050723148881
1492638054.7,40.4466451866326,-79.9489519090108,0.0,0.0959320068359375,-0.9560546875,0.22998046875,-0.0160016034097411,-0.0020232034801332,0.000907605299499004
1492638054.9,40.4466451866326,-79.9489519090108,0.0,0.091033935546875,-0.946884155273438,0.225677490234375,-0.0149315452837473,-0.00522165994931836,-0.00120561302547887
1492638055.1,40.4466451866326,-79.9489519090108,0.0,0.0979461669921875,-0.952438354492188,0.2259521484375,-0.013949371473726,-0.00841851852184948,0.00307754895569557
1492638055.3,40.4466451983871,-79.948951911089,0.0,0.0861663818359375,-0.955215454101562,0.227767944335938,-0.0181776723364448,-0.00626375488386637,0.00196248340727939
1492638055.5,40.4466451983871,-79.948951911089,0.0,0.0992889404296875,-0.952255249023438,0.230560302734375,-0.0127940921928497,-0.00417184184760913,-0.0011864382656303
1492638055.7,40.4466451983871,-79.948951911089,0.0,0.089935302734375,-0.9456787109375,0.225601196289062,-0.0149674979584633,-0.00415719446161369,0.00198991396650721
1492638055.9,40.4466451983871,-79.948951911089,0.0,0.0947418212890625,-0.951858520507812,0.230010986328125,-0.0159882876042907,-0.00415106919110651,-0.00121919514703828
1492638056.1,40.4466451983871,-79.948951911089,0.0,0.0939788818359375,-0.954513549804688,0.231979370117188,-0.0159802981210205,-0.00308740265172886,-0.00122185830812835
1492638056.3,40.4466452100673,-79.9489519131541,0.0,0.094482421875,-0.9527587890625,0.224761962890625,-0.0160029349902861,-0.0041508028749975,-0.000153131762679556
1492638056.5,40.4466452100673,-79.9489519131541,0.0,0.0937652587890625,-0.948074340820312,0.231765747070312,-0.013880129285384,-0.00310071845717926,0.000932106381527733
1492638056.7,40.4466452100673,-79.9489519131541,0.0,0.0920257568359375,-0.953201293945312,0.227218627929688,-0.0138894503491993,-0.00629198439142121,-0.000125967519560748
1492638056.9,40.4466452100673,-79.9489519131541,0.0,0.0927581787109375,-0.9534912109375,0.229888916015625,-0.0138654818993885,-0.00310098477328826,-0.000133957002830986
1492638057.1,40.4466452100673,-79.9489519131541,0.0,0.092437744140625,-0.951263427734375,0.228927612304688,-0.0128007500955749,-0.00310790899212247,-0.000123038042361661
1492638057.3,40.4466452217591,-79.9489519152212,0.0,0.0937042236328125,-0.952072143554688,0.230575561523438,-0.0149089084144816,-0.00415825972604972,-0.00227433957092767
1492638057.5,40.4466452217591,-79.9489519152212,0.0,0.094512939453125,-0.954315185546875,0.230316162109375,-0.0160109244735564,-0.00521446941437515,-0.000150468601589477
1492638057.7,40.4466452217591,-79.9489519152212,0.0,0.091827392578125,-0.953338623046875,0.221908569335938,-0.0170610088913746,-0.00520781151164995,-0.00122745094641752
1492638057.9,40.4466452217591,-79.9489519152212,0.0,0.0937957763671875,-0.95257568359375,0.221649169921875,-0.0149674979584633,-0.00415719446161369,0.00198991396650721
1492638058.1,40.4466452217591,-79.9489519152212,0.0,0.09429931640625,-0.950607299804688,0.23223876953125,-0.0138495029328481,-0.00097365169453297,-0.000139283325011144
1492638058.3,40.4466442010835,-79.9489517347667,0.0,0.0938873291015625,-0.950942993164062,0.226333618164062,-0.0149528505724679,-0.0041574607777227,0.000923850582148488
1492638058.5,40.4466442010835,-79.9489517347667,0.0,0.0942840576171875,-0.953765869140625,0.22705078125,-0.014922224219932,-0.00203039401507641,-0.00014753912439039
1492638058.7,40.4466442010835,-79.9489517347667,0.0,0.093902587890625,-0.95147705078125,0.225418090820312,-0.0138654818993885,-0.00310098477328826,-0.000133957002830986
1492638058.9,40.4466442010835,-79.9489517347667,0.0,0.0923309326171875,-0.951751708984375,0.229476928710938,-0.0181097617286478,-0.00307355421406045,-0.001243696229067
1492638059.1,40.4466442010835,-79.9489517347667,0.0,0.094879150390625,-0.953216552734375,0.229324340820312,-0.0138734713826588,-0.00416465131266591,-0.000131293841740906
1492638059.3,40.4466452322987,-79.9489519170845,0.0,0.09295654296875,-0.948760986328125,0.23583984375,-0.0170676667940998,-0.00414387865616329,-0.000164050723148881
1492638059.5,40.4466452322987,-79.9489519170845,0.0,0.0968170166015625,-0.95684814453125,0.22845458984375,-0.0117440077750314,-0.00417849975033432,-0.000109455920802257
1492638059.7,40.4466452322987,-79.9489519170845,0.0,0.09442138671875,-0.95263671875,0.228836059570312,-0.0160109244735564,-0.00521446941437515,-0.000150468601589477
1492638059.9,40.4466452322987,-79.9489519170845,0.0,0.093536376953125,-0.949554443359375,0.228988647460938,-0.0159816297015655,-0.00521500204659316,-0.00228259537030692
1492638060.1,40.4466452322987,-79.9489519170845,0.0,0.09747314453125,-0.953506469726562,0.227371215820312,-0.0117213709057658,-0.00311509952706569,-0.00117818246625105
1492638060.3,40.4466452440166,-79.9489519191563,0.0,0.090240478515625,-0.953903198242188,0.225112915039062,-0.0149461926697427,-0.00522139363320935,-0.000139549641120152
1492638060.5,40.4466452440166,-79.9489519191563,0.0,0.0950469970703125,-0.947555541992188,0.231231689453125,-0.0160029349902861,-0.0041508028749975,-0.000153131762679556
1492638060.7,40.4466452440166,-79.9489519191563,0.0,0.09210205078125,-0.951766967773438,0.227935791015625,-0.0181403880811837,-0.00520062097670674,-0.000172306522528127
1492638060.9,40.4466452440166,-79.9489519191563,0.0,0.09466552734375,-0.951202392578125,0.226974487304688,-0.0160095928930113,-0.00308687001951085,0.000910268460589084
1492638061.1,40.4466452440166,-79.9489519191563,0.0,0.0912322998046875,-0.947433471679688,0.232177734375,-0.0138588239966633,-0.00416491762877492,-0.00119735722609963
1492638061.3,40.44664544611,-79.9489519548862,0.0,0.095550537109375,-0.952484130859375,0.232894897460938,-0.0170436983442891,-0.000952879038030351,-0.000172040206419119
1492638061.5,40.44664544611,-79.9489519548862,0.0,0.093658447265625,-0.9537353515625,0.2294921875,-0.0149302137032022,-0.00309406055445406,-0.000144875963300311
1492638061.7,40.44664544611,-79.9489519548862,0.0,0.0964813232421875,-0.949264526367188,0.233184814453125,-0.0117360182917612,-0.00311483321095668,-0.000112119081892336
1492638061.9,40.44664544611,-79.9489519548862,0.0,0.0935821533203125,-0.951263427734375,0.223831176757812,-0.0160082613124663,-0.000959270624646542,0.00197100552276764
1492638062.1,40.44664544611,-79.9489519548862,0.0,0.092041015625,-0.95343017578125,0.229995727539062,-0.0128087395788451,-0.00417157553150012,-0.000120374881271582
1492638062.3,40.4466454578313,-79.9489519569585,0.0,0.092254638671875,-0.951675415039062,0.223419189453125,-0.0191744935324615,-0.00306662999522624,-0.00125461518953633
1492638062.5,40.4466454578313,-79.9489519569585,0.0,0.0923614501953125,-0.953109741210938,0.2283935546875,-0.013881460865929,-0.00522831785204356,-0.000128630680650827
1492638062.7,40.4466454578313,-79.9489519569585,0.0,0.09442138671875,-0.954208374023438,0.227310180664062,-0.0138748029632038,-0.00629225070753022,-0.00119203090391947
1492638062.9,40.4466454578313,-79.9489519569585,0.0,0.095184326171875,-0.952896118164062,0.230255126953125,-0.014923555800477,-0.00415799340994071,-0.00120827618656895
1492638063.1,40.4466454578313,-79.9489519569585,0.0,0.0964202880859375,-0.955368041992188,0.225692749023438,-0.0117440077750314,-0.00417849975033432,-0.000109455920802257
1492638063.3,40.446645469561,-79.9489519590323,0.0,0.092987060546875,-0.951339721679688,0.230514526367188,-0.0138508345133931,-0.00310125108939727,-0.0012000203871897
1492638063.5,40.446645469561,-79.9489519590323,0.0,0.0956878662109375,-0.952102661132812,0.232864379882812,-0.0160095928930113,-0.00308687001951085,0.000910268460589084
1492638063.7,40.446645469561,-79.9489519590323,0.0,0.091278076171875,-0.950790405273438,0.225555419921875,-0.0160095928930113,-0.00308687001951085,0.000910268460589084
1492638063.9,40.446645469561,-79.9489519590323,0.0,0.09185791015625,-0.948959350585938,0.227523803710938,-0.0138508345133931,-0.00310125108939727,-0.0012000203871897
1492638064.1,40.446645469561,-79.9489519590323,0.0,0.093414306640625,-0.952011108398438,0.2322998046875,-0.0159802981210205,-0.00308740265172886,-0.00122185830812835
1492638064.3,40.4466452970685,-79.9489519285358,0.0,0.095458984375,-0.958160400390625,0.224838256835938,-0.0117360182917612,-0.00311483321095668,-0.000112119081892336
1492638064.5,40.4466452970685,-79.9489519285358,0.0,0.0932464599609375,-0.949783325195312,0.225723266601562,-0.0149688295390084,-0.00628479385647799,0.000929176904328646
1492638064.7,40.4466452970685,-79.9489519285358,0.0,0.0928802490234375,-0.949951171875,0.226089477539062,-0.0128007500955749,-0.00310790899212247,-0.000123038042361661
1492638064.9,40.4466452970685,-79.9489519285358,0.0,0.097015380859375,-0.952301025390625,0.224075317382812,-0.0149302137032022,-0.00309406055445406,-0.000144875963300311
1492638065.1,40.4466452970685,-79.9489519285358,0.0,0.093048095703125,-0.95111083984375,0.226638793945312,-0.0138588239966633,-0.00416491762877492,-0.00119735722609963
1492638065.3,40.4466454902649,-79.9489519626927,0.0,0.09613037109375,-0.953353881835938,0.22650146484375,-0.0160095928930113,-0.00308687001951085,0.000910268460589084
1492638065.5,40.4466454902649,-79.9489519626927,0.0,0.09075927734375,-0.956680297851562,0.224090576171875,-0.0148929294479411,-0.00203092664729443,-0.00227966589310783
1492638065.7,40.4466454902649,-79.9489519626927,0.0,0.0954132080078125,-0.9498291015625,0.227096557617188,-0.0170823141800953,-0.00414361234005429,0.000902012661209838
1492638065.9,40.4466454902649,-79.9489519626927,0.0,0.092926025390625,-0.950820922851562,0.2247314453125,-0.0138734713826588,-0.00416465131266591,-0.000131293841740906
1492638066.1,40.4466454902649,-79.9489519626927,0.0,0.09307861328125,-0.953201293945312,0.225265502929688,-0.0160109244735564,-0.00521446941437515,-0.000150468601589477
1492638066.3,40.4466455019854,-79.9489519647649,0.0,0.0946807861328125,-0.954971313476562,0.229598999023438,-0.0149382031864725,-0.00415772709383171,-0.000142212802210231
1492638066.5,40.4466455019854,-79.9489519647649,0.0,0.0919342041015625,-0.939132690429688,0.24066162109375,-0.0192144409488127,-0.00838496269211448,-0.00124129938408593
1492638066.7,40.4466455019854,-79.9489519647649,0.0,0.099578857421875,-0.938613891601562,0.249786376953125,-0.0128087395788451,-0.00417157553150012,-0.000120374881271582
1492638066.9,40.4466455019854,-79.9489519647649,0.0,0.0946502685546875,-0.943313598632812,0.2471923828125,-0.0150447296300756,-0.0105386610656616,0.00413801970176512
1492638067.1,40.4466455019854,-79.9489519647649,0.0,0.0908966064453125,-0.969512939453125,0.167037963867188,-0.0223899942326232,-0.00198165816712796,0.000842091536683055
1492638067.3,40.4466455137006,-79.9489519668361,0.0,0.09014892578125,-0.941909790039062,0.215591430664062,-0.0117213709057658,-0.00311509952706569,-0.00117818246625105
1492638067.5,40.4466455137006,-79.9489519668361,0.0,0.096923828125,-0.944000244140625,0.260848999023438,-0.00640570136996759,-0.00421338716061436,-0.00112092450281435
1492638067.7,40.4466455137006,-79.9489519668361,0.0,0.089874267578125,-0.958969116210938,0.226577758789062,-0.0149848085055488,-0.00841212693523329,0.000934503226508805
1492638067.9,40.4466455137006,-79.9489519668361,0.0,0.0916748046875,-0.952850341796875,0.21710205078125,-0.0160402192455473,-0.00521393678215713,0.00198165816712796
1492638068.1,40.4466455137006,-79.9489519668361,0.0,0.0932769775390625,-0.944580078125,0.238052368164062,-0.0159802981210205,-0.00308740265172886,-0.00122185830812835
1492638068.3,40.4466464237572,-79.9489521277332,0.0,0.0931396484375,-0.960250854492188,0.216156005859375,-0.0170756562773701,-0.00520754519554094,-0.000161387562058802
1492638068.5,40.4466464237572,-79.9489521277332,0.0,0.0928955078125,-0.94830322265625,0.23272705078125,-0.017074324696825,-0.00307994580067664,0.000899349500119759
1492638068.7,40.4466464237572,-79.9489521277332,0.0,0.097442626953125,-0.95135498046875,0.227813720703125,-0.013880129285384,-0.00310071845717926,0.000932106381527733
1492638068.9,40.4466464237572,-79.9489521277332,0.0,0.0910797119140625,-0.952651977539062,0.221267700195312,-0.0128167290621153,-0.00523524207087777,-0.000117711720181502
1492638069.1,40.4466464237572,-79.9489521277332,0.0,0.0944061279296875,-0.950332641601562,0.228561401367188,-0.0138588239966633,-0.00416491762877492,-0.00119735722609963
1492638069.3,40.4466458223188,-79.9489520213995,0.0,0.0922088623046875,-0.953750610351562,0.221603393554688,-0.0149302137032022,-0.00309406055445406,-0.000144875963300311
1492638069.5,40.4466458223188,-79.9489520213995,0.0,0.094635009765625,-0.95147705078125,0.22613525390625,-0.0159802981210205,-0.00308740265172886,-0.00122185830812835
1492638069.7,40.4466458223188,-79.9489520213995,0.0,0.0926361083984375,-0.950531005859375,0.227691650390625,-0.013880129285384,-0.00310071845717926,0.000932106381527733
1492638069.9,40.4466458223188,-79.9489520213995,0.0,0.0923614501953125,-0.950454711914062,0.227279663085938,-0.0149541821530129,-0.006285060172587,-0.000136886480030073
1492638070.1,40.4466458223188,-79.9489520213995,0.0,0.092498779296875,-0.95025634765625,0.227890014648438,-0.0138428450301229,-0.00203758455001963,-0.00120268354827978
1492638070.3,40.446645834035,-79.9489520234709,0.0,0.0966033935546875,-0.954986572265625,0.221725463867188,-0.0149009189312114,-0.00309459318667207,-0.00227700273201775
1492638070.5,40.446645834035,-79.9489520234709,0.0,0.0909576416015625,-0.953964233398438,0.2259521484375,-0.0160109244735564,-0.00521446941437515,-0.000150468601589477
1492638070.7,40.446645834035,-79.9489520234709,0.0,0.0927276611328125,-0.950759887695312,0.23095703125,-0.0149461926697427,-0.00522139363320935,-0.000139549641120152
1492638070.9,40.446645834035,-79.9489520234709,0.0,0.09185791015625,-0.953643798828125,0.2271728515625,-0.0170530194081044,-0.0041441449722723,-0.0012301141075076
1492638071.1,40.446645834035,-79.9489520234709,0.0,0.09417724609375,-0.953140258789062,0.22979736328125,-0.0138588239966633,-0.00416491762877492,-0.00119735722609963
1492638071.3,40.4466450953956,-79.9489518928802,0.0,0.093963623046875,-0.951202392578125,0.228683471679688,-0.0159802981210205,-0.00308740265172886,-0.00122185830812835
1492638071.5,40.4466450953956,-79.9489518928802,0.0,0.090789794921875,-0.952316284179688,0.225006103515625,-0.0160189139568266,-0.0062781359537528,-0.000147805440499398
1492638071.7,40.4466450953956,-79.9489518928802,0.0,0.0921783447265625,-0.955764770507812,0.227294921875,-0.0149461926697427,-0.00522139363320935,-0.000139549641120152
1492638071.9,40.4466450953956,-79.9489518928802,0.0,0.097381591796875,-0.949859619140625,0.228363037109375,-0.0159736402182953,-0.00415133550721552,-0.00228525853139699
1492638072.1,40.4466450953956,-79.9489518928802,0.0,0.0904998779296875,-0.954696655273438,0.222015380859375,-0.0181017722453776,-0.0020098876746828,-0.00124635939015708
1492638072.3,40.4466451070937,-79.9489518949484,0.0,0.09161376953125,-0.948257446289062,0.2313232421875,-0.0221316676068855,0.012907010223069,-0.00985582656216524
1492638072.5,40.4466451070937,-79.9489518949484,0.0,0.0894012451171875,-0.95806884765625,0.224868774414062,-0.0118718395073552,-0.00949523455056852,0.00630024019080045
1492638072.7,40.4466451070937,-79.9489518949484,0.0,0.0904693603515625,-0.953018188476562,0.2352294921875,-0.0169624719310417,0.000109455920802257,-0.00550502028930279
1492638072.9,40.4466451070937,-79.9489518949484,0.0,0.0927734375,-0.958786010742188,0.228683471679688,-0.0160189139568266,-0.0062781359537528,-0.000147805440499398
1492638073.1,40.4466451070937,-79.9489518949484,0.0,0.0953826904296875,-0.948959350585938,0.222274780273438,-0.0128020816761199,-0.00523550838698677,-0.00118377510454022
1492638073.3,40.4466451187963,-79.9489518970174,0.0,0.09014892578125,-0.95440673828125,0.227203369140625,-0.0170903036633655,-0.00520727887943193,0.000904675822299917
1492638073.5,40.4466451187963,-79.9489518970174,0.0,0.0940704345703125,-0.952239990234375,0.229598999023438,-0.02023256743355,-0.00412363863187869,-0.00232893437327429
1492638073.7,40.4466451187963,-79.9489518970174,0.0,0.093505859375,-0.948150634765625,0.2283935546875,-0.0149382031864725,-0.00415772709383171,-0.000142212802210231
1492638073.9,40.4466451187963,-79.9489518970174,0.0,0.094757080078125,-0.955535888671875,0.224533081054688,-0.0117733025470223,-0.00417796711811631,0.00202267084791518
1492638074.1,40.4466451187963,-79.9489518970174,0.0,0.0908660888671875,-0.945022583007812,0.229049682617188,-0.00963851261721478,-0.00738334780613568,-7.96285165933692e-05
1492638074.3,40.4466451304946,-79.9489518990857,0.0,0.0924072265625,-0.9544677734375,0.222808837890625,-0.0170237246361135,-0.00414467760449032,-0.00336224087622504
1492638074.5,40.4466451304946,-79.9489518990857,0.0,0.096466064453125,-0.954864501953125,0.225357055664062,-0.0138881187686542,-0.0041643849965569,0.000934769542617813
1492638074.7,40.4466451304946,-79.9489518990857,0.0,0.0946044921875,-0.951141357421875,0.231491088867188,-0.0149382031864725,-0.00415772709383171,-0.000142212802210231
1492638074.9,40.4466451304946,-79.9489518990857,0.0,0.0943603515625,-0.954910278320312,0.223358154296875,-0.0128087395788451,-0.00417157553150012,-0.000120374881271582
1492638075.1,40.4466451304946,-79.9489518990857,0.0,0.090972900390625,-0.955337524414062,0.225372314453125,-0.0149155663172068,-0.00309432687056307,-0.00121093934765903
1492638075.3,40.4466453803964,-79.9489519432681,0.0,0.094146728515625,-0.955535888671875,0.230438232421875,-0.0159802981210205,-0.00308740265172886,-0.00122185830812835
1492638075.5,40.4466453803964,-79.9489519432681,0.0,0.094482421875,-0.953903198242188,0.226593017578125,-0.014923555800477,-0.00415799340994071,-0.00120827618656895
1492638075.7,40.4466453803964,-79.9489519432681,0.0,0.0921173095703125,-0.9534912109375,0.226715087890625,-0.0106499811992269,-0.00418595660138655,-0.00223066372905037
1492638075.9,40.4466453803964,-79.9489519432681,0.0,0.0947113037109375,-0.953765869140625,0.23345947265625,-0.0160095928930113,-0.00308687001951085,0.000910268460589084
1492638076.1,40.4466453803964,-79.9489519432681,0.0,0.0918731689453125,-0.956207275390625,0.2266845703125,-0.0149155663172068,-0.00309432687056307,-0.00121093934765903
1492638076.3,40.4466453921048,-79.9489519453381,0.0,0.0948028564453125,-0.95306396484375,0.229705810546875,-0.0170676667940998,-0.00414387865616329,-0.000164050723148881
1492638076.5,40.4466453921048,-79.9489519453381,0.0,0.09210205078125,-0.952392578125,0.226364135742188,-0.014923555800477,-0.00415799340994071,-0.00120827618656895
1492638076.7,40.4466453921048,-79.9489519453381,0.0,0.092681884765625,-0.954345703125,0.226150512695312,-0.0160029349902861,-0.0041508028749975,-0.000153131762679556
1492638076.9,40.4466453921048,-79.9489519453381,0.0,0.0930023193359375,-0.952804565429688,0.226531982421875,-0.0159962770875609,-0.00521473573048416,-0.0012165319859482
1492638077.1,40.4466453921048,-79.9489519453381,0.0,0.0940093994140625,-0.952362060546875,0.22869873046875,-0.0170530194081044,-0.0041441449722723,-0.0012301141075076
1492638077.3,40.4466454038064,-79.9489519474069,0.0,0.0941314697265625,-0.953353881835938,0.226638793945312,-0.0170903036633655,-0.00520727887943193,0.000904675822299917
1492638077.5,40.4466454038064,-79.9489519474069,0.0,0.092529296875,-0.953231811523438,0.227828979492188,-0.0170530194081044,-0.0041441449722723,-0.0012301141075076
1492638077.7,40.4466454038064,-79.9489519474069,0.0,0.092437744140625,-0.952774047851562,0.2265625,-0.0159882876042907,-0.00415106919110651,-0.00121919514703828
1492638077.9,40.4466454038064,-79.9489519474069,0.0,0.093475341796875,-0.952545166015625,0.225021362304688,-0.0149528505724679,-0.0041574607777227,0.000923850582148488
1492638078.1,40.4466454038064,-79.9489519474069,0.0,0.0941925048828125,-0.95367431640625,0.228713989257812,-0.013881460865929,-0.00522831785204356,-0.000128630680650827
1492638078.3,40.4466452897978,-79.9489519272503,0.0,0.0954742431640625,-0.953750610351562,0.232376098632812,-0.0159882876042907,-0.00415106919110651,-0.00121919514703828
1492638078.5,40.4466452897978,-79.9489519272503,0.0,0.0953521728515625,-0.953262329101562,0.227432250976562,-0.014923555800477,-0.00415799340994071,-0.00120827618656895
1492638078.7,40.4466452897978,-79.9489519272503,0.0,0.0951080322265625,-0.951126098632812,0.226837158203125,-0.0170543509886494,-0.00627174436713661,-0.00229085116968616
1492638078.9,40.4466452897978,-79.9489519272503,0.0,0.0947418212890625,-0.952316284179688,0.2265625,-0.0159949455070159,-0.00308713633561985,-0.000155794923769635
1492638079.1,40.4466452897978,-79.9489519272503,0.0,0.0922393798828125,-0.953201293945312,0.228591918945312,-0.0160042665708312,-0.0062784022698618,-0.00121386882485812
1492638079.3,40.4466453014973,-79.9489519293188,0.0,0.09259033203125,-0.954971313476562,0.228607177734375,-0.0138894503491993,-0.00629198439142121,-0.000125967519560748
1492638079.5,40.4466453014973,-79.9489519293188,0.0,0.093597412109375,-0.95196533203125,0.225082397460938,-0.0149461926697427,-0.00522139363320935,-0.000139549641120152
1492638079.7,40.4466453014973,-79.9489519293188,0.0,0.0918426513671875,-0.952011108398438,0.227127075195312,-0.0181550354671792,-0.00520035466059773,0.000893756861830592
1492638079.9,40.4466453014973,-79.9489519293188,0.0,0.09454345703125,-0.953720092773438,0.231842041015625,-0.0149461926697427,-0.00522139363320935,-0.000139549641120152
1492638080.1,40.4466453014973,-79.9489519293188,0.0,0.092864990234375,-0.952239990234375,0.22808837890625,-0.0160189139568266,-0.0062781359537528,-0.000147805440499398
1492638080.3,40.4466453131944,-79.9489519313868,0.0,0.092498779296875,-0.9534912109375,0.226776123046875,-0.0160255718595518,-0.00521420309826614,0.000915594782769242
1492638080.5,40.4466453131944,-79.9489519313868,0.0,0.09130859375,-0.954513549804688,0.229293823242188,-0.0159949455070159,-0.00308713633561985,-0.000155794923769635
1492638080.7,40.4466453131944,-79.9489519313868,0.0,0.09423828125,-0.95281982421875,0.228302001953125,-0.0149528505724679,-0.0041574607777227,0.000923850582148488
1492638080.9,40.4466453131944,-79.9489519313868,0.0,0.09307861328125,-0.9539794921875,0.229995727539062,-0.014923555800477,-0.00415799340994071,-0.00120827618656895
1492638081.1,40.4466453131944,-79.9489519313868,0.0,0.09423828125,-0.954605102539062,0.227874755859375,-0.0149608400557381,-0.00522112731710035,0.000926513743238567
1492638081.3,40.44664532489,-79.9489519334546,0.0,0.0926666259765625,-0.953750610351562,0.231521606445312,-0.018148377564454,-0.00626428751608438,-0.000169643361438047
1492638081.5,40.44664532489,-79.9489519334546,0.0,0.093841552734375,-0.954498291015625,0.229888916015625,-0.0181470459839089,-0.00413668812122008,0.000891093700740513
1492638081.7,40.44664532489,-79.9489519334546,0.0,0.0922088623046875,-0.9564208984375,0.226974487304688,-0.0138588239966633,-0.00416491762877492,-0.00119735722609963
1492638081.9,40.44664532489,-79.9489519334546,0.0,0.0924224853515625,-0.952133178710938,0.22686767578125,-0.0138734713826588,-0.00416465131266591,-0.000131293841740906
1492638082.1,40.44664532489,-79.9489519334546,0.0,0.0952911376953125,-0.954391479492188,0.232254028320312,-0.0149541821530129,-0.006285060172587,-0.000136886480030073
1492638082.3,40.4466453365874,-79.9489519355227,0.0,0.09295654296875,-0.953170776367188,0.231307983398438,-0.0138668134799336,-0.00522858416815257,-0.00119469406500955
1492638082.5,40.4466453365874,-79.9489519355227,0.0,0.0909576416015625,-0.96356201171875,0.222259521484375,-0.0171648721738877,-0.0073335466937512,0.00517425568191495
1492638082.7,40.4466453365874,-79.9489519355227,0.0,0.0942840576171875,-0.957763671875,0.232681274414062,-0.0149448610891977,-0.00309379423834505,0.000921187421058408
1492638082.9,40.4466453365874,-79.9489519355227,0.0,0.099365234375,-0.953170776367188,0.240188598632812,-0.0149248873810221,-0.00628559280480502,-0.00226901324874751
1492638083.1,40.4466453365874,-79.9489519355227,0.0,0.09381103515625,-0.945663452148438,0.242401123046875,-0.0129152660224483,-0.01055250950333,0.00415985762270377
1492638083.3,40.4466453482729,-79.9489519375887,0.0,0.09588623046875,-0.949874877929688,0.250076293945312,-0.0160335613428221,-0.00627786963764379,0.000918257943859321
1492638083.5,40.4466453482729,-79.9489519375887,0.0,0.0959014892578125,-0.951034545898438,0.2459716796875,-0.0191292197939302,-0.000939829548688963,-0.00339206828043393
1492638083.7,40.4466453482729,-79.9489519375887,0.0,0.0925445556640625,-0.950942993164062,0.248123168945312,-0.0149848085055488,-0.00841212693523329,0.000934503226508805
1492638083.9,40.4466453482729,-79.9489519375887,0.0,0.087890625,-0.955154418945312,0.247848510742188,-0.0180711458928417,0.000117179087963486,-0.00231774909669596
1492638084.1,40.4466453482729,-79.9489519375887,0.0,0.0858306884765625,-0.945526123046875,0.246612548828125,-0.0139174135406451,-0.00416385236433889,0.00306689631133525
1492638084.3,40.4466352768634,-79.9489501569735,0.189999997615814,0.09490966796875,-0.9539794921875,0.2515869140625,-0.0117826236108376,-0.00736923305235826,0.0009645969468267
1492638084.5,40.4466352768634,-79.9489501569735,0.189999997615814,0.0950469970703125,-0.940444946289062,0.244796752929688,-0.0117906130941078,-0.00843289959173591,0.000967260107916779
1492638084.7,40.4466352768634,-79.9489501569735,0.189999997615814,0.09344482421875,-0.953170776367188,0.240875244140625,-0.00750904900958742,-0.00739719624380409,-5.77905956547195e-05
1492638084.9,40.4466352768634,-79.9489501569735,0.189999997615814,0.0984039306640625,-0.9547119140625,0.22698974609375,-0.01818433023917,-0.00519982202837971,0.00302588363054803
1492638085.1,40.4466352768634,-79.9489501569735,0.189999997615814,0.094818115234375,-0.957412719726562,0.214019775390625,-0.0172048195902389,-0.0126518793906394,0.00518757148736535
1492638085.3,40.446638550383,-79.9489507357285,0.239999994635582,0.0923614501953125,-0.961837768554688,0.203521728515625,-0.0192637094289792,-0.0051926314934365,0.00408102805443742
1492638085.5,40.446638550383,-79.9489507357285,0.239999994635582,0.08978271484375,-0.964431762695312,0.177703857421875,-0.0170903036633655,-0.00520727887943193,0.000904675822299917
1492638085.7,40.446638550383,-79.9489507357285,0.239999994635582,0.084442138671875,-0.965545654296875,0.1756591796875,-0.0107405286762896,-0.00843955749446111,0.00204424245274482
1492638085.9,40.446638550383,-79.9489507357285,0.239999994635582,0.084503173828125,-0.962753295898438,0.17620849609375,-0.0161094614338893,-0.0105317368468274,0.0041271007412958
1492638086.1,40.446638550383,-79.9489507357285,0.239999994635582,0.092559814453125,-0.945510864257812,0.257354736328125,-0.013881460865929,-0.00522831785204356,-0.000128630680650827
1492638086.3,40.4466390972354,-79.9489508324115,0.0,0.097442626953125,-0.962921142578125,0.218719482421875,-0.0160029349902861,-0.0041508028749975,-0.000153131762679556
1492638086.5,40.4466390972354,-79.9489508324115,0.0,0.091888427734375,-0.950485229492188,0.236175537109375,-0.0160109244735564,-0.00521446941437515,-0.000150468601589477
1492638086.7,40.4466390972354,-79.9489508324115,0.0,0.095245361328125,-0.956344604492188,0.219161987304688,-0.0160029349902861,-0.0041508028749975,-0.000153131762679556
1492638086.9,40.4466390972354,-79.9489508324115,0.0,0.092071533203125,-0.950958251953125,0.234573364257812,-0.0160175823762816,-0.00415053655888849,0.000912931621679163
1492638087.1,40.4466390972354,-79.9489508324115,0.0,0.0961761474609375,-0.956390380859375,0.226974487304688,-0.0181177512119181,-0.0041372207534381,-0.00124103306797692
1492638087.3,40.4466392626588,-79.9489508616582,0.0,0.0857391357421875,-0.956314086914062,0.22625732421875,-0.0128247185453856,-0.00629890861025541,-0.000115048559091423
1492638087.5,40.4466392626588,-79.9489508616582,0.0,0.0946807861328125,-0.948715209960938,0.228912353515625,-0.0160415508260923,-0.00734153617702144,0.000920921104949401
1492638087.7,40.4466392626588,-79.9489508616582,0.0,0.09014892578125,-0.954208374023438,0.226776123046875,-0.0170903036633655,-0.00520727887943193,0.000904675822299917
1492638087.9,40.4466392626588,-79.9489508616582,0.0,0.09466552734375,-0.95501708984375,0.23126220703125,-0.0159882876042907,-0.00415106919110651,-0.00121919514703828
1492638088.1,40.4466392626588,-79.9489508616582,0.0,0.091949462890625,-0.951522827148438,0.2305908203125,-0.0138588239966633,-0.00416491762877492,-0.00119735722609963
1492638088.3,40.4466392740859,-79.9489508636785,0.0,0.0964202880859375,-0.955337524414062,0.228729248046875,-0.0159723086377502,-0.00202373611235121,-0.00122452146921843
1492638088.5,40.4466392740859,-79.9489508636785,0.0,0.09295654296875,-0.952560424804688,0.232376098632812,-0.0149315452837473,-0.00522165994931836,-0.00120561302547887
1492638088.7,40.4466392740859,-79.9489508636785,0.0,0.09423828125,-0.95416259765625,0.227386474609375,-0.0170982931466357,-0.00627094541880958,0.000907338983389996
1492638088.9,40.4466392740859,-79.9489508636785,0.0,0.0922393798828125,-0.951309204101562,0.22845458984375,-0.0160109244735564,-0.00521446941437515,-0.000150468601589477
1492638089.1,40.4466392740859,-79.9489508636785,0.0,0.0950469970703125,-0.95208740234375,0.229766845703125,-0.0149395347670175,-0.00628532648869601,-0.00120294986438879
1492638089.3,40.4466392855152,-79.9489508656992,0.0,0.09368896484375,-0.953765869140625,0.229217529296875,-0.0149541821530129,-0.006285060172587,-0.000136886480030073
1492638089.5,40.4466392855152,-79.9489508656992,0.0,0.0930328369140625,-0.953765869140625,0.232452392578125,-0.0160255718595518,-0.00521420309826614,0.000915594782769242
1492638089.7,40.4466392855152,-79.9489508656992,0.0,0.0959014892578125,-0.952102661132812,0.227874755859375,-0.0138961082519245,-0.00522805153593455,0.000937432703707892
1492638089.9,40.4466392855152,-79.9489508656992,0.0,0.092620849609375,-0.954071044921875,0.229705810546875,-0.0170769878579151,-0.00733514459040525,-0.00122212462423736
1492638090.1,40.4466392855152,-79.9489508656992,0.0,0.0941162109375,-0.951736450195312,0.227752685546875,-0.0202698516888111,-0.00518677253903832,-0.000194144443466776
1492638090.3,40.4466392969434,-79.9489508677197,0.0,0.094757080078125,-0.95587158203125,0.228378295898438,-0.0160189139568266,-0.0062781359537528,-0.000147805440499398
1492638090.5,40.4466392969434,-79.9489508677197,0.0,0.0970916748046875,-0.951797485351562,0.226318359375,-0.0159882876042907,-0.00415106919110651,-0.00121919514703828
1492638090.7,40.4466392969434,-79.9489508677197,0.0,0.0919342041015625,-0.953964233398438,0.229507446289062,-0.0149528505724679,-0.0041574607777227,0.000923850582148488
1492638090.9,40.4466392969434,-79.9489508677197,0.0,0.091278076171875,-0.955337524414062,0.23736572265625,-0.0117453393555765,-0.00630609914519863,-0.00117019298298082
1492638091.1,40.4466392969434,-79.9489508677197,0.0,0.0898284912109375,-0.95294189453125,0.245132446289062,-0.0138202081608572,-0.000974184326750985,-0.00227141009372858
1492638091.3,40.4466393083666,-79.9489508697393,0.0,0.0937042236328125,-0.944198608398438,0.258743286132812,-0.013813550258132,-0.00203811718223764,-0.00333481031699722
1492638091.5,40.4466393083666,-79.9489508697393,0.0,0.092529296875,-0.949386596679688,0.238616943359375,-0.0182016407862556,-0.00945475450199931,0.00197047289054963
1492638091.7,40.4466393083666,-79.9489508697393,0.0,0.093963623046875,-0.944732666015625,0.234970092773438,-0.019258383106799,-0.00838416374378746,0.00195689076899022
1492638091.9,40.4466393083666,-79.9489508697393,0.0,0.098297119140625,-0.947113037109375,0.24346923828125,-0.0171662037544328,-0.0094611460886155,0.00411351861973639
1492638092.1,40.4466393083666,-79.9489508697393,0.0,0.088775634765625,-0.951019287109375,0.256149291992188,-0.0149382031864725,-0.00415772709383171,-0.000142212802210231
1492638092.3,40.446643408373,-79.9489515946163,0.159999996423721,0.0958709716796875,-0.951644897460938,0.242340087890625,-0.00763688074191122,-0.0127139310440383,0.00635190551594799
1492638092.5,40.446643408373,-79.9489515946163,0.159999996423721,0.0948944091796875,-0.951019287109375,0.248367309570312,-0.0150327454051703,-0.0147941261714992,0.00095048219304928
1492638092.7,40.446643408373,-79.9489515946163,0.159999996423721,0.0985260009765625,-0.955886840820312,0.24456787109375,-0.0117280288084909,-0.00205116667157903,-0.000114782242982415
1492638092.9,40.446643408373,-79.9489515946163,0.159999996423721,0.0890960693359375,-0.947097778320312,0.237533569335938,-0.0150207611802649,-0.00734766144752862,0.00413003021849488
1492638093.1,40.446643408373,-79.9489515946163,0.159999996423721,0.0877227783203125,-0.944839477539062,0.23834228515625,-0.00853516497759495,-0.00419953872294595,-0.001142762423753
1492638093.3,40.4466478409772,-79.9489523782963,0.159999996423721,0.0860443115234375,-0.947463989257812,0.239089965820312,-0.0159123875132234,0.000102798018077059,-0.00442803794447475
1492638093.5,40.4466478409772,-79.9489523782963,0.159999996423721,0.102325439453125,-0.9453125,0.238418579101562,-0.0233721680426444,0.00121520040540316,-0.00344107044449138
1492638093.7,40.4466478409772,-79.9489523782963,0.159999996423721,0.084381103515625,-0.95843505859375,0.225143432617188,-0.0222701519835696,0.00227141009372858,-0.00556494141382958
1492638093.9,40.4466478409772,-79.9489523782963,0.159999996423721,0.0795135498046875,-0.966445922851562,0.20880126953125,-0.0160482087288175,-0.00627760332153478,0.00198432132821804
1492638094.1,40.4466478409772,-79.9489523782963,0.159999996423721,0.089019775390625,-0.9600830078125,0.195846557617188,-0.0127794448068542,-0.00417210816371813,-0.00225250164998902
1492638094.3,40.4466515164774,-79.9489530281211,0.340000003576279,0.0904388427734375,-0.963912963867188,0.180877685546875,-0.0170157351528433,-0.00308101106511267,-0.00336490403731512
1492638094.5,40.4466515164774,-79.9489530281211,0.340000003576279,0.082061767578125,-0.966079711914062,0.16729736328125,-0.0202844990748065,-0.00518650622292932,0.000871918940891943
1492638094.7,40.4466515164774,-79.9489530281211,0.340000003576279,0.094879150390625,-0.9637451171875,0.179168701171875,-0.0170303825388387,-0.00308074474900366,-0.0022988406529564
1492638094.9,40.4466515164774,-79.9489530281211,0.340000003576279,0.0889739990234375,-0.938369750976562,0.256103515625,-0.0128766501866421,-0.00736177620130604,0.00308580475507481
1492638095.1,40.4466515164774,-79.9489530281211,0.340000003576279,0.0939483642578125,-0.963607788085938,0.224319458007812,-0.0116760971672344,-0.000988299080528405,-0.00331563555714865
1492638095.3,40.4466522870891,-79.9489531643645,0.0,0.0883331298828125,-0.95294189453125,0.220138549804688,-0.0160122560541014,-0.00734206880923945,-0.00121120566376804
1492638095.5,40.4466522870891,-79.9489531643645,0.0,0.0986175537109375,-0.942916870117188,0.23736572265625,-0.0149461926697427,-0.00522139363320935,-0.000139549641120152
1492638095.7,40.4466522870891,-79.9489531643645,0.0,0.0926971435546875,-0.96142578125,0.21563720703125,-0.0138734713826588,-0.00416465131266591,-0.000131293841740906
1492638095.9,40.4466522870891,-79.9489531643645,0.0,0.0966033935546875,-0.949905395507812,0.234542846679688,-0.0149395347670175,-0.00628532648869601,-0.00120294986438879
1492638096.1,40.4466522870891,-79.9489531643645,0.0,0.08819580078125,-0.942733764648438,0.248382568359375,-0.0107192233875689,-0.00950375666605677,-8.52211548825356e-05
1492638096.3,40.4466522991577,-79.9489531664982,0.0,0.0924072265625,-0.953964233398438,0.243057250976562,-0.0233868154286398,0.00121546672151216,-0.00237500706013266
1492638096.5,40.4466522991577,-79.9489531664982,0.0,0.10198974609375,-0.927505493164062,0.338531494140625,0.00318487434762576,-0.00321203859074457,-0.00102531701968051
1492638096.7,40.4466522991577,-79.9489531664982,0.0,0.110382080078125,-0.936355590820312,0.340576171875,-0.0158231716167058,0.00222879951628731,-0.0097636811884485
1492638096.9,40.4466522991577,-79.9489531664982,0.0,0.0989532470703125,-0.931533813476562,0.329360961914062,0.00400326375060711,-0.0223630963056134,0.00649598253092128
1492638097.1,40.4466522991577,-79.9489531664982,0.0,0.106475830078125,-0.926513671875,0.346847534179688,-0.0202898253969867,-0.00199497397257836,0.00299605622633914
1492638097.3,40.4466599477577,-79.948954518763,0.589999973773956,0.110137939453125,-0.913925170898438,0.36077880859375,-0.0255855212246093,-0.00408848490548965,-0.00025140240690348
1492638097.5,40.4466599477577,-79.948954518763,0.589999973773956,0.116165161132812,-0.914840698242188,0.394149780273438,-0.006385727661792,-0.00740518572707433,-0.00431112517262027
1492638097.7,40.4466599477577,-79.948954518763,0.589999973773956,0.153228759765625,-0.90582275390625,0.344253540039062,-0.0209010208671599,-0.0307067800008316,0.0318516729534567
1492638097.9,40.4466599477577,-79.948954518763,0.589999973773956,0.1671142578125,-0.90118408203125,0.403793334960938,-0.00781877464436364,0.0521694615418892,-0.0226051776487016
1492638098.1,40.4466599477577,-79.948954518763,0.589999973773956,0.154647827148438,-0.888381958007812,0.346359252929688,-0.0118087225895203,0.0724046921365293,-0.0312279606261601
1492638098.3,40.4466754246895,-79.9489572550691,2.10999989509583,0.11944580078125,-0.927139282226562,0.32781982421875,-0.00511726403458726,0.0138604218933174,-0.00755165958702869
1492638098.5,40.4466754246895,-79.9489572550691,2.10999989509583,0.0950164794921875,-0.914459228515625,0.400665283203125,-0.00138031639298807,-0.0127530795120624,0.0160119897379924
1492638098.7,40.4466754246895,-79.9489572550691,2.10999989509583,0.1029052734375,-0.919235229492188,0.30694580078125,-0.0224272784878843,0.0203590675853288,0.0157110525348135
1492638098.9,40.4466754246895,-79.9489572550691,2.10999989509583,0.120285034179688,-0.881393432617188,0.359786987304688,0.0166767147460762,0.0392443418234077,-0.0297845273153372
1492638099.1,40.4466754246895,-79.9489572550691,2.10999989509583,0.0982666015625,-0.948135375976562,0.390594482421875,-0.0641755243681844,-0.0208554808125195,0.00899269605287056
1492638099.3,40.446703945978,-79.9489622976044,3.63000011444092,0.12091064453125,-0.901840209960938,0.342056274414062,-0.00537692224086998,0.0319499435976806,0.0211867780521254
1492638099.5,40.446703945978,-79.9489622976044,3.63000011444092,0.0897674560546875,-0.875595092773438,0.360427856445312,-0.0102438491329898,0.0128276480225847,-0.0225284786093073
1492638099.7,40.446703945978,-79.9489622976044,3.63000011444092,0.098785400390625,-0.900711059570312,0.32830810546875,-0.00828882257676262,0.0266465246028968,-0.00228605747972402
1492638099.9,40.446703945978,-79.9489622976044,3.63000011444092,0.051849365234375,-0.952011108398438,0.2850341796875,-0.0562915022771139,-0.0155802913252906,0.0581056476116758
1492638100.1,40.446703945978,-79.9489622976044,3.63000011444092,0.06231689453125,-0.921493530273438,0.314834594726562,-0.0204922256398327,0.00226395324267636,0.0200424177317183
1492638100.3,40.4467432388029,-79.9489692445366,4.71000003814697,0.115447998046875,-0.954757690429688,0.366363525390625,-0.0517790421260836,0.0194807570578206,-0.0187060434967166
1492638100.5,40.4467432388029,-79.9489692445366,4.71000003814697,0.0551910400390625,-0.966384887695312,0.31854248046875,-0.00454921177407335,-0.00741370784256258,0.0170319804354928
1492638100.7,40.4467432388029,-79.9489692445366,4.71000003814697,0.0392608642578125,-0.847091674804688,0.347747802734375,0.0301453856430429,0.0168210580771585,-0.0146617670653222
1492638100.9,40.4467432388029,-79.9489692445366,4.71000003814697,0.0821533203125,-0.947616577148438,0.3623046875,-0.0142543034185401,0.00754420273597647,0.0339534396857472
1492638101.1,40.4467432388029,-79.9489692445366,4.71000003814697,0.013763427734375,-0.930694580078125,0.348770141601562,-0.0426252248272632,-0.0220624254185434,-0.0099754024951098
1492638101.3,40.4467911396383,-79.9489777133565,5.69000005722046,0.145904541015625,-0.903594970703125,0.367416381835938,-0.0542861419762842,0.0875729924411846,-0.0317020033001942
1492638101.5,40.4467911396383,-79.9489777133565,5.69000005722046,0.0875701904296875,-0.744049072265625,0.431549072265625,-0.073975158231349,-0.0399378289712643,0.0142726792300617
1492638101.7,40.4467911396383,-79.9489777133565,5.69000005722046,0.175918579101562,-1.01274108886719,0.279190063476562,-0.162850436445582,0.193571064884082,-0.133311186266641
1492638101.9,40.4467911396383,-79.9489777133565,5.69000005722046,0.113784790039062,-0.919647216796875,0.3486328125,-0.0203926234150637,0.10010795905997,-0.0889628962140969
1492638102.1,40.4467911396383,-79.9489777133565,5.69000005722046,0.167190551757812,-0.657424926757812,0.481353759765625,-0.097770236255098,0.0623347474227217,0.0190961965964132
1492638102.3,40.4468484085052,-79.948987838435,6.78999996185303,0.422210693359375,-1.07554626464844,0.305572509765625,0.0343467885787519,-0.193803026215028,0.107473197370693
1492638102.5,40.4468484085052,-79.948987838435,6.78999996185303,0.115478515625,-0.92413330078125,0.463241577148438,0.0293653457597587,0.223177426722493,-0.07810891687537
1492638102.7,40.4468484085052,-79.948987838435,6.78999996185303,0.172500610351562,-0.887741088867188,0.393661499023438,-0.065775285234995,0.167418556663395,-0.0821377469724419
1492638102.9,40.4468484085052,-79.948987838435,6.78999996185303,0.150787353515625,-0.817352294921875,0.354736328125,-0.102085089853244,0.054916778522415,0.0190711628821664
1492638103.1,40.4468484085052,-79.948987838435,6.78999996185303,0.105606079101562,-0.901153564453125,0.342636108398438,-0.0297254051391374,0.0735828746027803,-0.0442090067275334
1492638103.3,40.4469205037662,-79.9490005848051,8.27999973297119,0.350662231445312,-0.876724243164062,0.365570068359375,-0.0866701808316477,-0.0334857885983293,-0.065840000049484
1492638103.5,40.4469205037662,-79.9490005848051,8.27999973297119,0.269454956054688,-0.834121704101562,0.339675903320312,-0.0431000664496244,0.0311243636597561,-0.0239783035067464
1492638103.7,40.4469205037662,-79.9490005848051,8.27999973297119,0.1494140625,-0.825180053710938,0.408462524414062,-0.0181190827924631,-0.0062648201483024,-0.00230177013015549
1492638103.9,40.4469205037662,-79.9490005848051,8.27999973297119,0.2857666015625,-0.857437133789062,0.411331176757812,0.012131497713638,0.0265115023356298,-0.0159374212274702
1492638104.1,40.4469205037662,-79.9490005848051,8.27999973297119,0.256683349609375,-1.02001953125,0.33258056640625,0.00115794244196645,0.370135715679137,-0.192861865085794
1492638104.3,40.4470019719876,-79.9490217252813,9.85999965667725,0.59814453125,-0.884994506835938,0.38580322265625,-0.280258556262816,0.56448229307265,-0.299667407971204
1492638104.5,40.4470019719876,-79.9490217252813,9.85999965667725,0.275909423828125,-0.984786987304688,0.404022216796875,0.0392912134585931,0.417761558085242,-0.152078216152321
1492638104.7,40.4470019719876,-79.9490217252813,9.85999965667725,0.145721435546875,-0.743789672851562,0.11383056640625,-0.100730339806721,-0.162075722884478,0.112405638025628
1492638104.9,40.4470019719876,-79.9490217252813,9.85999965667725,0.24163818359375,-0.983413696289062,0.21875,-0.088965559375187,0.103750364482871,-0.0566217342522837
1492638105.1,40.4470019719876,-79.9490217252813,9.85999965667725,0.541915893554688,-0.983612060546875,0.24053955078125,-0.0799411717053445,0.541901616505977,-0.319948711252703
1492638105.3,40.4470929563516,-79.9490586848885,10.8999996185303,0.271926879882812,-0.913314819335938,0.268951416015625,-0.243700278714862,-0.00478703205941743,0.0625563224254163
1492638105.5,40.4470929563516,-79.9490586848885,10.8999996185303,-0.0796966552734375,-0.738998413085938,0.190994262695312,-0.143986201180115,-0.15754382165749,0.0852957233930578
1492638105.7,40.4470929563516,-79.9490586848885,10.8999996185303,0.0552978515625,-0.796966552734375,0.41851806640625,0.0723024267506703,0.0910063397185148,-0.0197526658051177
1492638105.9,40.4470929563516,-79.9490586848885,10.8999996185303,-0.0600433349609375,-1.05314636230469,0.352279663085938,0.0516706514697174,-0.103507484191456,0.0583716974045748
1492638106.1,40.4470929563516,-79.9490586848885,10.8999996185303,0.142776489257812,-0.898712158203125,0.251327514648438,-0.0673244460410941,-0.0538136971989041,-0.0122787705219193
1492638106.3,40.4471869577428,-79.9491100838061,11.7799997329712,0.1466064453125,-0.950439453125,0.283828735351562,-0.00174756630731,-0.152080879313411,0.121922976813245
1492638106.5,40.4471869577428,-79.9491100838061,11.7799997329712,0.113311767578125,-0.93463134765625,0.140396118164062,0.0157091883220504,0.0658447937394461,-0.0223995816125475
1492638106.7,40.4471869577428,-79.9491100838061,11.7799997329712,0.0896453857421875,-0.929718017578125,0.269058227539062,0.0110680974903693,-0.0064597635400962,-0.0339888597282453
1492638106.9,40.4471869577428,-79.9491100838061,11.7799997329712,0.0821685791015625,-0.875717163085938,0.233963012695312,-0.107623133340064,-0.0418515765305952,-0.0180533027135381
1492638107.1,40.4471869577428,-79.9491100838061,11.7799997329712,0.042083740234375,-1.05520629882812,0.266311645507812,-0.0604154072251016,0.00570875211269386,-0.0176927107019414
1492638107.3,40.4472850823668,-79.9491716313398,12.4200000762939,-0.0086669921875,-0.944000244140625,0.215316772460938,-0.0980277639325087,-0.0727522346587846,0.0418326680868557
1492638107.5,40.4472850823668,-79.9491716313398,12.4200000762939,0.012725830078125,-0.976654052734375,0.27410888671875,-0.1028701897426,0.0219404526406178,-0.0192354799214243
1492638107.7,40.4472850823668,-79.9491716313398,12.4200000762939,0.116668701171875,-0.969161987304688,0.25445556640625,-0.0163709838529351,-0.116895727623502,0.0427826176476869
1492638107.9,40.4472850823668,-79.9491716313398,12.4200000762939,0.087005615234375,-1.01731872558594,0.272842407226562,-0.0402523482960026,0.130019519159304,-0.0999055588171235
1492638108.1,40.4472850823668,-79.9491716313398,12.4200000762939,0.0572662353515625,-0.941970825195312,0.19635009765625,-0.0953816470734059,-0.0195848866564427,0.0331928408784206
1492638108.3,40.447387067646,-79.9492368276165,12.6499996185303,0.044708251953125,-0.94561767578125,0.24798583984375,-0.0286718586119021,-0.0189630385419092,-0.0162378257984311
1492638108.5,40.447387067646,-79.9492368276165,12.6499996185303,0.0402679443359375,-0.962753295898438,0.260574340820312,-0.0293829226229532,-0.055119711397479,0.0158346232093931
1492638108.7,40.447387067646,-79.9492368276165,12.6499996185303,0.053863525390625,-0.948287963867188,0.249649047851562,-0.040467265395972,0.0513137878836468,-0.0495925868711286
1492638108.9,40.447387067646,-79.9492368276165,12.6499996185303,0.13336181640625,-1.00920104980469,0.221084594726562,0.012770656375257,0.0999028956560335,-0.022517559648838
1492638109.1,40.447387067646,-79.9492368276165,12.6499996185303,0.06683349609375,-1.00741577148438,0.177078247070312,-0.0421959232595425,0.130042422344678,-0.0359526747160697
1492638109.3,40.4474934907085,-79.9493048608412,13.039999961853,0.0652618408203125,-0.937088012695312,0.246124267578125,-0.0244781788433543,0.0288819820219093,0.0146018459407955
1492638109.5,40.4474934907085,-79.9493048608412,13.039999961853,0.0106201171875,-0.95904541015625,0.215774536132812,-0.000936900071489876,0.0170255888488766,-5.35295379105927e-05
1492638109.7,40.4474934907085,-79.9493048608412,13.039999961853,0.016082763671875,-0.971633911132812,0.253829956054688,0.00445866429701066,0.0148620367792962,-0.00638998871953612
1492638109.9,40.4474934907085,-79.9493048608412,13.039999961853,0.0605010986328125,-0.94232177734375,0.196075439453125,-0.0549639164737094,0.0226927956485652,-0.0176807264770361
1492638110.1,40.4474934907085,-79.9493048608412,13.039999961853,0.0168609619140625,-0.933792114257812,0.267364501953125,0.053270678652637,-0.0439506801017957,0.0518370990378473
1492638110.3,40.4475999474127,-79.9493729155722,12.9399995803833,0.0067138671875,-0.942626953125,0.209823608398438,-0.10045417000168,-0.102519717743145,0.0472157155982328
1492638110.5,40.4475999474127,-79.9493729155722,12.9399995803833,0.0737762451171875,-0.979995727539062,0.275665283203125,0.0430100516047797,0.00503443972468579,-0.0272942053800041
1492638110.7,40.4475999474127,-79.9493729155722,12.9399995803833,0.0633392333984375,-0.90667724609375,0.283782958984375,-0.0194634465107351,-0.0434862248076859,-0.00221947845247204
1492638110.9,40.4475999474127,-79.9493729155722,12.9399995803833,0.0823211669921875,-0.975723266601562,0.261795043945312,-0.0685218032671938,0.0546920077264123,-0.0211007579489158
1492638111.1,40.4475999474127,-79.9493729155722,12.9399995803833,0.0153045654296875,-0.974090576171875,0.24993896484375,0.0440561412809628,0.022048843296984,-0.0166652631533888
1492638111.3,40.4477028382456,-79.9494386907434,12.9700002670288,0.0093536376953125,-1.01632690429688,0.165557861328125,-0.00325278495542278,0.0117237677507468,0.0105985821901883
1492638111.5,40.4477028382456,-79.9494386907434,12.9700002670288,-0.00323486328125,-0.935897827148438,0.315155029296875,0.0616005139101868,0.0506517260366531,-0.0378837328224862
1492638111.7,40.4477028382456,-79.9494386907434,12.9700002670288,0.0712738037109375,-0.99273681640625,0.225601196289062,0.00212200675657514,0.0393348893004703,-0.055522913986517
1492638111.9,40.4477028382456,-79.9494386907434,12.9700002670288,0.147247314453125,-1.0098876953125,0.196578979492188,-0.0351990001275773,0.119351694780773,-0.0859655084072128
1492638112.1,40.4477028382456,-79.9494386907434,12.9700002670288,0.136917114257812,-0.973297119140625,0.209213256835938,-0.0654120300623082,0.00894129704383203,0.0376909199595644
1492638112.3,40.4478078141105,-79.9495048071179,13.0900001525879,0.11260986328125,-0.817474365234375,0.214874267578125,0.0226043787003746,0.0051691956758438,-0.0147089050166166
1492638112.5,40.4478078141105,-79.9495048071179,13.0900001525879,-0.073883056640625,-1.02401733398438,0.224136352539062,0.046146722736675,-0.18217886068905,0.107564011163864
1492638112.7,40.4478078141105,-79.9495048071179,13.0900001525879,-0.0383758544921875,-0.9403076171875,0.31121826171875,0.0167843064541154,-0.106462527737008,0.115597702908197
1492638112.9,40.4478078141105,-79.9495048071179,13.0900001525879,-0.0359649658203125,-0.921112060546875,0.206130981445312,-0.0380760130531899,0.00875514208363549,-0.0142732118622797
1492638113.1,40.4478078141105,-79.9495048071179,13.0900001525879,0.0303802490234375,-0.927841186523438,0.167526245117188,-0.031525435719922,0.206554774146546,-0.0733583701228867
1492638113.3,40.4479180328386,-79.9495737854848,13.0699996948242,-0.320327758789062,-0.934722900390625,0.213699340820312,-0.0296479071514161,0.222477814304129,-0.201325923662284
1492638113.5,40.4479180328386,-79.9495737854848,13.0699996948242,-0.037139892578125,-0.970565795898438,0.0932464599609375,0.0799763254317336,-0.15474936672567,0.0630585946070052
1492638113.7,40.4479180328386,-79.9495737854848,13.0699996948242,-0.0439453125,-1.10330200195312,0.215728759765625,0.121329624522375,-0.0848171533451706,0.0366461618639264
1492638113.9,40.4479180328386,-79.9495737854848,13.0699996948242,-0.0387725830078125,-1.15292358398438,0.173553466796875,0.134942106118206,-0.0763925095528139,0.0580880707484813
1492638114.1,40.4479180328386,-79.9495737854848,13.0699996948242,0.04791259765625,-0.68133544921875,0.290481567382812,-0.110610134818697,-0.0662898079575984,0.0310250277510961
1492638114.3,40.4480200730284,-79.9496376454637,12.8199996948242,0.233322143554688,-1.24526977539062,0.207595825195312,-0.236392298367575,-0.0729168180141515,0.0361516128494986
1492638114.5,40.4480200730284,-79.9496376454637,12.8199996948242,-0.20062255859375,-0.949783325195312,0.225234985351562,0.114115920077677,-0.253881809878344,0.159623217836624
1492638114.7,40.4480200730284,-79.9496376454637,12.8199996948242,0.0079193115234375,-0.966888427734375,0.28814697265625,0.202892661331578,-0.154477990610591,0.108031129619064
1492638114.9,40.4480200730284,-79.9496376454637,12.8199996948242,-0.0781402587890625,-0.978485107421875,0.146881103515625,-0.0276875542730088,-0.0583171026022281,0.0457142253756462
1492638115.1,40.4480200730284,-79.9496376454637,12.8199996948242,-0.0135345458984375,-1.06507873535156,0.263320922851562,-0.0338304016433856,0.0459611004086965,0.00699852102861923
1492638115.3,40.4481236715903,-79.9497024807212,12.8000001907349,0.126602172851562,-1.03230285644531,0.183074951171875,0.0107410613085076,0.083957751261402,-0.0384904009188062
1492638115.5,40.4481236715903,-79.9497024807212,12.8000001907349,0.061859130859375,-1.02981567382812,0.222335815429688,-0.0228629716422213,0.0703412749239359,-0.0803816585496436
1492638115.7,40.4481236715903,-79.9497024807212,12.8000001907349,-0.0455322265625,-0.930328369140625,0.14239501953125,-0.125620509670711,0.0688882542331887,-0.0430462705956048
1492638115.9,40.4481236715903,-79.9497024807212,12.8000001907349,0.182098388671875,-1.02052307128906,0.206817626953125,-0.0654077690045641,0.169539498155534,-0.107728594519231
1492638116.1,40.4481236715903,-79.9497024807212,12.8000001907349,0.34967041015625,-0.908966064453125,0.133926391601562,-0.198840661733022,0.123615948318208,-0.0322088028556363
1492638116.3,40.4482331214232,-79.9497709778891,13.0299997329712,0.05780029296875,-0.97271728515625,0.183120727539062,-0.000750478795184329,0.0106393285548666,-0.0170945647211096
1492638116.5,40.4482331214232,-79.9497709778891,13.0299997329712,0.0208740234375,-0.828643798828125,0.252960205078125,-0.0639275840706981,-0.125088676401022,0.0892302775875409
1492638116.7,40.4482331214232,-79.9497709778891,13.0299997329712,0.0662384033203125,-1.07470703125,0.291946411132812,-0.0432084571059906,-0.0646042933036872,0.00932026486695031
1492638116.9,40.4482331214232,-79.9497709778891,13.0299997329712,-0.0124053955078125,-0.90362548828125,0.312469482421875,0.0218885209993613,0.0594241786673741,-0.0105913916552451
1492638117.1,40.4482331214232,-79.9497709778891,13.0299997329712,0.05792236328125,-0.914077758789062,0.293914794921875,-0.0818179013255234,0.00904063295249199,-0.00832450893536968
1492638117.3,40.4483422865333,-79.9498392968686,13.2299995422363,-0.0330963134765625,-1.01202392578125,0.249649047851562,0.0104001766889774,0.0541772186877,-0.0298873253334143
1492638117.5,40.4483422865333,-79.9498392968686,13.2299995422363,0.0299224853515625,-1.00146484375,0.206024169921875,-0.0358924872754339,-0.0614588337401946,0.0211154053349113
1492638117.7,40.4483422865333,-79.9498392968686,13.2299995422363,0.0281219482421875,-0.969879150390625,0.244186401367188,-0.0760340480700893,-0.0441805109038695,0.0067990502629723
1492638117.9,40.4483422865333,-79.9498392968686,13.2299995422363,-0.0502471923828125,-0.914535522460938,0.27508544921875,-0.0526307210426909,0.00884568956069819,-0.0400115985334595
1492638118.1,40.4483422865333,-79.9498392968686,13.2299995422363,0.168807983398438,-0.970291137695312,0.137832641601562,0.0270039208211855,-0.0554858960473649,0.0196115182673435
1492638118.3,40.4484501440311,-79.9499067975028,13.5500001907349,0.03448486328125,-0.9158935546875,0.15264892578125,-0.0288809167574733,-0.0136401784711678,0.0018719359302167
1492638118.5,40.4484501440311,-79.9499067975028,13.5500001907349,-0.00604248046875,-0.966033935546875,0.2161865234375,-0.0072059812775364,-0.0776018510038189,0.0171859111464993
1492638118.7,40.4484501440311,-79.9499067975028,13.5500001907349,0.125656127929688,-0.913436889648438,0.220840454101562,-0.00509808927473869,0.0840592176989341,-0.0482487557850746
1492638118.9,40.4484501440311,-79.9499067975028,13.5500001907349,0.1956787109375,-0.92266845703125,0.184326171875,-0.121836424077817,0.110345416606343,-0.0633725812995256
1492638119.1,40.4484501440311,-79.9499067975028,13.5500001907349,0.141464233398438,-1.00581359863281,0.130294799804688,0.0495262741599856,0.0337134888715311,-0.020904216660468
1492638119.3,40.4485611555048,-79.9499761192981,13.6099996566772,0.0864410400390625,-1.15660095214844,0.119140625,-0.0383764176241508,0.0715130658035708,-0.0357625250142381
1492638119.5,40.4485611555048,-79.9499761192981,13.6099996566772,0.042938232421875,-0.934417724609375,0.086517333984375,-0.0314876188324429,-0.101901598054138,0.0660458624017471
1492638119.7,40.4485611555048,-79.9499761192981,13.6099996566772,0.239822387695312,-1.08293151855469,0.039306640625,0.052735116957422,0.0336924498989195,-0.0219375231634187
1492638119.9,40.4485611555048,-79.9499761192981,13.6099996566772,0.0440521240234375,-0.940994262695312,0.287887573242188,0.0596910274086,-0.0280356294274822,0.0582590456904644
1492638120.1,40.4485611555048,-79.9499761192981,13.6099996566772,0.0347900390625,-0.924087524414062,0.156494140625,-0.0248542171892735,-0.0381188899467402,0.0830086006488978
1492638120.3,40.4486669866615,-79.9500420493966,13.2299995422363,-0.0496978759765625,-0.967330932617188,0.133041381835938,-0.0458820045243211,0.00668240380722682,0.0101751395768657
1492638120.5,40.4486669866615,-79.9500420493966,13.2299995422363,-0.0169525146484375,-1.01210021972656,0.200439453125,-0.00998818566834218,0.0234611176230531,-0.0353478708325127
1492638120.7,40.4486669866615,-79.9500420493966,13.2299995422363,0.125350952148438,-0.961593627929688,0.176315307617188,-0.0457017085185228,0.0534744104760281,-0.0549828249174489
1492638120.9,40.4486669866615,-79.9500420493966,13.2299995422363,0.103927612304688,-1.01853942871094,0.141769409179688,-0.0341158925122421,-0.0401900303264948,0.0583961984866035
1492638121.1,40.4486669866615,-79.9500420493966,13.2299995422363,0.0089111328125,-0.98193359375,0.208602905273438,-0.0407234614928377,-0.0114340158241462,0.0124071348864612
1492638121.3,40.4487774284318,-79.9501108517893,12.9700002670288,0.0025482177734375,-0.991943359375,0.131683349609375,0.0844187444460947,0.00689412511388812,-0.0172791217846521
1492638121.5,40.4487774284318,-79.9501108517893,12.9700002670288,0.0055389404296875,-0.978439331054688,0.135208129882812,-0.100245910804436,0.000653806047614453,0.0107003149438294
1492638121.7,40.4487774284318,-79.9501108517893,12.9700002670288,-0.0174560546875,-0.96551513671875,0.202392578125,0.00757429645629436,-0.0170716615357349,-0.0180040342333717
1492638121.9,40.4487774284318,-79.9501108517893,12.9700002670288,0.0129547119140625,-0.92889404296875,0.243408203125,-0.0792721856395166,-0.0441589392990399,0.00996448353464048
1492638122.1,40.4487774284318,-79.9501108517893,12.9700002670288,-0.0994720458984375,-0.932708740234375,0.288009643554688,0.0493550329018935,0.0805118871269485,-0.0604766599301734
1492638122.3,40.4488786831976,-79.9501739309135,12.8199996948242,0.090606689453125,-0.847244262695312,0.165618896484375,0.0480455565939015,-0.0503007214049806,0.041137849358454
1492638122.5,40.4488786831976,-79.9501739309135,12.8199996948242,0.051910400390625,-0.941314697265625,0.217300415039062,-0.0793502162594559,0.034552118298797,-0.0190272207241801
1492638122.7,40.4488786831976,-79.9501739309135,12.8199996948242,-0.0046539306640625,-1.03498840332031,0.202011108398438,-0.100743655612171,0.131474404062814,-0.114389426721628
1492638122.9,40.4488786831976,-79.9501739309135,12.8199996948242,0.10882568359375,-1.044189453125,0.170562744140625,0.0371622824831837,0.0614481810958343,-0.036029373755464
1492638123.1,40.4488786831976,-79.9501739309135,12.8199996948242,0.0848846435546875,-0.846923828125,0.176223754882812,0.0129650671348328,0.106282231731209,-0.0331941724589656
1492638123.3,40.4489803137335,-79.950237244133,12.6199998855591,0.01666259765625,-1.03529357910156,0.200881958007812,-0.0658341410950858,-0.045305430148319,0.0388928045595172
1492638123.5,40.4489803137335,-79.950237244133,12.6199998855591,0.0405426025390625,-0.96051025390625,0.121795654296875,-0.0325970917425699,-0.0402052103447082,0.0253591525319525
1492638123.7,40.4489803137335,-79.950237244133,12.6199998855591,0.037445068359375,-1.033447265625,0.0712890625,-0.0262846010107551,-0.0679044825265134,0.0158993380238821
1492638123.9,40.4489803137335,-79.950237244133,12.6199998855591,-0.033203125,-0.9927978515625,0.0148773193359375,0.0177675455285726,0.00627121173491859,0.0278872913547647
1492638124.1,40.4489803137335,-79.950237244133,12.6199998855591,0.0374908447265625,-0.998443603515625,0.0815887451171875,-0.0199782355494474,0.0160841614035336,-0.00984197812449683
1492638124.3,40.4490858446526,-79.9503029871911,12.0500001907349,0.071014404296875,-0.973800659179688,0.10150146484375,0.041977544050156,-0.127910828208179,0.0530043625436291
1492638124.5,40.4490858446526,-79.9503029871911,12.0500001907349,0.0161895751953125,-1.06942749023438,0.0640716552734375,-0.0875748566539477,-0.0909027427521107,0.0462513849675151
1492638124.7,40.4490858446526,-79.9503029871911,12.0500001907349,0.0803375244140625,-1.03289794921875,0.021240234375,-0.00979963386316457,-0.0541881376481693,-0.0138212734252932
1492638124.9,40.4490858446526,-79.9503029871911,12.0500001907349,-0.0024566650390625,-1.12042236328125,-0.049285888671875,0.351254968814911,0.049843722961923,0.0397189171296598
1492638125.1,40.4490858446526,-79.9503029871911,12.0500001907349,0.0326385498046875,-1.01467895507812,0.0917510986328125,0.000644484983799176,-0.256328189655691,0.201116332884495
1492638125.3,40.4491765956957,-79.9503595227654,10.6300001144409,0.0400848388671875,-0.959625244140625,0.1309814453125,0.0802804584282206,-0.00370605497295427,0.0456124926220051
1492638125.5,40.4491765956957,-79.9503595227654,10.6300001144409,0.0190887451171875,-1.02412414550781,0.120086669921875,-0.137593549299489,0.0381186236306312,-0.0409570207204376
1492638125.7,40.4491765956957,-79.9503595227654,10.6300001144409,-0.0095977783203125,-1.02886962890625,0.0538177490234375,0.00505521238118841,0.0201702494640421,-0.0469137131306178
1492638125.9,40.4491765956957,-79.9503595227654,10.6300001144409,0.096710205078125,-1.033203125,0.0234832763671875,-0.0427011249183305,-0.0146143627979188,-0.000399474163511886
1492638126.1,40.4491765956957,-79.9503595227654,10.6300001144409,0.02130126953125,-0.990646362304688,0.0526885986328125,-0.0173206670976573,0.0011797803629051,0.0211439011585751
1492638126.3,40.4492552398847,-79.9504085160797,9.76000022888184,0.0923614501953125,-1.05503845214844,-0.0334014892578125,-0.0480980208673761,-0.00287648029339459,0.0112433334900965
1492638126.5,40.4492552398847,-79.9504085160797,9.76000022888184,0.0321044921875,-1.00621032714844,0.0521697998046875,-0.0584523911856042,-0.00281256442723268,-0.0101871238017711
1492638126.7,40.4492552398847,-79.9504085160797,9.76000022888184,0.0766143798828125,-1.02810668945312,-0.0516815185546875,-0.0208331102593629,-0.0275165793310257,0.0286454933171103
1492638126.9,40.4492552398847,-79.9504085160797,9.76000022888184,0.0906524658203125,-1.00230407714844,-0.0435943603515625,-0.0545085159273058,0.0716198585632829,-0.024199612193332
1492638127.1,40.4492552398847,-79.9504085160797,9.76000022888184,0.0130615234375,-1.006591796875,0.044891357421875,-0.0102457133457528,-0.0414142854796042,0.0255911138628984
1492638127.3,40.449322865127,-79.9504506448727,7.6100001335144,0.0803070068359375,-1.000732421875,0.0522308349609375,-0.00537026433814478,0.00748215108257762,0.00738920676053385
1492638127.5,40.449322865127,-79.9504506448727,7.6100001335144,-0.0037078857421875,-1.00724792480469,0.071136474609375,-0.02749127930067,0.00230416697513656,-0.0130819799066872
1492638127.7,40.449322865127,-79.9504506448727,7.6100001335144,0.00103759765625,-1.0164794921875,0.113296508789062,-0.0392459397200617,0.00450873172550415,-0.00894316125659509
1492638127.9,40.449322865127,-79.9504506448727,7.6100001335144,0.048583984375,-0.963394165039062,0.098785400390625,-0.00663872796534952,-0.0137834565378141,0.0106297411749423
1492638128.1,40.449322865127,-79.9504506448727,7.6100001335144,0.03900146484375,-0.961868286132812,0.109634399414062,0.0116135128816175,-0.00539343383962847,0.00439767790804785
1492638128.3,40.4493794574739,-79.950487699758,6.19999980926514,0.0605621337890625,-0.971511840820312,0.15411376953125,-0.0133901076448094,0.0309323497451613,-0.0162101289230943
1492638128.5,40.4493794574739,-79.950487699758,6.19999980926514,0.0355682373046875,-0.98907470703125,0.17852783203125,-0.0257932477896354,-0.0200418850995003,0.00618492531560002
1492638128.7,40.4493794574739,-79.950487699758,6.19999980926514,0.0520172119140625,-0.92852783203125,0.190765380859375,0.00411777967748052,-0.0149184957944059,0.00221308686585585
1492638128.9,40.4493794574739,-79.950487699758,6.19999980926514,0.0588531494140625,-0.9664306640625,0.19091796875,-0.0411530293766674,0.0204757140410742,-0.016467390284396
1492638129.1,40.4493794574739,-79.950487699758,6.19999980926514,0.05810546875,-0.994216918945312,0.38336181640625,-0.0074882763530848,-0.0605757295227243,0.0469930753311022
1492638129.3,40.4494260813442,-79.9505186099255,5.5,-0.0466766357421875,-0.965530395507812,0.290817260742188,0.0373151479297543,-0.128939607337276,0.0817470612405273
1492638129.5,40.4494260813442,-79.9505186099255,5.5,-0.0422821044921875,-0.950332641601562,0.2952880859375,-0.0274958066745231,-0.0912987548062054,0.013814881838677
1492638129.7,40.4494260813442,-79.9505186099255,5.5,0.100479125976562,-0.894821166992188,0.286788940429688,0.0222989141233425,-0.0777901364928875,0.0398789731111735
1492638129.9,40.4494260813442,-79.9505186099255,5.5,0.066253662109375,-0.940292358398438,0.1768798828125,-0.00715271805573482,-0.0510075243582876,0.0277799659628345
1492638130.1,40.4494260813442,-79.9505186099255,5.5,0.0397796630859375,-0.943649291992188,0.177520751953125,-0.0449869160819455,-0.105009240730151,0.0392603207899481
1492638130.3,40.4494739603165,-79.9505503521864,6.15999984741211,-0.086273193359375,-0.93511962890625,0.232666015625,0.0585442702432119,-0.0376139546040611,-0.0184953874544913
1492638130.5,40.4494739603165,-79.9505503521864,6.15999984741211,0.0254669189453125,-0.986526489257812,0.173126220703125,-0.0380605667188674,-0.0763376484343583,0.0158005347474401
1492638130.7,40.4494739603165,-79.9505503521864,6.15999984741211,0.0069580078125,-0.983978271484375,0.237319946289062,-0.0287589439795477,-0.0806501051875236,0.0340325355701226
1492638130.9,40.4494739603165,-79.9505503521864,6.15999984741211,0.0064239501953125,-0.923797607421875,0.29229736328125,-0.0093468964778511,0.00218565630662803,-0.0160945477317849
1492638131.1,40.4494739603165,-79.9505503521864,6.15999984741211,0.046875,-0.9019775390625,0.19757080078125,0.0459613667248055,-0.0715639321803913,0.0262443872782949
1492638131.3,40.4495206031893,-79.9505812749519,6.25,0.0222015380859375,-0.972061157226562,0.213790893554688,-0.0167520822049254,-0.014787734584883,-0.0289211304899335
1492638131.5,40.4495206031893,-79.9505812749519,6.25,0.146224975585938,-0.993453979492188,0.19256591796875,-0.0405516876025276,0.00558384985756914,0.00916633415594373
1492638131.7,40.4495206031893,-79.9505812749519,6.25,0.090728759765625,-0.923873901367188,0.148483276367188,-0.0106473180381368,0.0117711720181502,0.00625789592946819
1492638131.9,40.4495206031893,-79.9505812749519,6.25,0.132293701171875,-0.932235717773438,0.173782348632812,0.06005880995514,-0.128015756755128,0.132089594274622
1492638132.1,40.4495206031893,-79.9505812749519,6.25,0.165176391601562,-0.973495483398438,0.162155151367188,-0.0148921304996141,-0.0988253806789874,0.0224930585668092
1492638132.3,40.4495747244664,-79.9506174404179,6.48000001907349,0.0859222412109375,-1.00532531738281,0.120697021484375,0.0325872380465366,-0.0268023195266665,0.0163960175671818
1492638132.5,40.4495747244664,-79.9506174404179,6.48000001907349,-0.02789306640625,-0.9571533203125,0.18865966796875,0.00824541305099433,0.0605743979421793,-0.0245948252990998
1492638132.7,40.4495747244664,-79.9506174404179,6.48000001907349,0.074310302734375,-0.906570434570312,0.202713012695312,-0.0795646007272073,0.00796072113046486,-0.0178945783125694
1492638132.9,40.4495747244664,-79.9506174404179,6.48000001907349,0.114486694335938,-0.984542846679688,0.1422119140625,0.0109415973385906,0.0605626800333829,0.0116840866505046
1492638133.1,40.4495747244664,-79.9506174404179,6.48000001907349,-0.028717041015625,-0.89697265625,0.191848754882812,0.0572110918015182,0.0411074893220271,-0.0336391866771179
1492638133.3,40.4496222982024,-79.9506499715887,6.05999994277954,0.214447021484375,-0.977706909179688,0.047821044921875,-0.0161432835797333,-0.080730266336335,0.0458902603237004
1492638133.5,40.4496222982024,-79.9506499715887,6.05999994277954,0.063385009765625,-0.963333129882812,0.0982513427734375,-0.0332218693343025,0.0353119181577966,-0.0430798264253398
1492638133.7,40.4496222982024,-79.9506499715887,6.05999994277954,0.131927490234375,-0.956130981445312,0.022003173828125,0.00892185596787446,0.0882212058505099,-0.0587780957869209
1492638133.9,40.4496222982024,-79.9506499715887,6.05999994277954,0.0619049072265625,-1.01104736328125,0.0333099365234375,-0.00272547905958709,0.0234161102006307,-0.0214126141125641
1492638134.1,40.4496222982024,-79.9506499715887,6.05999994277954,0.127304077148438,-0.967849731445312,0.0164794921875,-0.0159243717381288,-0.0073436667058935,-0.00760758596992035
1492638134.3,40.4496632794821,-79.9506779948033,5.01000022888184,0.0847930908203125,-0.983505249023438,0.0440673828125,-0.0249263888548146,0.0544091800186459,-0.0163888270322386
1492638134.5,40.4496632794821,-79.9506779948033,5.01000022888184,0.0858154296875,-1.04557800292969,0.026641845703125,-0.0240507414883966,0.0565333173040931,-0.00145834701292739
1492638134.7,40.4496632794821,-79.9506779948033,5.01000022888184,-0.0088348388671875,-1.044677734375,0.088470458984375,0.000219710789931537,-3.99474163511886e-06,-0.0159909507653808
1492638134.9,40.4496632794821,-79.9506779948033,5.01000022888184,0.092620849609375,-0.97637939453125,0.04296875,0.00486080162161263,0.0488967028782908,-0.0171358437180059
1492638135.1,40.4496632794821,-79.9506779948033,5.01000022888184,0.06158447265625,-0.983840942382812,0.05426025390625,-0.0143616288104703,0.0394480736467987,-0.0183744799410017
1492638135.3,40.449693820721,-79.950698879063,3.48000001907349,0.0549468994140625,-1.00106811523438,0.0666656494140625,-0.0382184921715091,0.0151406034293185,-0.000430366832156805
1492638135.5,40.449693820721,-79.950698879063,3.48000001907349,0.0804443359375,-1.01417541503906,0.0386962890625,-0.0186458560560808,0.0341571715091383,-0.0194709033617873
1492638135.7,40.449693820721,-79.950698879063,3.48000001907349,0.060882568359375,-1.00213623046875,0.1070556640625,-0.0245594052566017,-0.00728614242634779,0.000833569421194802
1492638135.9,40.449693820721,-79.950698879063,3.48000001907349,0.0724334716796875,-0.9635009765625,0.2047119140625,-0.012602344594364,0.0213561550974544,-0.0012503541317922
1492638136.1,40.449693820721,-79.950698879063,3.48000001907349,0.0628814697265625,-0.9617919921875,0.232467651367188,-0.00856845449122094,0.00112012555448733,0.0041742386925902
1492638136.3,40.4497181341847,-79.9507155047373,2.09999990463257,0.0586090087890625,-0.862106323242188,0.37835693359375,0.0337545015523183,-0.0268111079582637,0.00894449283714013
1492638136.5,40.4497181341847,-79.9507155047373,2.09999990463257,0.108139038085938,-0.867080688476562,0.369964599609375,-0.0551604577621572,0.0641725948909854,-0.0583059173256498
1492638136.7,40.4497181341847,-79.9507155047373,2.09999990463257,0.106689453125,-0.930892944335938,0.4273681640625,-0.000576041743784139,0.0436143228561187,-0.0118468057931085
1492638136.9,40.4497181341847,-79.9507155047373,2.09999990463257,0.029510498046875,-0.897720336914062,0.445846557617188,0.0496868627737174,-0.0184037747129926,0.0165494156459704
1492638137.1,40.4497181341847,-79.9507155047373,2.09999990463257,0.09112548828125,-0.881210327148438,0.455169677734375,-0.0142556349990852,-0.00628532648869601,0.0265256170894072
1492638137.3,40.449744230359,-79.9507333494385,3.41000008583069,0.0452423095703125,-0.897537231445312,0.404800415039062,-0.0214530941611333,0.00439661264361181,0.0136297921429165
1492638137.5,40.449744230359,-79.9507333494385,3.41000008583069,0.0997467041015625,-0.908111572265625,0.393173217773438,-0.0164743145032302,-0.0435032690386624,0.012738165809958
1492638137.7,40.449744230359,-79.9507333494385,3.41000008583069,0.0654144287109375,-0.938446044921875,0.41815185546875,0.0113858126084158,-0.0181550354671792,0.0140242063003573
1492638137.9,40.449744230359,-79.9507333494385,3.41000008583069,0.11724853515625,-0.911911010742188,0.436737060546875,-0.0121948809475818,0.0521992889460981,-0.0141203464157091
1492638138.1,40.449744230359,-79.9507333494385,3.41000008583069,0.0273895263671875,-0.920974731445312,0.4700927734375,0.00796524850431799,-0.00536440538374661,0.0374128859417602
1492638138.3,40.449782077097,-79.950759229237,5.42000007629395,0.08856201171875,-0.891555786132812,0.42266845703125,-0.0206541458341095,0.0756574770919521,-0.00573778056857572
1492638138.5,40.449782077097,-79.950759229237,5.42000007629395,0.07525634765625,-0.87896728515625,0.382614135742188,-0.00784274309417435,0.0372765320939481,-0.0289642736995928
1492638138.7,40.449782077097,-79.950759229237,5.42000007629395,0.0660247802734375,-0.954605102539062,0.44635009765625,-0.0278555997377928,0.0331488987204343,-0.0472841588382479
1492638138.9,40.449782077097,-79.950759229237,5.42000007629395,0.150177001953125,-0.95404052734375,0.44317626953125,-0.0731098971931823,0.21640021438046,-0.0642136075717726
1492638139.1,40.449782077097,-79.950759229237,5.42000007629395,0.11468505859375,-0.91119384765625,0.272247314453125,0.0112159029308687,0.0307709621831025,-0.0244874999071696
1492638139.3,40.4497848623492,-79.9507611338071,7.42999982833862,0.15234375,-0.899978637695312,0.3812255859375,-0.0778801513377322,0.171757112395243,-0.0513526700355619
1492638139.5,40.4497848623492,-79.9507611338071,7.42999982833862,-0.141250610351562,-1.25186157226562,0.293045043945312,0.325927774216039,-0.207374495130072,0.270425632886025
1492638139.7,40.4497848623492,-79.9507611338071,7.42999982833862,0.222686767578125,-0.86492919921875,0.271591186523438,-0.0647779314067604,-0.192105793652321,0.0371500319421693
1492638139.9,40.4497848623492,-79.9507611338071,7.42999982833862,-0.0761871337890625,-0.782669067382812,0.564102172851562,-0.0359327010078941,0.035323902382702,-0.0782926749905855
1492638140.1,40.4497848623492,-79.9507611338071,7.42999982833862,-0.0654296875,-0.912933349609375,0.40252685546875,-0.0840887787870339,-0.241965229264675,0.0978551910938715
1492638140.3,40.4497848623492,-79.9507611338071,7.42999982833862,-0.0758209228515625,-0.937057495117188,0.398834228515625,-0.00151880076967219,-0.0467925393010192,0.0075687038180052
1492638140.5,40.4499087850706,-79.9508337911805,9.01000022888184,-0.0214080810546875,-0.940505981445312,0.369155883789062,-0.00843396485617194,-0.0180309321603815,-0.016033028710604
1492638140.7,40.4499087850706,-79.9508337911805,9.01000022888184,0.0010833740234375,-0.922897338867188,0.295318603515625,-0.0535314021233557,-0.135803905046956,0.0243253133967838
1492638140.9,40.4499087850706,-79.9508337911805,9.01000022888184,-0.128677368164062,-0.877120971679688,0.367599487304688,0.0900494659388493,-0.068664282385513,-0.00316569958777719
1492638141.1,40.4499087850706,-79.9508337911805,9.01000022888184,-0.099456787109375,-1.00634765625,0.289962768554688,-0.0186831403113419,-0.013713681717254,-0.0428044555686256
1492638141.3,40.4499899678671,-79.9508812752523,10.3400001525879,-0.0204010009765625,-1.01692199707031,0.21917724609375,0.0252020260276378,-0.0352655791548293,0.00674631967338873
1492638141.5,40.4499899678671,-79.9508812752523,10.3400001525879,0.0085601806640625,-0.9637451171875,0.146240234375,-0.0348051186023546,-0.0252965682463357,0.0391588543524161
1492638141.7,40.4499899678671,-79.9508812752523,10.3400001525879,-0.11834716796875,-0.8665771484375,0.208221435546875,-0.00461525816910732,0.0319360951600122,-0.034248517934528
1492638141.9,40.4499899678671,-79.9508812752523,10.3400001525879,0.0632781982421875,-0.99591064453125,0.196060180664062,0.0497329354605757,-0.0896675686385319,0.0519188580833128
1492638142.1,40.4499899678671,-79.9508812752523,10.3400001525879,0.142623901367188,-0.805145263671875,0.29345703125,-0.139673478110841,-0.0788628577799714,0.0467531245168861
1492638142.3,40.4500838324394,-79.9509361769344,10.7799997329712,0.154693603515625,-0.864288330078125,0.11859130859375,0.0298979779777746,-0.503291373338118,0.26282736797992
1492638142.5,40.4500838324394,-79.9509361769344,10.7799997329712,-0.235061645507812,-0.931961059570312,0.296630859375,0.124670560109879,-0.17523972815274,0.131806766566856
1492638142.7,40.4500838324394,-79.9509361769344,10.7799997329712,-0.186935424804688,-1.13616943359375,0.200454711914062,0.113753463853318,-0.110285495481816,0.109136874103665
1492638142.9,40.4500838324394,-79.9509361769344,10.7799997329712,-0.0151214599609375,-0.969482421875,0.237106323242188,0.00302055730836787,-0.106386361329831,0.0322918934816468
1492638143.1,40.4500838324394,-79.9509361769344,10.7799997329712,0.0080108642578125,-0.96337890625,0.186019897460938,-0.104751180420523,-0.0535684200625078,-0.000934236910399797
1492638143.3,40.4501725744306,-79.9509880824028,10.789999961853,0.0276641845703125,-0.960891723632812,0.118499755859375,0.0234501986625837,-0.0448204685138156,0.0515340313057963
1492638143.5,40.4501725744306,-79.9509880824028,10.789999961853,-0.0270233154296875,-0.941314697265625,0.189712524414062,-0.0157025304193252,-0.0669087265949328,0.0213361813892788
1492638143.7,40.4501725744306,-79.9509880824028,10.789999961853,-0.0147552490234375,-0.95037841796875,0.174285888671875,-0.0225436586275208,-0.0881351857473003,0.0426451985354388
1492638143.9,40.4501725744306,-79.9509880824028,10.789999961853,-0.02392578125,-0.958053588867188,0.0337677001953125,-0.0129783829402832,-0.104154366020236,0.0353209729055029
1492638144.1,40.4501725744306,-79.9509880824028,10.789999961853,0.006378173828125,-0.996566772460938,-0.0046844482421875,-0.0269831481646828,-0.0210964968911717,0.0147051765910905
1492638144.3,40.4502591412949,-79.9510387156326,10.2399997711182,0.037139892578125,-1.04734802246094,-0.03155517578125,-0.0209164672014823,0.0192802210277377,-0.0173233302587474
1492638144.5,40.4502591412949,-79.9510387156326,10.2399997711182,0.122100830078125,-1.02165222167969,-0.0823974609375,-0.0817414686022381,0.0771107640988083,-0.054346595733029
1492638144.7,40.4502591412949,-79.9510387156326,10.2399997711182,-0.012481689453125,-0.995742797851562,-0.0091400146484375,-0.022384667910443,0.00652873941232925,0.0050850397853973
1492638144.9,40.4502591412949,-79.9510387156326,10.2399997711182,0.0690460205078125,-1.06729125976562,-0.0861968994140625,0.0163139922056074,-0.0415863256860233,0.0301283414120664
1492638145.1,40.4502591412949,-79.9510387156326,10.2399997711182,0.049957275390625,-0.989852905273438,-0.087615966796875,-0.0270776903833807,-0.0434348257986473,0.0094307860521886
1492638145.3,40.4503317563494,-79.9510811884053,7.92000007629395,0.017425537109375,-1.06489562988281,-0.115188598632812,-0.0227082419828876,-0.00729493085794505,0.0211106116449491
1492638145.5,40.4503317563494,-79.9510811884053,7.92000007629395,0.026336669921875,-1.01393127441406,-0.0440826416015625,-0.0348485281281229,0.0151166349795078,-0.0131903705630535
1492638145.7,40.4503317563494,-79.9510811884053,7.92000007629395,0.0107574462890625,-0.992828369140625,-0.0583953857421875,-0.0270084481950386,0.00869069358525558,0.0327536856146665
1492638145.9,40.4503317563494,-79.9510811884053,7.92000007629395,0.0321044921875,-1.025390625,-0.08526611328125,-0.0315757694645245,0.0236049283219173,-0.0142449823547248
1492638146.1,40.4503317563494,-79.9510811884053,7.92000007629395,0.01409912109375,-1.01181030273438,-0.072906494140625,-0.00678120708366876,-0.00739799519213112,0.0244725862050651
1492638146.3,40.4503796904362,-79.9511092252027,5.51999998092651,0.0381927490234375,-1.04811096191406,-0.076446533203125,-0.00330072185504421,-0.00636016131532724,0.00424747562256738
1492638146.5,40.4503796904362,-79.9511092252027,5.51999998092651,0.017486572265625,-1.017333984375,-0.066925048828125,-0.0159203769964937,0.0107410613085076,0.00194171075077677
1492638146.7,40.4503796904362,-79.9511092252027,5.51999998092651,0.0203704833984375,-1.01957702636719,-0.0555572509765625,-0.00968911267792628,-0.006318616002322,0.00418196185975143
1492638146.9,40.4503796904362,-79.9511092252027,5.51999998092651,0.0298919677734375,-1.02066040039062,-0.08758544921875,-0.0117839551913826,-0.00949683244722256,-9.61401153518605e-05
1492638147.1,40.4503796904362,-79.9511092252027,5.51999998092651,0.0244140625,-1.02635192871094,-0.103347778320312,-0.026418558013586,0.0150628391254882,-0.00670663857314655
1492638147.3,40.4504017664175,-79.9511221375133,3.60999989509583,0.041015625,-1.023193359375,-0.080322265625,-0.0158524663886967,0.00222933214850533,-0.00763155441973106
1492638147.5,40.4504017664175,-79.9511221375133,3.60999989509583,0.0455169677734375,-1.00520324707031,0.001251220703125,-0.0105754126887047,-0.00205968878706728,-0.0065002435886654
1492638147.7,40.4504017664175,-79.9511221375133,3.60999989509583,0.05267333984375,-0.992919921875,0.228378295898438,-0.00204424245274482,-0.00424294824871424,-0.00853969235144809
1492638147.9,40.4504017664175,-79.9511221375133,3.60999989509583,0.0423431396484375,-0.91827392578125,0.246826171875,0.00857244923285606,-0.00643925719970259,-0.00735911304021596
1492638148.1,40.4504017664175,-79.9511221375133,3.60999989509583,0.0785064697265625,-0.974746704101562,0.201812744140625,-0.0264212211746761,0.0108076403357596,-0.00882811269750367
1492638148.3,40.4504073335417,-79.9511253937416,1.8400000333786,0.0359039306640625,-0.955917358398438,0.20599365234375,-0.0169571456088615,-0.0030820763295487,-0.00762915757474999
1492638148.5,40.4504073335417,-79.9511253937416,1.8400000333786,0.065826416015625,-0.962799072265625,0.215927124023438,-0.0202605306249958,-0.00199550660479637,0.000863929457621705
1492638148.7,40.4504073335417,-79.9511253937416,1.8400000333786,0.04339599609375,-0.959609985351562,0.208831787109375,-0.0180711458928417,0.000117179087963486,-0.00231774909669596
1492638148.9,40.4504073335417,-79.9511253937416,1.8400000333786,0.057861328125,-0.955368041992188,0.209716796875,-0.0171129405326312,-0.00627067910270057,0.00197340236774872
1492638149.1,40.4504073335417,-79.9511253937416,1.8400000333786,0.036865234375,-0.974853515625,0.209518432617188,-0.0117227024863108,-0.00524269892192999,-0.00223891952842962
1492638149.3,40.4504111642521,-79.9511276343361,0.980000019073486,0.0581207275390625,-0.959732055664062,0.219100952148438,-0.0159217085770387,-0.00308846791616489,-0.00548611184556323
1492638149.5,40.4504111642521,-79.9511276343361,0.980000019073486,0.048065185546875,-0.956314086914062,0.20867919921875,-0.0138734713826588,-0.00416465131266591,-0.000131293841740906
1492638149.7,40.4504111642521,-79.9511276343361,0.980000019073486,0.045501708984375,-0.955276489257812,0.205459594726562,-0.0130883714933034,-0.0413999044097178,-2.71642431188082e-05
1492638149.9,40.4504111642521,-79.9511276343361,0.980000019073486,0.060546875,-0.955215454101562,0.255889892578125,-0.00954397039851697,0.00325305127153179,-0.00117232351185288
1492638150.1,40.4504111642521,-79.9511276343361,0.980000019073486,0.05810546875,-0.927032470703125,0.327682495117188,0.0139014345741046,0.00203651928558359,-0.00306156998915509
1492638150.3,40.4504121347636,-79.9511282019913,0.0,0.0604400634765625,-0.932159423828125,0.323089599609375,-0.0171209300159014,-0.00733434564207822,0.00197606552883879
1492638150.5,40.4504121347636,-79.9511282019913,0.0,0.0720367431640625,-0.918930053710938,0.33160400390625,-0.0137642817779655,0.00647148144889255,-0.00229005222135914
1492638150.7,40.4504121347636,-79.9511282019913,0.0,0.0576934814453125,-0.935638427734375,0.325363159179688,-0.0107458549984697,-0.00524802524411015,0.00416837973819202
1492638150.9,40.4504121347636,-79.9511282019913,0.0,0.07537841796875,-0.935104370117188,0.318572998046875,-0.0318074644793614,0.00446052850977372,-0.0078006651489511
1492638151.1,40.4504421435736,-79.9511576703974,-1.0,0.064697265625,-0.922515869140625,0.33502197265625,-0.000697215573382745,0.0138297955407815,-0.0192346809730973
1492638151.3,40.4504211411205,-79.9511334698377,1.19000005722046,0.052764892578125,-0.928665161132812,0.354400634765625,-0.0119237711486118,-0.0105581021416191,0.00950109350496669
1492638151.5,40.4504211411205,-79.9511334698377,1.19000005722046,0.0917510986328125,-0.9154052734375,0.3431396484375,0.00623392747965748,-0.0011025486912928,0.0107288107674932
1492638151.7,40.4504211411205,-79.9511334698377,1.19000005722046,0.126739501953125,-0.928634643554688,0.295913696289062,0.0127986195667028,0.0743709039693348,-0.0384445945480569
1492638151.9,40.4504211411205,-79.9511334698377,1.19000005722046,-0.076263427734375,-0.931472778320312,0.44091796875,0.00406132066237084,-0.0861804255071822,0.0450449729937092
1492638152.1,40.4504211411205,-79.9511334698377,1.19000005722046,0.05718994140625,-0.927886962890625,0.410308837890625,-0.0669457445340849,0.0759520227085148,-0.0467286234348573
1492638152.3,40.4504371268881,-79.9511428199631,2.61999988555908,0.0862579345703125,-0.919448852539062,0.388839721679688,-0.0193143094896907,-0.00412789968962282,0.00834261843078222
1492638152.5,40.4504371268881,-79.9511428199631,2.61999988555908,0.0638427734375,-0.945632934570312,0.346405029296875,-0.017981929996324,0.0139451104159819,-0.00128630680650827
1492638152.7,40.4504371268881,-79.9511428199631,2.61999988555908,0.0290374755859375,-0.905746459960938,0.383544921875,0.0482612726421979,-0.0566875143312086,0.0219646874065375
1492638152.9,40.4504371268881,-79.9511428199631,2.61999988555908,0.0418853759765625,-0.921783447265625,0.347625732421875,-0.0301693540928536,-0.0317139875250996,0.00830267101443103
1492638153.1,40.4504371268881,-79.9511428199631,2.61999988555908,0.0140228271484375,-1.06254577636719,0.392547607421875,0.0249349109703029,-0.0129331092017518,-0.0391612511973972
1492638153.3,40.4504645031492,-79.9511588324239,4.1399998664856,0.038482666015625,-0.94744873046875,0.400192260742188,-0.0282231159682237,0.019326027398487,-0.0280603968256199
1492638153.5,40.4504645031492,-79.9511588324239,4.1399998664856,0.0425872802734375,-0.898193359375,0.378341674804688,0.0039859532035216,-0.00321416911961663,0.0181747428592458
1492638153.7,40.4504645031492,-79.9511588324239,4.1399998664856,0.03179931640625,-1.01467895507812,0.359420776367188,-0.02803083573752,0.0618625689614506,-0.0964058988286504
1492638153.9,40.4504645031492,-79.9511588324239,4.1399998664856,0.11181640625,-0.945831298828125,0.328414916992188,-0.0463728251132228,0.0109341404875383,-0.0292907772492365
1492638154.1,40.4504645031492,-79.9511588324239,4.1399998664856,0.0662841796875,-0.9130859375,0.311614990234375,-0.0110854080374548,-0.00949709876333157,0.0265663634540854
1492638154.3,40.4505042841217,-79.9511821004393,5.51999998092651,0.01312255859375,-0.941818237304688,0.343643188476562,0.00913650675173484,-0.0223942552903673,0.0204094013299312
1492638154.5,40.4505042841217,-79.9511821004393,5.51999998092651,0.103271484375,-0.963348388671875,0.332809448242188,0.0221636255399664,-0.0203542738953666,0.00347808838364348
1492638154.7,40.4505042841217,-79.9511821004393,5.51999998092651,-0.0039215087890625,-0.885025024414062,0.305816650390625,0.0256901834554494,-0.0554744444546776,0.0377236768409724
1492638154.9,40.4505042841217,-79.9511821004393,5.51999998092651,0.0611572265625,-0.87652587890625,0.3331298828125,-0.0206400310803321,-0.0232648426507142,0.0169081434448041
1492638155.1,40.4505042841217,-79.9511821004393,5.51999998092651,-0.016265869140625,-0.956451416015625,0.278274536132812,-0.0786316953973526,-0.0154476659030046,-0.0210232599611945
1492638155.3,40.4505583596373,-79.9512137293776,6.78999996185303,-0.01531982421875,-0.933975219726562,0.308013916015625,-0.0122140557074304,-0.0414033665191349,0.0138425787140139
1492638155.5,40.4505583596373,-79.9512137293776,6.78999996185303,0.0432891845703125,-1.02778625488281,0.328659057617188,0.013039103013137,-0.00221548371083692,-0.0201188504550036
1492638155.7,40.4505583596373,-79.9512137293776,6.78999996185303,-0.0126495361328125,-0.90625,0.289566040039062,0.0460625668462285,-0.0736933957880186,0.0177212065256053
1492638155.9,40.4505583596373,-79.9512137293776,6.78999996185303,0.12225341796875,-0.959823608398438,0.225448608398438,0.0695172928826654,-0.0249109425204922,0.0423583760860373
1492638156.1,40.4505583596373,-79.9512137293776,6.78999996185303,0.0209808349609375,-0.96142578125,0.270660400390625,0.00119123195559244,0.00318221118653568,-0.00745951421331195
1492638156.3,40.4506228341863,-79.9512514407431,7.75,0.046112060546875,-0.917526245117188,0.30621337890625,-0.0692922557705537,0.0568212050179306,-0.041372207534381
1492638156.5,40.4506228341863,-79.9512514407431,7.75,0.0425567626953125,-0.931808471679688,0.330856323242188,0.0304018480560176,-0.0810418561838743,-0.00907552036277203
1492638156.7,40.4506228341863,-79.9512514407431,7.75,0.0255126953125,-0.955963134765625,0.405044555664062,-0.0151379402682284,-0.00734553091865655,0.0126585372933646
1492638156.9,40.4506228341863,-79.9512514407431,7.75,0.174591064453125,-0.924224853515625,0.328704833984375,-0.0506013922920506,0.150295762434731,-0.110725982326115
1492638157.1,40.4506228341863,-79.9512514407431,7.75,0.0225830078125,-0.911773681640625,0.348709106445312,-0.0674402935485126,-0.0399820374453596,0.00367755914929042
1492638157.3,40.4506955355109,-79.9512939639754,9.02000045776367,0.0216827392578125,-0.905670166015625,0.298187255859375,-0.0411849873097484,0.0279229777133718,-0.0100896521058742
1492638157.5,40.4506955355109,-79.9512939639754,9.02000045776367,0.093902587890625,-0.951705932617188,0.382598876953125,-0.000357662534397642,0.0414827287196193,-0.0288984936206678
1492638157.7,40.4506955355109,-79.9512939639754,9.02000045776367,0.068359375,-0.697158813476562,0.185745239257812,-0.0698983912346557,0.138720865388919,-0.107695038689496
1492638157.9,40.4506955355109,-79.9512939639754,9.02000045776367,0.140228271484375,-0.897552490234375,0.309585571289062,-0.0742814217567081,-0.049506566767919,0.0313536618296119
1492638158.1,40.4506955355109,-79.9512939639754,9.02000045776367,-0.19256591796875,-0.892181396484375,0.246963500976562,0.130827255917925,-0.229531462767313,0.119215340932961
1492638158.3,40.4507751408009,-79.9513405253586,10.2299995422363,0.0317840576171875,-1.01995849609375,0.204055786132812,0.039928507907449,-0.0300401907799848,0.0228768200798897
1492638158.5,40.4507751408009,-79.9513405253586,10.2299995422363,0.170562744140625,-0.931716918945312,0.339752197265625,0.0260582323180983,0.057270480293827,-0.00521207256939408
1492638158.7,40.4507751408009,-79.9513405253586,10.2299995422363,0.041961669921875,-0.935256958007812,0.310653686523438,0.127258353741109,-0.00296170144827712,-0.0402717893719602
1492638158.9,40.4507751408009,-79.9513405253586,10.2299995422363,0.053497314453125,-0.849853515625,0.242874145507812,0.017511083115598,0.0222206171872941,-0.0222685540869156
1492638159.1,40.4507751408009,-79.9513405253586,10.2299995422363,-0.01739501953125,-0.85552978515625,0.246612548828125,0.00186447907916447,-0.0138385839723787,0.0117831562430556
1492638159.3,40.450862543329,-79.9513916473709,10.960000038147,0.09783935546875,-0.936538696289062,0.26580810546875,-0.00330524922889734,-0.0414534339476284,0.0629797650387389
1492638159.5,40.450862543329,-79.9513916473709,10.960000038147,-0.0291595458984375,-0.921112060546875,0.2918701171875,-0.0145051731932256,-0.0700970630519756,0.0874619386237283
1492638159.7,40.450862543329,-79.9513916473709,10.960000038147,-0.0137481689453125,-0.854995727539062,0.34503173828125,0.0409532922949115,-0.0353654476957072,0.0229010548458094
1492638159.9,40.450862543329,-79.9513916473709,10.960000038147,0.0460357666015625,-0.939468383789062,0.305511474609375,0.0477456846551586,-0.00564004255656981,-0.0677343065328573
1492638160.1,40.450862543329,-79.9513916473709,10.960000038147,0.122146606445312,-0.931869506835938,0.213790893554688,-0.0300614960687054,-0.0115035243285973,0.0114502611067957
1492638160.3,40.4509548475883,-79.9514456364211,11.460000038147,0.030181884765625,-0.984420776367188,0.270126342773438,-0.00255077569207789,-0.0340080344880939,0.0896236264805456
1492638160.5,40.4509548475883,-79.9514456364211,11.460000038147,0.04656982421875,-1.02188110351562,0.300506591796875,0.0329081489578911,-0.0406377077057371,-0.01448519948505
1492638160.7,40.4509548475883,-79.9514456364211,11.460000038147,0.031219482421875,-0.937515258789062,0.19256591796875,-0.114699418672514,-0.00138511008295021,-0.02356125248004
1492638160.9,40.4509548475883,-79.9514456364211,11.460000038147,-0.0111846923828125,-1.15908813476562,0.03338623046875,-0.0412640831941238,-0.102912001371714,0.00197553289662078
1492638161.1,40.4509548475883,-79.9514456364211,11.460000038147,-0.100494384765625,-0.946517944335938,0.072296142578125,-0.0214586867994225,-0.170031117692763,0.151621484025372
1492638161.3,40.451051329721,-79.9515020691224,11.5799999237061,0.0126495361328125,-0.936111450195312,0.208389282226562,0.112169948269156,-0.232619930683478,0.00281496127221375
1492638161.5,40.451051329721,-79.9515020691224,11.5799999237061,0.036834716796875,-0.926971435546875,0.239089965820312,0.10548195182364,-0.126191757724533,0.0824378852272938
1492638161.7,40.451051329721,-79.9515020691224,11.5799999237061,0.0773162841796875,-1.08181762695312,0.206863403320312,0.0940798939325752,0.120658241611566,0.0390355499939454
1492638161.9,40.451051329721,-79.9515020691224,11.5799999237061,-0.109146118164062,-1.05491638183594,0.316696166992188,0.157662864958217,-0.0446425693529983,-0.0281245790078908
1492638162.1,40.451051329721,-79.9515020691224,11.5799999237061,-0.0339508056640625,-1.08396911621094,0.197479248046875,0.0215692079846608,-0.132031271046749,0.0634681887826594
1492638162.3,40.4511451554905,-79.9515569481087,11.2399997711182,0.0029296875,-0.989273071289062,0.209716796875,0.0574089646705111,0.0368610789638957,0.0271479978361587
1492638162.5,40.4511451554905,-79.9515569481087,11.2399997711182,0.045379638671875,-0.898391723632812,0.194183349609375,-0.0588012652884045,-0.0453586933701206,-0.00794847058945049
1492638162.7,40.4511451554905,-79.9515569481087,11.2399997711182,0.051116943359375,-0.953903198242188,0.158157348632812,-0.0126417593784971,0.0681521565078908,-0.0504173678607261
1492638162.9,40.4511451554905,-79.9515569481087,11.2399997711182,0.095672607421875,-1.08316040039062,0.123626708984375,-0.0359004767587042,-0.0508205704497641,0.0274851540301628
1492638163.1,40.4511451554905,-79.9515569481087,11.2399997711182,0.021759033203125,-0.996994018554688,0.147430419921875,0.0323640651471879,-0.0161725783517242,-0.0390768289908417
1492638163.3,40.4512322307963,-79.9516078787276,10.6000003814697,0.0848846435546875,-0.909652709960938,0.183822631835938,-0.0849380608586602,-0.0409266606840107,0.0365534838579916
1492638163.5,40.4512322307963,-79.9516078787276,10.6000003814697,0.093780517578125,-1.115478515625,0.165267944335938,-0.138933119327799,-0.066110577216236,-0.000185622327978523
1492638163.7,40.4512322307963,-79.9516078787276,10.6000003814697,0.123397827148438,-0.94976806640625,0.0243682861328125,0.0139666820208116,-0.0809419876429963,-0.0529588224889887
1492638163.9,40.4512322307963,-79.9516078787276,10.6000003814697,-0.0038299560546875,-0.94793701171875,0.146499633789062,0.0217268671211934,-0.0394949452819841,0.0248472929704393
1492638164.1,40.4512322307963,-79.9516078787276,10.6000003814697,0.009124755859375,-0.900131225585938,0.226531982421875,-0.0401695239861012,0.0194064548634074,-0.011123491241043
1492638164.3,40.4513223048637,-79.9516605633315,9.85999965667725,0.0298309326171875,-0.860214233398438,0.166290283203125,-0.0114324179274922,0.0373044952853939,-0.000213319203315347
1492638164.5,40.4513223048637,-79.9516605633315,9.85999965667725,0.0211334228515625,-0.973831176757812,0.175460815429688,0.0260419870354488,-0.157581904861079,0.11155955174731
1492638164.7,40.4513223048637,-79.9516605633315,9.85999965667725,0.0678863525390625,-0.911697387695312,0.0851898193359375,-0.0194336191065262,0.0437333661568452,-0.0344306781530894
1492638164.9,40.4513223048637,-79.9516605633315,9.85999965667725,0.147247314453125,-0.96881103515625,0.168869018554688,-0.0259852617042302,0.0799350464348373,-0.0804383838808623
1492638165.1,40.4513223048637,-79.9516605633315,9.85999965667725,0.137527465820312,-0.943038940429688,0.142425537109375,-0.0729077632664453,-0.0473914842301781,0.0100379867807267
1492638165.3,40.4513972154924,-79.9517043787927,9.11999988555908,0.1531982421875,-1.00044250488281,0.0045623779296875,-0.0264273464451833,0.0639859072985708,-0.0569450420086193
1492638165.5,40.4513972154924,-79.9517043787927,9.11999988555908,0.0402984619140625,-1.04476928710938,0.0426025390625,0.110259396503134,-0.0773059738067111,-0.00613512420321554
1492638165.7,40.4513972154924,-79.9517043787927,9.11999988555908,0.0962371826171875,-1.00112915039062,-0.0408477783203125,0.0457901254667134,-0.0598713234143984,-0.0324293125938949
1492638165.9,40.4513972154924,-79.9517043787927,9.11999988555908,-0.055389404296875,-1.01893615722656,0.07904052734375,0.0384371376970046,-0.142777126045219,0.0700659040672217
1492638166.1,40.4513972154924,-79.9517043787927,9.11999988555908,-0.0138397216796875,-1.02198791503906,0.0366973876953125,0.00165675251413829,-0.0414939139961976,0.0118523984313977
1492638166.3,40.4514593162958,-79.951740701747,7.19000005722046,0.0356292724609375,-1.00856018066406,0.0244293212890625,-0.0029878004269599,0.013846573455649,-0.00752982166609004
1492638166.5,40.4514593162958,-79.951740701747,7.19000005722046,0.005645751953125,-1.01268005371094,0.0230560302734375,-0.0341593020380104,-0.0114787569304595,-0.000320111963027524
1492638166.7,40.4514593162958,-79.951740701747,7.19000005722046,0.00250244140625,-1.00465393066406,0.105789184570312,0.00703900107718843,-0.0298276705249965,0.0140098252304708
1492638166.9,40.4514593162958,-79.951740701747,7.19000005722046,0.0898895263671875,-0.939529418945312,0.129745483398438,0.0315904168505199,-0.0236051946380263,0.0131789189703661
1492638167.1,40.4514593162958,-79.951740701747,7.19000005722046,0.0622711181640625,-1.06129455566406,0.133224487304688,-0.0020535635165601,-0.00743421418295619,-0.00959776625253657
1492638167.3,40.4515094931315,-79.9517700503352,5.21000003814697,0.184066772460938,-1.08224487304688,-0.0528564453125,-0.043088881173046,0.0417498437769542,-0.0965081642145094
1492638167.5,40.4515094931315,-79.9517700503352,5.21000003814697,0.050811767578125,-1.043701171875,0.0954437255859375,-0.0162071994458952,-0.0541338091619317,0.0650128222149054
1492638167.7,40.4515094931315,-79.9517700503352,5.21000003814697,-0.0330963134765625,-0.970291137695312,0.14569091796875,0.0273189727781418,-0.0714363667641765,0.0655031101715889
1492638167.9,40.4515094931315,-79.9517700503352,5.21000003814697,0.11297607421875,-1.01844787597656,-0.0034942626953125,0.0213963688299146,0.0498463861230131,-0.0574851310776874
1492638168.1,40.4515094931315,-79.9517700503352,5.21000003814697,0.06396484375,-1.09474182128906,0.0877532958984375,-0.0229479264809948,-0.00409913754984996,0.0402917630801358
1492638168.3,40.4515455109515,-79.9517911172708,4.01999998092651,0.02276611328125,-1.0419921875,0.10064697265625,0.022150309734516,0.0285813111348394,0.0310732309668265
1492638168.5,40.4515455109515,-79.9517911172708,4.01999998092651,0.047088623046875,-1.00588989257812,0.0959930419921875,-0.0123320337437209,0.0202874285520056,-0.0215028952735178
1492638168.7,40.4515455109515,-79.9517911172708,4.01999998092651,0.04052734375,-0.979248046875,0.09844970703125,-0.0198051300785923,-0.0115780928391195,-0.0374903839294815
1492638168.9,40.4515455109515,-79.9517911172708,4.01999998092651,0.0367279052734375,-0.978515625,0.120040893554688,0.00281735811719483,-0.0287368397425,0.011831359458786
1492638169.1,40.4515455109515,-79.9517911172708,4.01999998092651,0.106414794921875,-0.99267578125,0.0609283447265625,0.0160063970997032,-0.0532826628775423,0.0461485869494381
1492638169.3,40.4515646704963,-79.9518023237485,2.47000002861023,0.0408172607421875,-0.951675415039062,0.186141967773438,-0.0366456292317083,-0.0316708443154403,0.0146335375577674
1492638169.5,40.4515646704963,-79.9518023237485,2.47000002861023,0.0067596435546875,-0.966766357421875,0.191253662109375,0.0177395823371268,-0.0384083755572318,0.00561181304901497
1492638169.7,40.4515646704963,-79.9518023237485,2.47000002861023,0.0399627685546875,-0.959442138671875,0.218460083007812,0.000990163293291461,-0.0138351218629616,-0.00208658671407708
1492638169.9,40.4515646704963,-79.9518023237485,2.47000002861023,0.0456390380859375,-0.981353759765625,0.21636962890625,0.00401391639496743,-0.0170442309765071,0.00861479349418832
1492638170.1,40.4515646704963,-79.9518023237485,2.47000002861023,0.0914306640625,-0.965164184570312,0.201705932617188,-0.0148303451623243,-0.0190530533867539,-0.0160958793123299
1492638170.3,40.4515819996874,-79.9518124596467,1.78999996185303,0.0276031494140625,-0.97705078125,0.2479248046875,-0.0326498223321534,0.0204205866065096,-0.0153139752162826
1492638170.5,40.4515819996874,-79.9518124596467,1.78999996185303,0.0368194580078125,-0.954574584960938,0.241714477539062,-0.0159070611910433,-0.0147906640620821,-0.0129192607640834
1492638170.7,40.4515819996874,-79.9518124596467,1.78999996185303,0.0794830322265625,-0.948638916015625,0.17767333984375,-0.0386965295871784,-0.0348498597086679,0.00715724542958795
1492638170.9,40.4515819996874,-79.9518124596467,1.78999996185303,0.0186004638671875,-0.946624755859375,0.220550537109375,-0.0184413252843627,-0.0179608910237124,0.0147845387915749
1492638171.1,40.4515819996874,-79.9518124596467,1.78999996185303,0.0891265869140625,-0.941421508789062,0.200912475585938,-0.00762356493646083,-0.0148417967550116,0.00422510506941071
1492638171.3,40.4515953262716,-79.9518202544074,1.54999995231628,0.0516510009765625,-0.975296020507812,0.170730590820312,-0.00655350681046699,-0.0180402532241968,0.00211188674443284
1492638171.5,40.4515953262716,-79.9518202544074,1.54999995231628,0.0516204833984375,-0.936309814453125,0.221206665039062,-0.0340820703663981,-0.0167992201562198,-0.00883530323244688
1492638171.7,40.4515953262716,-79.9518202544074,1.54999995231628,0.052154541015625,-1.00025939941406,0.211654663085938,-0.0394842926376238,0.00983212442846354,0.0112987272407702
1492638171.9,40.4515953262716,-79.9518202544074,1.54999995231628,0.0040130615234375,-0.996124267578125,0.2083740234375,-0.00276409489539324,0.0670330962178395,0.00512978089171063
1492638172.1,40.4515953262716,-79.9518202544074,1.54999995231628,0.055877685546875,-0.933883666992188,0.201278686523438,-0.0464686989124656,0.0332759315044311,-0.0101575627136712
1492638172.3,40.4516062779543,-79.9518266600809,1.35000002384186,0.064971923828125,-0.966629028320312,0.20965576171875,-0.0453001038261388,0.0236928126378899,-0.0229154359156958
1492638172.5,40.4516062779543,-79.9518266600809,1.35000002384186,0.0582427978515625,-0.934524536132812,0.235733032226562,0.0148662978370403,0.00628665806924105,0.00653326678618239
1492638172.7,40.4516062779543,-79.9518266600809,1.35000002384186,0.047271728515625,-0.996871948242188,0.176300048828125,-0.00220003737651446,0.00427037880794206,0.00742995312521207
1492638172.9,40.4516062779543,-79.9518266600809,1.35000002384186,0.0657958984375,-0.95855712890625,0.170639038085938,-0.0128247185453856,-0.00629890861025541,-0.000115048559091423
1492638173.1,40.4516062779543,-79.9518266600809,1.35000002384186,0.0368194580078125,-0.96697998046875,0.174468994140625,-0.0159909507653808,-0.00840626798083511,-0.0033406692713954
1492638173.3,40.4516176204002,-79.9518332943131,1.0900000333786,0.0734100341796875,-0.966094970703125,0.167190551757812,-0.0191598461464661,-0.00306689631133525,-0.00232067857389505
1492638173.5,40.4516176204002,-79.9518332943131,1.0900000333786,0.0467376708984375,-0.977157592773438,0.163238525390625,-0.0136684079787227,0.00753355009161615,-0.00868909568860153
1492638173.7,40.4516176204002,-79.9518332943131,1.0900000333786,0.07171630859375,-0.961746215820312,0.148361206054688,-0.0158058610696203,0.00648373198990691,-0.0087082704484501
1492638173.9,40.4516176204002,-79.9518332943131,1.0900000333786,0.0597991943359375,-0.97821044921875,0.188186645507812,-0.0192637094289792,-0.0051926314934365,0.00408102805443742
1492638174.1,40.4516176204002,-79.9518332943131,1.0900000333786,0.061248779296875,-0.971755981445312,0.215988159179688,-0.0117187077446757,0.00114009926266292,0.000943291658106066
1492638174.3,40.4516212322331,-79.9518354068854,0.270000010728836,0.0605926513671875,-0.961029052734375,0.212356567382812,-0.00953997565688185,-0.00206608037368347,-0.00435719785947864
1492638174.5,40.4516212322331,-79.9518354068854,0.270000010728836,0.0597076416015625,-0.953109741210938,0.20306396484375,-0.0169145350314203,0.00649145515706814,-0.00552099925584327
1492638174.7,40.4516212322331,-79.9518354068854,0.270000010728836,0.0555877685546875,-0.973739624023438,0.204803466796875,-0.0159802981210205,-0.00308740265172886,-0.00122185830812835
1492638174.9,40.4516212322331,-79.9518354068854,0.270000010728836,0.0609283447265625,-0.953704833984375,0.258102416992188,-0.0128247185453856,-0.00629890861025541,-0.000115048559091423
1492638175.1,40.4516212322331,-79.9518354068854,0.270000010728836,0.0587310791015625,-0.962890625,0.22711181640625,-0.0181630249504494,-0.00626402119997538,0.000896420022920672
1492638175.3,40.4516198983083,-79.9518346266686,0.0,0.0641632080078125,-0.948211669921875,0.247344970703125,-0.0138295292246725,-0.00416545026099294,-0.00332948399481706
1492638175.5,40.4516198983083,-79.9518346266686,0.0,0.0601959228515625,-0.962081909179688,0.243087768554688,-0.0149541821530129,-0.006285060172587,-0.000136886480030073
1492638175.7,40.4516198983083,-79.9518346266686,0.0,0.061737060546875,-0.955596923828125,0.236785888671875,-0.0160415508260923,-0.00734153617702144,0.000920921104949401
1492638175.9,40.4516198983083,-79.9518346266686,0.0,0.06414794921875,-0.9468994140625,0.24041748046875,-0.0138055607748618,-0.000974450642859993,-0.0033374734780873
1492638176.1,40.4516198983083,-79.9518346266686,0.0,0.059661865234375,-0.956314086914062,0.230300903320312,-0.0159723086377502,-0.00202373611235121,-0.00122452146921843
1492638176.3,40.4516199920583,-79.9518346815033,0.0,0.0608062744140625,-0.956161499023438,0.240982055664062,-0.0160495403093625,-0.00840520271639908,0.00092358426603948
1492638176.5,40.4516199920583,-79.9518346815033,0.0,0.056671142578125,-0.951553344726562,0.235855102539062,-0.0149302137032022,-0.00309406055445406,-0.000144875963300311
1492638176.7,40.4516199920583,-79.9518346815033,0.0,0.059173583984375,-0.954971313476562,0.238006591796875,-0.0170370404415639,-0.00201681189351701,-0.00123544042968776
1492638176.9,40.4516199920583,-79.9518346815033,0.0,0.058837890625,-0.953659057617188,0.242294311523438,-0.0160095928930113,-0.00308687001951085,0.000910268460589084
1492638177.1,40.4516199920583,-79.9518346815033,0.0,0.058837890625,-0.954132080078125,0.2364501953125,-0.0138508345133931,-0.00310125108939727,-0.0012000203871897
1492638177.3,40.4516200858183,-79.9518347363438,0.0,0.0581817626953125,-0.957977294921875,0.240280151367188,-0.0160255718595518,-0.00521420309826614,0.000915594782769242
1492638177.5,40.4516200858183,-79.9518347363438,0.0,0.058380126953125,-0.9534912109375,0.241561889648438,-0.0160042665708312,-0.0062784022698618,-0.00121386882485812
1492638177.7,40.4516200858183,-79.9518347363438,0.0,0.0609893798828125,-0.954910278320312,0.2413330078125,-0.0149461926697427,-0.00522139363320935,-0.000139549641120152
1492638177.9,40.4516200858183,-79.9518347363438,0.0,0.056854248046875,-0.9527587890625,0.232635498046875,-0.0192197672709929,-0.00519343044176352,0.000882837901361267
1492638178.1,40.4516200858183,-79.9518347363438,0.0,0.059417724609375,-0.95526123046875,0.2420654296875,-0.0170756562773701,-0.00520754519554094,-0.000161387562058802
1492638178.3,40.4516201795694,-79.9518347911791,0.0,0.058563232421875,-0.9580078125,0.234939575195312,-0.0128007500955749,-0.00310790899212247,-0.000123038042361661
1492638178.5,40.4516201795694,-79.9518347911791,0.0,0.0602874755859375,-0.957168579101562,0.241165161132812,-0.0160335613428221,-0.00627786963764379,0.000918257943859321
1492638178.7,40.4516201795694,-79.9518347911791,0.0,0.0560455322265625,-0.953033447265625,0.2376708984375,-0.0170836457606403,-0.00627121173491859,-0.000158724400968723
1492638178.9,40.4516201795694,-79.9518347911791,0.0,0.0590972900390625,-0.957061767578125,0.240676879882812,-0.0149528505724679,-0.0041574607777227,0.000923850582148488
