timestamp,latitude,longitude,speed,accelerometerX,accelerometerY,accelerometerZ,gyroX,gyroY,gyroZ
1492638406.7,40.4482732887196,-79.9456688488601,2.24000000953674,0.0171966552734375,-0.929275512695312,0.293472290039062,-0.0245407631289712,-0.0126055403876721,-0.00341736831078968
1492638406.9,40.4482732887196,-79.9456688488601,2.24000000953674,0.057098388671875,-0.929946899414062,0.260452270507812,-0.0306681641650255,-0.0051220577245494,-0.0184264115822582
1492638407.1,40.4482732887196,-79.9456688488601,2.24000000953674,0.063018798828125,-0.93267822265625,0.252792358398438,-0.0302372647006507,-0.0466061180247137,0.00514176511661599
1492638407.3,40.4482881971877,-79.9456919537467,2.51999998092651,0.0386962890625,-0.951675415039062,0.328704833984375,0.00340857987919242,0.00316676485221322,-0.0138340565985256
1492638407.5,40.4482881971877,-79.9456919537467,2.51999998092651,0.05145263671875,-0.94500732421875,0.358932495117188,-0.0374040975101629,-0.0220951822999514,-0.00245836400225214
1492638407.7,40.4482881971877,-79.9456919537467,2.51999998092651,0.0537261962890625,-0.898483276367188,0.353836059570312,-0.0177875192367482,0.0203244464911577,-0.0119629196166359
1492638407.9,40.4482881971877,-79.9456919537467,2.51999998092651,0.119552612304688,-0.892578125,0.367355346679688,-0.00625789592946819,-0.0137903807566483,-0.0170879068183844
1492638408.1,40.4483031264382,-79.9457150908414,3.14000010490417,0.038726806640625,-0.920318603515625,0.343521118164062,-0.00308633738729283,-0.0031726238066114,-0.00961933785736621
1492638408.3,40.4483031264382,-79.9457150908414,3.14000010490417,0.0947113037109375,-0.945419311523438,0.352264404296875,-0.0169225245146905,-0.00627414121211768,-0.0118854216289146
1492638408.5,40.4483031264382,-79.9457150908414,3.14000010490417,0.030731201171875,-0.929092407226562,0.334304809570312,-0.0523383059550002,-0.00816818137938203,0.00694871991623475
1492638408.7,40.4483031264382,-79.9457150908414,3.14000010490417,0.072967529296875,-0.887542724609375,0.377120971679688,0.037507960792676,0.00081705782243631,-0.0166775136944032
1492638408.9,40.4483031264382,-79.9457150908414,3.14000010490417,0.0522613525390625,-0.928665161132812,0.302597045898438,-0.0564534224713907,-0.000696416625055721,0.00049002164057458
1492638409.1,40.4483282081245,-79.945753962006,4.42000007629395,0.0208587646484375,-0.962371826171875,0.315643310546875,-0.0882702080145673,-0.0111290838793321,-0.0147358029436264
1492638409.3,40.4483282081245,-79.945753962006,4.42000007629395,0.022552490234375,-0.925201416015625,0.341964721679688,0.0348378754837625,-0.0321374301384222,0.00470447406562497
1492638409.5,40.4483282081245,-79.945753962006,4.42000007629395,0.053375244140625,-0.96435546875,0.28436279296875,0.00661875425717393,0.0169752551042741,-0.00743954050513635
1492638409.7,40.4483282081245,-79.945753962006,4.42000007629395,0.03741455078125,-0.945098876953125,0.299880981445312,-0.0363207235787187,-0.00401764482049354,0.00603578829455559
1492638409.9,40.4483282081245,-79.945753962006,4.42000007629395,0.0645751953125,-0.909088134765625,0.32122802734375,0.0149613726879562,0.0573354614244249,-0.0501068432776229
1492638410.1,40.4483554193493,-79.9457961334927,5.19000005722046,0.0843048095703125,-0.937118530273438,0.230361938476562,-0.0913086085022388,0.0154841512099387,-0.0116369486992102
1492638410.3,40.4483554193493,-79.9457961334927,5.19000005722046,0.049835205078125,-0.963165283203125,0.270538330078125,-0.0434169826193438,0.0162367605339951,-0.00901613187046326
1492638410.5,40.4483554193493,-79.9457961334927,5.19000005722046,0.07489013671875,-0.955047607421875,0.290267944335938,0.000916926363314282,-0.0138337902824166,0.00324373020771651
1492638410.7,40.4483554193493,-79.9457961334927,5.19000005722046,0.0306549072265625,-0.92816162109375,0.260787963867188,-0.00957326517050784,-0.00844834592605837,-0.00540728227729689
1492638410.9,40.4483554193493,-79.9457961334927,5.19000005722046,0.079437255859375,-0.93731689453125,0.332275390625,-0.0538792109617201,0.00779214303346284,-0.0272270937205341
1492638411.1,40.4483554193493,-79.9457961334927,5.19000005722046,0.0511932373046875,-0.915115356445312,0.2933349609375,0.0129445607944391,-0.00114995295869621,-0.0126590699255827
1492638411.3,40.448386923977,-79.945844958821,5.34999990463257,0.0947113037109375,-0.925186157226562,0.336807250976562,-0.0632226453301541,-0.000647947093216279,0.0281421558710853
1492638411.5,40.448386923977,-79.945844958821,5.34999990463257,0.050323486328125,-0.95159912109375,0.28411865234375,-0.020098077798501,0.0235330229724852,0.00293214036017724
1492638411.7,40.448386923977,-79.945844958821,5.34999990463257,0.0774993896484375,-0.9354248046875,0.308364868164062,-0.0192663725900692,-0.00944783028316511,0.0019595539300803
1492638411.9,40.448386923977,-79.945844958821,5.34999990463257,0.111465454101562,-0.950897216796875,0.325454711914062,0.0187609046151722,0.037103692939202,-0.0276252363035009
1492638412.1,40.4484226504141,-79.9459003270367,5.80000019073486,0.0720672607421875,-0.93975830078125,0.330917358398438,-0.0334580917229925,-0.0189257542866481,0.0220967801966055
1492638412.3,40.4484226504141,-79.9459003270367,5.80000019073486,0.0477752685546875,-0.966064453125,0.29412841796875,0.000775778825540082,0.00638120028793886,0.0245143978341794
1492638412.5,40.4484226504141,-79.9459003270367,5.80000019073486,0.0500640869140625,-1.000732421875,0.224899291992188,-0.0232416731492305,0.010787133995366,-0.00772929243173697
1492638412.7,40.4484226504141,-79.9459003270367,5.80000019073486,0.02532958984375,-0.980331420898438,0.199493408203125,-0.00673992808677254,-0.0116539929301867,0.0191529219276319
1492638412.9,40.4484226504141,-79.9459003270367,5.80000019073486,0.025177001953125,-0.986404418945312,0.165313720703125,0.00272414747904205,-0.0489475692551114,0.00761770598206265
1492638413.1,40.4484226504141,-79.9459003270367,5.80000019073486,0.01287841796875,-0.949005126953125,0.192459106445312,-0.0490588893886767,-0.0124457507222673,-0.00153637763286671
1492638413.3,40.4484259015978,-79.9459053656651,6.57000017166138,-0.0433502197265625,-0.932510375976562,0.175689697265625,-0.0170876405022754,-0.000952080089703328,0.00302614994665704
1492638413.5,40.4484259015978,-79.9459053656651,6.57000017166138,-0.019989013671875,-1.01634216308594,0.2042236328125,-0.0333169441852183,-0.0274388150271954,0.00719319810430402
1492638413.7,40.4484259015978,-79.9459053656651,6.57000017166138,0.0771331787109375,-1.00332641601562,0.194076538085938,0.0155640460426411,0.032869266805976,-0.029779467309266
1492638413.9,40.4484259015978,-79.9459053656651,6.57000017166138,0.0034637451171875,-0.918624877929688,0.224151611328125,-0.00850587020560408,0.0192037883044524,0.00945928187585245
1492638414.1,40.4484259015978,-79.9459053656651,6.57000017166138,0.0303497314453125,-0.95294189453125,0.269821166992188,-0.0422510506941071,0.0492061621969581,0.0015728629398008
1492638414.3,40.4484259015978,-79.9459053656651,6.3899998664856,0.0308685302734375,-0.928741455078125,0.32171630859375,0.00705764320481899,-0.0117432088267044,0.0224930585668092
1492638414.5,40.4484259015978,-79.9459053656651,6.3899998664856,0.091217041015625,-0.856094360351562,0.267105102539062,-0.0409066869758351,0.0396198475371088,-0.0239777708745284
1492638414.7,40.4484259015978,-79.9459053656651,6.3899998664856,0.0497894287109375,-0.9312744140625,0.22381591796875,0.0143949183240963,-0.00966194843480748,0.0321587354271428
1492638414.9,40.4484259015978,-79.9459053656651,6.3899998664856,0.0111846923828125,-0.978134155273438,0.220672607421875,-0.0567924428781578,0.0237649843034311,-0.0390264952462392
1492638415.1,40.4484259015978,-79.9459053656651,6.3899998664856,0.0543365478515625,-0.918258666992188,0.251388549804688,0.00209750567454641,-0.004268514595179,3.24905652989667e-05
1492638415.3,40.4485384302661,-79.946085614572,6.73000001907349,0.062774658203125,-0.934234619140625,0.275772094726562,-0.0296620219051935,0.0182759429806688,-0.00141706801603116
1492638415.5,40.4485384302661,-79.946085614572,6.73000001907349,0.021697998046875,-0.927627563476562,0.234405517578125,-0.0350962021095002,0.0172487617482252,0.00599344403322333
1492638415.7,40.4485384302661,-79.946085614572,6.73000001907349,0.0186767578125,-0.952178955078125,0.239089965820312,-0.0513414847589836,0.0120385533915942,0.0228999895813734
1492638415.9,40.4485384302661,-79.946085614572,6.73000001907349,-0.0624237060546875,-0.95098876953125,0.208755493164062,-0.021777999814123,-0.0349585166811431,0.0158604558719669
1492638416.1,40.4485756525894,-79.9461452401541,6.78999996185303,-0.032989501953125,-0.946640014648438,0.22265625,0.00580249538306464,-0.0585405418176858,0.0108726214663575
1492638416.3,40.4485756525894,-79.9461452401541,6.78999996185303,-0.0554351806640625,-0.940185546875,0.281524658203125,0.0235559261578599,-0.000154729659333604,-0.00935435332890332
1492638416.5,40.4485756525894,-79.9461452401541,6.78999996185303,0.00506591796875,-0.946914672851562,0.273468017578125,0.00381151615212141,-0.0478910932506769,0.00655989839708318
1492638416.7,40.4485756525894,-79.9461452401541,6.78999996185303,0.0174713134765625,-0.935470581054688,0.282012939453125,-0.00742649101579496,-0.0276111215497235,-0.0170642046846827
1492638416.9,40.4485756525894,-79.9461452401541,6.78999996185303,0.0161590576171875,-0.99951171875,0.223602294921875,0.00956394410669256,-0.0181467796677999,-0.00838496269211448
1492638417.1,40.4485756525894,-79.9461452401541,6.78999996185303,0.063140869140625,-0.918655395507812,0.229522705078125,-0.0240014730082301,0.0533409861054151,-0.00678067445145075
1492638417.3,40.4486156987793,-79.946209389223,6.96999979019165,-0.01043701171875,-0.953521728515625,0.292144775390625,-0.0350903431551021,0.0661715636051988,-0.0453110227866082
1492638417.5,40.4486156987793,-79.946209389223,6.96999979019165,0.0673370361328125,-0.942581176757812,0.176864624023438,-0.0283376318950971,0.0235833567170877,-0.017410415626393
1492638417.7,40.4486156987793,-79.946209389223,6.96999979019165,0.0012969970703125,-0.9466552734375,0.18487548828125,-0.035290080236858,0.0395799001207576,-0.0452444437593562
1492638417.9,40.4486156987793,-79.946209389223,6.96999979019165,0.093353271484375,-0.934707641601562,0.24139404296875,-0.00234784281701386,-0.00955648725564034,0.0106627643724593
1492638418.1,40.4486156987793,-79.946209389223,6.96999979019165,0.07647705078125,-0.929107666015625,0.192245483398438,-0.017610951656476,-0.0179635541848025,0.0318524719017837
1492638418.3,40.4486557680196,-79.9462735752157,7.11999988555908,-0.0362548828125,-0.92279052734375,0.193923950195312,0.0637467554326817,-0.0206253836943367,-0.000360325695487721
1492638418.5,40.4486557680196,-79.9462735752157,7.11999988555908,0.01226806640625,-1.005859375,0.186172485351562,0.0448966349209918,-0.0481531483019407,0.0389676393861484
1492638418.7,40.4486557680196,-79.9462735752157,7.11999988555908,0.0624237060546875,-0.991424560546875,0.178619384765625,-0.0126004803816009,0.0990019482592596,-0.036635775535675
1492638418.9,40.4486557680196,-79.9462735752157,7.11999988555908,0.0377960205078125,-0.983688354492188,0.214706420898438,-0.045573077837872,0.00880441056380196,-0.0111514544324888
1492638419.1,40.4486557680196,-79.9462735752157,7.11999988555908,0.0692596435546875,-0.953277587890625,0.200607299804688,-0.0339329333453536,0.0225591049618432,0.00172679365080738
1492638419.3,40.4486944801409,-79.9463355872709,6.84000015258789,0.031097412109375,-0.971435546875,0.249984741210938,-0.0224698890653256,-0.0126183235609044,0.000868723147583848
1492638419.5,40.4486944801409,-79.9463355872709,6.84000015258789,0.058349609375,-0.989227294921875,0.169464111328125,0.0151712297818544,0.00202586664122328,-0.0179755384097078
1492638419.7,40.4486944801409,-79.9463355872709,6.84000015258789,0.0529632568359375,-1.00367736816406,0.213119506835938,0.00881879163368839,0.0244068061261402,-0.00850240809618698
1492638419.9,40.4486944801409,-79.9463355872709,6.84000015258789,0.032501220703125,-1.00137329101562,0.264862060546875,-0.032837575189004,0.00127538784603895,-0.0120678481635851
1492638420.1,40.4486944801409,-79.9463355872709,6.84000015258789,0.0484619140625,-0.956390380859375,0.222930908203125,-0.015998940248651,0.00223199530959541,0.00302907942385613
1492638420.3,40.4487338036296,-79.9463985786613,6.65999984741211,-0.00732421875,-0.923263549804688,0.21490478515625,-0.0292963698875257,-0.033845049029381,0.0211116769093851
1492638420.5,40.4487338036296,-79.9463985786613,6.65999984741211,-0.03887939453125,-0.988861083984375,0.195877075195312,0.0277336269598672,-0.0363505509829276,-0.0230789540066267
1492638420.7,40.4487338036296,-79.9463985786613,6.65999984741211,0.0469818115234375,-1.00370788574219,0.197402954101562,0.00950881667212792,-0.0521753204962874,0.0546089171004018
1492638420.9,40.4487338036296,-79.9463985786613,6.65999984741211,-0.0029449462890625,-0.934280395507812,0.211212158203125,0.0176170769269832,-0.0586185724376251,0.00353028634100904
1492638421.1,40.4487338036296,-79.9463985786613,6.65999984741211,0.09979248046875,-0.952606201171875,0.155288696289062,-0.103589243236921,-0.00357795692452146,0.0192067177816515
1492638421.3,40.4487700920526,-79.94645670825,6.28000020980835,-0.050872802734375,-0.943466186523438,0.186477661132812,-0.0216475049207091,-0.0253865830911803,0.0115722338847213
1492638421.5,40.4487700920526,-79.94645670825,6.28000020980835,-0.0303802490234375,-0.945022583007812,0.193923950195312,-0.0221401897223737,-0.0753767799130577,0.0202259095308248
1492638421.7,40.4487700920526,-79.94645670825,6.28000020980835,-0.0577545166015625,-1.00799560546875,0.168991088867188,0.00576201533449544,-0.115973208621899,0.0600662668061922
1492638421.9,40.4487700920526,-79.94645670825,6.28000020980835,-0.082977294921875,-0.962142944335938,0.13067626953125,0.016535034576084,-0.0628665806924105,0.00246395664054131
1492638422.1,40.4487700920526,-79.94645670825,6.28000020980835,-0.0677337646484375,-0.977859497070312,0.0983734130859375,-0.0416915205490815,-0.11886140682409,0.0244028113845051
1492638422.3,40.4488050213162,-79.9465126606326,5.78999996185303,-0.0571746826171875,-0.995147705078125,0.131271362304688,0.0254957726958736,-0.132065359508702,0.0101977764461314
1492638422.5,40.4488050213162,-79.9465126606326,5.78999996185303,0.01531982421875,-1.02572631835938,0.134231567382812,-0.0163091985156453,-0.0605272599908849,-0.00854049129977511
1492638422.7,40.4488050213162,-79.9465126606326,5.78999996185303,-0.052154541015625,-0.974533081054688,0.115066528320312,-0.0149067778856095,-0.110527044192687,0.0171920364170065
1492638422.9,40.4488050213162,-79.9465126606326,5.78999996185303,0.0281219482421875,-0.975601196289062,0.08660888671875,-0.0128766501866421,-0.0658714253503469,-0.0287496229157324
1492638423.1,40.4488050213162,-79.9465126606326,5.78999996185303,0.0211029052734375,-1.00920104980469,0.0919952392578125,-0.0390454036899787,-0.089097918481364,0.00302881310774712
1492638423.3,40.4488339669642,-79.9465590279991,4.61999988555908,0.02386474609375,-0.990798950195312,0.06732177734375,-0.0122446820599663,-0.0786362227712057,-0.00418728818193159
1492638423.5,40.4488339669642,-79.9465590279991,4.61999988555908,0.0990447998046875,-0.977737426757812,0.0643463134765625,-0.036533776465925,-0.0401833724237696,0.0018620822341834
1492638423.7,40.4488339669642,-79.9465590279991,4.61999988555908,0.0619659423828125,-0.9830322265625,0.10369873046875,-0.0114129768515346,-0.0648093567076233,0.0203084675246172
1492638423.9,40.4488339669642,-79.9465590279991,4.61999988555908,0.0410003662109375,-0.996368408203125,0.0805816650390625,0.00362908961745098,-0.0585258944316903,0.014048973698495
1492638424.1,40.4488339669642,-79.9465590279991,4.61999988555908,0.081085205078125,-0.98089599609375,0.122161865234375,-0.0133746613104869,-0.0541604407728325,0.0138636176866255
1492638424.3,40.4488516551094,-79.9465873622314,3.22000002861023,0.0862274169921875,-0.986053466796875,0.122283935546875,0.00167805780285893,-0.0191542535081769,0.0224571058920932
1492638424.5,40.4488516551094,-79.9465873622314,3.22000002861023,0.073822021484375,-1.00300598144531,0.13067626953125,0.000622647062860526,-0.0276579931849089,0.0171371752985509
1492638424.7,40.4488516551094,-79.9465873622314,3.22000002861023,0.026092529296875,-0.989089965820312,0.119400024414062,0.00272015273740693,-0.0319265077800879,0.0171696658638499
1492638424.9,40.4488516551094,-79.9465873622314,3.22000002861023,0.0468902587890625,-1.00129699707031,0.0832061767578125,0.00372496341669383,-0.0340599661293504,0.0203841012995755
1492638425.1,40.4488516551094,-79.9465873622314,3.22000002861023,0.0484619140625,-0.991561889648438,0.0778961181640625,0.00826352254640687,-0.0202631937860859,0.00760039543497714
1492638425.3,40.4488679941953,-79.9466135354366,2.16000008583069,0.0680389404296875,-1.00627136230469,0.0681610107421875,0.00186048433752936,-0.0202213821569717,0.00860094505651991
1492638425.5,40.4488679941953,-79.9466135354366,2.16000008583069,0.050811767578125,-0.976089477539062,0.0848388671875,-0.00995010246475405,-0.0254624831822476,0.0127584058342426
1492638425.7,40.4488679941953,-79.9466135354366,2.16000008583069,0.0494232177734375,-0.991439819335938,0.09197998046875,-0.016065519275903,-0.0222344656249626,-0.0054381749459418
1492638425.9,40.4488679941953,-79.9466135354366,2.16000008583069,0.0606689453125,-0.990463256835938,0.112060546875,0.00288127398335673,-0.0202275074274788,0.0118100541700654
1492638426.1,40.4488679941953,-79.9466135354366,2.16000008583069,0.064300537109375,-0.964584350585938,0.164306640625,-0.0106646285852223,-0.00418569028527754,-0.00116460034469165
1492638426.3,40.4488699897681,-79.9466167320987,0.550000011920929,0.0755615234375,-0.960189819335938,0.21551513671875,-0.00536626959650967,-0.00953891039244581,-0.00216275312125335
1492638426.5,40.4488699897681,-79.9466167320987,0.550000011920929,0.0848388671875,-0.960708618164062,0.225357055664062,-0.015997608668106,-0.00734233512534846,-0.00227726904812676
1492638426.7,40.4488699897681,-79.9466167320987,0.550000011920929,0.0794525146484375,-0.960983276367188,0.2271728515625,-0.0139267346044604,-0.00735511829858084,0.00200882241024677
1492638426.9,40.4488699897681,-79.9466167320987,0.550000011920929,0.069610595703125,-0.964874267578125,0.189804077148438,-0.0170916352439105,-0.00733487827429624,-0.000156061239878643
1492638427.1,40.4488699897681,-79.9466167320987,0.550000011920929,0.07659912109375,-0.971282958984375,0.166915893554688,-0.0139200767017352,-0.0084190511540675,0.00094542218697813
1492638427.3,40.4488720739346,-79.9466200706769,0.189999997615814,0.0754241943359375,-0.96856689453125,0.206649780273438,-0.0171369089824419,-0.00946167872083352,0.00198139185101895
1492638427.5,40.4488720739346,-79.9466200706769,0.189999997615814,0.0726318359375,-0.9462890625,0.25469970703125,-0.0117599867415719,-0.00630583282908962,-0.000104129598622098
1492638427.7,40.4488720739346,-79.9466200706769,0.189999997615814,0.0726318359375,-0.963516235351562,0.22174072265625,-0.017106282629906,-0.00733461195818723,0.000910002144480076
1492638427.9,40.4488720739346,-79.9466200706769,0.189999997615814,0.067962646484375,-0.955734252929688,0.222991943359375,-0.0192197672709929,-0.00519343044176352,0.000882837901361267
1492638428.1,40.4488720739346,-79.9466200706769,0.189999997615814,0.0731658935546875,-0.964569091796875,0.221893310546875,-0.0138441766106679,-0.00416518394488393,-0.00226342061045834
1492638428.3,40.4488715472281,-79.946619226958,0.0,0.0699310302734375,-0.9525146484375,0.232772827148438,-0.0139200767017352,-0.0084190511540675,0.00094542218697813
1492638428.5,40.4488715472281,-79.946619226958,0.0,0.075958251953125,-0.947555541992188,0.233016967773438,-0.0170450299248341,-0.00308047843289465,-0.00123277726859768
1492638428.7,40.4488715472281,-79.946619226958,0.0,0.068115234375,-0.963302612304688,0.222518920898438,-0.0149701611195534,-0.0084123932513423,-0.000131560157849914
1492638428.9,40.4488715472281,-79.946619226958,0.0,0.0816802978515625,-0.955276489257812,0.23370361328125,-0.0149168978977518,-0.00522192626542737,-0.00227167640983759
1492638429.1,40.4488715472281,-79.946619226958,0.0,0.0697479248046875,-0.956466674804688,0.229156494140625,-0.0160482087288175,-0.00627760332153478,0.00198432132821804
1492638429.3,40.4488715661451,-79.9466192572607,0.0,0.0786285400390625,-0.958267211914062,0.224960327148438,-0.0149528505724679,-0.0041574607777227,0.000923850582148488
1492638429.5,40.4488715661451,-79.9466192572607,0.0,0.0700531005859375,-0.9559326171875,0.226913452148438,-0.016032229762277,-0.00415027024277949,0.00197899500603788
1492638429.7,40.4488715661451,-79.9466192572607,0.0,0.078582763671875,-0.95672607421875,0.22894287109375,-0.017039703602654,-0.00627201068324561,-0.00335691455404488
1492638429.9,40.4488715661451,-79.9466192572607,0.0,0.07037353515625,-0.954055786132812,0.229843139648438,-0.0138961082519245,-0.00522805153593455,0.000937432703707892
1492638430.1,40.4488715661451,-79.9466192572607,0.0,0.079071044921875,-0.955276489257812,0.226486206054688,-0.0159882876042907,-0.00415106919110651,-0.00121919514703828
1492638430.3,40.4488715850452,-79.9466192875363,0.0,0.07135009765625,-0.956314086914062,0.22906494140625,-0.0181470459839089,-0.00413668812122008,0.000891093700740513
1492638430.5,40.4488715850452,-79.9466192875363,0.0,0.0750732421875,-0.95574951171875,0.232131958007812,-0.0160029349902861,-0.0041508028749975,-0.000153131762679556
1492638430.7,40.4488715850452,-79.9466192875363,0.0,0.0759124755859375,-0.953887939453125,0.225357055664062,-0.0149315452837473,-0.00522165994931836,-0.00120561302547887
1492638430.9,40.4488715850452,-79.9466192875363,0.0,0.0741119384765625,-0.955886840820312,0.228515625,-0.0159736402182953,-0.00415133550721552,-0.00228525853139699
1492638431.1,40.4488715850452,-79.9466192875363,0.0,0.0742034912109375,-0.95452880859375,0.230133056640625,-0.0149315452837473,-0.00522165994931836,-0.00120561302547887
1492638431.3,40.4488716039456,-79.9466193178124,0.0,0.0710296630859375,-0.955245971679688,0.226486206054688,-0.0170689983746449,-0.0062714780510276,-0.00122478778532744
1492638431.5,40.4488716039456,-79.9466193178124,0.0,0.0767669677734375,-0.954498291015625,0.223876953125,-0.0170836457606403,-0.00627121173491859,-0.000158724400968723
1492638431.7,40.4488716039456,-79.9466193178124,0.0,0.074493408203125,-0.956619262695312,0.224639892578125,-0.0170836457606403,-0.00627121173491859,-0.000158724400968723
1492638431.9,40.4488716039456,-79.9466193178124,0.0,0.0739288330078125,-0.955703735351562,0.231460571289062,-0.0149382031864725,-0.00415772709383171,-0.000142212802210231
1492638432.1,40.4488716039456,-79.9466193178124,0.0,0.07330322265625,-0.954803466796875,0.224151611328125,-0.0139040977351947,-0.0062917180753122,0.000940095864797971
1492638432.3,40.4488720779537,-79.9466200771151,0.0,0.0730743408203125,-0.953643798828125,0.224853515625,-0.0138588239966633,-0.00416491762877492,-0.00119735722609963
1492638432.5,40.4488720779537,-79.9466200771151,0.0,0.0762176513671875,-0.953506469726562,0.23052978515625,-0.0149315452837473,-0.00522165994931836,-0.00120561302547887
1492638432.7,40.4488720779537,-79.9466200771151,0.0,0.074554443359375,-0.957489013671875,0.230377197265625,-0.0149315452837473,-0.00522165994931836,-0.00120561302547887
1492638432.9,40.4488720779537,-79.9466200771151,0.0,0.074127197265625,-0.955856323242188,0.230712890625,-0.0170903036633655,-0.00520727887943193,0.000904675822299917
1492638433.1,40.4488720779537,-79.9466200771151,0.0,0.072357177734375,-0.956207275390625,0.227554321289062,-0.013881460865929,-0.00522831785204356,-0.000128630680650827
1492638433.3,40.4488713009251,-79.9466188324108,0.0,0.07440185546875,-0.955657958984375,0.228225708007812,-0.0138588239966633,-0.00416491762877492,-0.00119735722609963
1492638433.5,40.4488713009251,-79.9466188324108,0.0,0.071624755859375,-0.956039428710938,0.228546142578125,-0.0149382031864725,-0.00415772709383171,-0.000142212802210231
1492638433.7,40.4488713009251,-79.9466188324108,0.0,0.0764007568359375,-0.958404541015625,0.228515625,-0.0139120872184649,-0.00735538461468985,0.00094275902588805
1492638433.9,40.4488713009251,-79.9466188324108,0.0,0.074676513671875,-0.956008911132812,0.230178833007812,-0.0160175823762816,-0.00415053655888849,0.000912931621679163
1492638434.1,40.4488713009251,-79.9466188324108,0.0,0.075469970703125,-0.95379638671875,0.225906372070312,-0.0128233869648405,-0.00417130921539111,0.000945688503087137
1492638434.3,40.4488715202156,-79.9466191836872,0.0,0.0734100341796875,-0.954116821289062,0.22869873046875,-0.0149382031864725,-0.00415772709383171,-0.000142212802210231
1492638434.5,40.4488715202156,-79.9466191836872,0.0,0.0753631591796875,-0.95574951171875,0.226913452148438,-0.0149475242502877,-0.00734899302807366,-0.00120028670329871
1492638434.7,40.4488715202156,-79.9466191836872,0.0,0.073394775390625,-0.95684814453125,0.227142333984375,-0.0159882876042907,-0.00415106919110651,-0.00121919514703828
1492638434.9,40.4488715202156,-79.9466191836872,0.0,0.0754852294921875,-0.954818725585938,0.23284912109375,-0.0160109244735564,-0.00521446941437515,-0.000150468601589477
1492638435.1,40.4488715202156,-79.9466191836872,0.0,0.0723419189453125,-0.957000732421875,0.22894287109375,-0.0149382031864725,-0.00415772709383171,-0.000142212802210231
1492638435.3,40.4488715391053,-79.9466192139462,0.0,0.0737762451171875,-0.953689575195312,0.226425170898438,-0.0149315452837473,-0.00522165994931836,-0.00120561302547887
1492638435.5,40.4488715391053,-79.9466192139462,0.0,0.075653076171875,-0.956130981445312,0.232025146484375,-0.0160042665708312,-0.0062784022698618,-0.00121386882485812
1492638435.7,40.4488715391053,-79.9466192139462,0.0,0.0755462646484375,-0.955612182617188,0.230239868164062,-0.0149089084144816,-0.00415825972604972,-0.00227433957092767
1492638435.9,40.4488715391053,-79.9466192139462,0.0,0.070892333984375,-0.956497192382812,0.228805541992188,-0.0138668134799336,-0.00522858416815257,-0.00119469406500955
1492638436.1,40.4488715391053,-79.9466192139462,0.0,0.076019287109375,-0.952926635742188,0.22845458984375,-0.0170756562773701,-0.00520754519554094,-0.000161387562058802
1492638436.3,40.4488715579934,-79.9466192442027,0.0,0.073974609375,-0.95538330078125,0.229248046875,-0.0149541821530129,-0.006285060172587,-0.000136886480030073
1492638436.5,40.4488715579934,-79.9466192442027,0.0,0.07513427734375,-0.956146240234375,0.227142333984375,-0.0159510033490296,-0.00308793528394688,-0.00335398507684579
1492638436.7,40.4488715579934,-79.9466192442027,0.0,0.0738372802734375,-0.94781494140625,0.241653442382812,-0.0191372092772004,-0.00200349608806661,-0.00338940511934385
1492638436.9,40.4488715579934,-79.9466192442027,0.0,0.08941650390625,-0.948486328125,0.259063720703125,-0.0107724866093705,-0.0126942236519717,0.00205489509710514
1492638437.1,40.4488715579934,-79.9466192442027,0.0,0.069976806640625,-0.947921752929688,0.268356323242188,-0.0127474868737733,8.25579937924564e-05,-0.00226315429434934
1492638437.3,40.4488716152715,-79.9466193359551,0.0,0.077728271484375,-0.945037841796875,0.260482788085938,-0.0096225336506743,-0.00525601472738038,-8.49548387735277e-05
1492638437.5,40.4488716152715,-79.9466193359551,0.0,0.0708770751953125,-0.929946899414062,0.333969116210938,0.000862331560967657,-0.0191518566631958,0.00432310939752563
1492638437.7,40.4488716152715,-79.9466193359551,0.0,0.0742645263671875,-0.925033569335938,0.35858154296875,-0.0106246811688711,-0.0105692874181975,-0.00754500168430349
1492638437.9,40.4488716152715,-79.9466193359551,0.0,0.0981597900390625,-0.9200439453125,0.367935180664062,-0.0275725057139174,0.00124183201630395,-0.00774899982380356
1492638438.1,40.4488716152715,-79.9466193359551,0.0,0.101715087890625,-0.914031982421875,0.379501342773438,-0.00728933821965588,0.00430073884436896,-0.00968165582687406
1492638438.3,40.4488732272887,-79.9466219182084,0.730000019073486,0.07061767578125,-0.932968139648438,0.3709716796875,-0.00979697070207449,-0.0265290791988243,0.00103437176738678
1492638438.5,40.4488732272887,-79.9466219182084,0.730000019073486,0.0713043212890625,-0.8970947265625,0.38214111328125,-0.00900521290999394,-0.0414244054917465,0.0128092722110631
1492638438.7,40.4488732272887,-79.9466219182084,0.730000019073486,0.05389404296875,-0.895858764648438,0.395309448242188,-0.00052331115420057,-0.0521172635845237,0.00972506535264235
1492638438.9,40.4488732272887,-79.9466219182084,0.730000019073486,0.090606689453125,-0.88323974609375,0.406280517578125,0.0495185509928243,-0.116258965806864,0.0530515004949235
1492638439.1,40.4488732272887,-79.9466219182084,0.730000019073486,-0.0215301513671875,-0.900360107421875,0.398513793945312,0.0192714325961404,-0.241574543532761,0.0935813501765124
1492638439.3,40.448881229267,-79.9466347363931,2.0699999332428,0.0391998291015625,-0.888595581054688,0.331695556640625,0.0109487878735338,-0.378741987057837,0.0821217680059014
1492638439.5,40.448881229267,-79.9466347363931,2.0699999332428,0.02850341796875,-0.930313110351562,0.3258056640625,0.138588772598851,-0.338081908798943,0.115310081510469
1492638439.7,40.448881229267,-79.9466347363931,2.0699999332428,-0.0853271484375,-0.917984008789062,0.389190673828125,0.0665486672155541,-0.372710992453243,0.146648297005758
1492638439.9,40.448881229267,-79.9466347363931,2.0699999332428,-0.119003295898438,-0.879119873046875,0.393844604492188,0.0085737808134011,-0.424455147169047,0.152585548339981
1492638440.1,40.448881229267,-79.9466347363931,2.0699999332428,-0.17999267578125,-0.94854736328125,0.293930053710938,-0.0288444314505392,-0.429541518534989,0.0829116615852189
1492638440.3,40.448894132934,-79.9466554064798,3.21000003814697,-0.0928497314453125,-0.958602905273438,0.366622924804688,0.0577325387429557,-0.498179968257929,0.0999684094188494
1492638440.5,40.448894132934,-79.9466554064798,3.21000003814697,-0.0948486328125,-0.932403564453125,0.303512573242188,-0.0905133886007411,-0.512093919689157,0.185916074646759
1492638440.7,40.448894132934,-79.9466554064798,3.21000003814697,-0.231765747070312,-0.921722412109375,0.314163208007812,-0.036299418289998,-0.472033052675531,0.137321906868301
1492638440.9,40.448894132934,-79.9466554064798,3.21000003814697,-0.2015380859375,-0.984222412109375,0.353439331054688,-0.0172540880704054,-0.523218476194636,0.118457138970616
1492638441.1,40.448894132934,-79.9466554064798,3.21000003814697,-0.0561065673828125,-0.977340698242188,0.30828857421875,0.0357292355006121,-0.404438029467684,0.04725672827902
1492638441.3,40.4489494695403,-79.9466661949656,3.65000009536743,-0.0833892822265625,-0.941055297851562,0.35052490234375,-0.00160295666011869,-0.393556353253621,0.0575085668952801
1492638441.5,40.4489494695403,-79.9466661949656,3.65000009536743,0.012298583984375,-0.968032836914062,0.450088500976562,0.0371329877111928,-0.428906354615005,0.0867841641263031
1492638441.7,40.4489494695403,-79.9466661949656,3.65000009536743,-0.0997161865234375,-0.902908325195312,0.543746948242188,-0.0641923022830519,-0.334629919393982,0.149476307767313
1492638441.9,40.4489494695403,-79.9466661949656,3.65000009536743,-0.13714599609375,-0.929290771484375,0.425384521484375,-0.0120079270390583,-0.29881226694518,0.0912763842530488
1492638442.1,40.4489943577809,-79.9466192236798,5.98000001907349,-0.0613555908203125,-0.923553466796875,0.473541259765625,-0.0127964890378307,-0.227547407755204,0.0324426283993453
1492638442.3,40.4489943577809,-79.9466192236798,5.98000001907349,-0.0688018798828125,-0.87261962890625,0.525039672851562,0.00450553593219606,-0.211705860326977,0.0219167505069161
1492638442.5,40.4489943577809,-79.9466192236798,5.98000001907349,0.048309326171875,-0.867919921875,0.493438720703125,-0.0132020884718498,-0.180744748442043,0.00992719927937937
1492638442.7,40.4489943577809,-79.9466192236798,5.98000001907349,0.0941925048828125,-0.862884521484375,0.462692260742188,0.000408262595109147,-0.0776532500128574,0.0055356466418387
1492638442.9,40.4489943577809,-79.9466192236798,5.98000001907349,0.0585174560546875,-0.909500122070312,0.505508422851562,-0.00385199620069061,-0.0797531525323849,0.00443123373778284
1492638443.1,40.4489943577809,-79.9466192236798,5.98000001907349,0.095306396484375,-0.883346557617188,0.473175048828125,-0.00492019011392139,0.0127930269284136,-0.0224738838069607
1492638443.3,40.4490468566771,-79.9465642885649,8.21000003814697,0.116546630859375,-0.9163818359375,0.421951293945312,0.0226895998552571,0.0126143288192693,-0.0168596739129646
1492638443.5,40.4490468566771,-79.9465642885649,8.21000003814697,0.0204925537109375,-0.90753173828125,0.434524536132812,-0.0614508442569244,0.00571514369931005,-0.0198357564311282
1492638443.7,40.4490468566771,-79.9465642885649,8.21000003814697,0.0346221923828125,-0.955673217773438,0.377334594726562,0.0550158481149659,-0.00992799822770639,0.0208469586970313
1492638443.9,40.4490468566771,-79.9465642885649,8.21000003814697,0.067535400390625,-0.9453125,0.405532836914062,0.00869974833296185,-0.0649387863366011,0.0290444348484042
1492638444.1,40.4490468566771,-79.9465642885649,8.21000003814697,-0.0160980224609375,-0.948272705078125,0.370223999023438,0.0452503027137544,-0.0843167453763447,0.071051007354442
1492638444.3,40.449126925341,-79.9464805043033,11.1599998474121,0.113815307617188,-0.94256591796875,0.340011596679688,-0.0462977239704825,0.100280531898607,-0.0636394300407515
1492638444.5,40.449126925341,-79.9464805043033,11.1599998474121,0.091033935546875,-0.921005249023438,0.375640869140625,0.0219079620753188,-0.030987743495835,0.0162974806068489
1492638444.7,40.449126925341,-79.9464805043033,11.1599998474121,0.13128662109375,-0.885025024414062,0.3818359375,0.014385064628063,-0.0883714081359904,0.0675468199921157
1492638444.9,40.449126925341,-79.9464805043033,11.1599998474121,0.156524658203125,-0.911376953125,0.251739501953125,-0.0360570706308008,-0.00402243851045568,-0.0131533526239014
1492638445.1,40.449126925341,-79.9464805043033,11.1599998474121,0.218658447265625,-0.84136962890625,0.28619384765625,-0.0523212617240237,0.144995539233255,-0.0659489233380682
1492638445.4,40.449213789199,-79.9463896095156,12.7799997329712,0.132049560546875,-1.09001159667969,0.187515258789062,-0.190981673356198,0.172470573251276,-0.190054094348524
1492638445.5,40.449213789199,-79.9463896095156,12.7799997329712,0.363922119140625,-1.06808471679688,0.293045043945312,-0.0746998043639596,0.0281344327039241,-0.0509494674465239
1492638445.7,40.449213789199,-79.9463896095156,12.7799997329712,0.125274658203125,-1.00662231445312,0.195556640625,-0.0772591021715257,-0.0356477427712556,0.100591322797819
1492638445.9,40.449213789199,-79.9463896095156,12.7799997329712,0.00665283203125,-1.02165222167969,0.233749389648438,-0.0295461743977751,0.0395500727165487,0.00172785891524341
1492638446.1,40.449213789199,-79.9463896095156,12.7799997329712,0.0922088623046875,-1.0875244140625,0.248153686523438,0.0283682582476331,-0.00975436012463323,0.0227061114540156
1492638446.3,40.4493070231046,-79.9462900069476,13.8100004196167,0.0629119873046875,-0.9176025390625,0.26220703125,0.0259884574975382,-0.0586713030272087,0.0142782718683508
1492638446.5,40.4493070231046,-79.9462900069476,13.8100004196167,0.0797576904296875,-1.02920532226562,0.245849609375,-0.00868110620533129,0.0128116690560442,-0.0587637147170344
1492638446.7,40.4493070231046,-79.9462900069476,13.8100004196167,0.02069091796875,-0.954727172851562,0.2930908203125,0.139933402633233,-0.0296258029143685,0.0302969195090684
1492638446.9,40.4493070231046,-79.9462900069476,13.8100004196167,0.126785278320312,-1.01506042480469,0.229660034179688,-0.0185446559346578,0.0203257780717028,-0.0343611696486384
1492638447.1,40.4493070231046,-79.9462900069476,13.8100004196167,-0.0120086669921875,-0.940032958984375,0.30035400390625,0.0102345280691745,-0.0511247034462511,0.00236914810573449
1492638447.3,40.449405604413,-79.9461832720432,14.2399997711182,0.0124969482421875,-0.94683837890625,0.220611572265625,-0.0341238819955123,-0.0997633460149133,0.0265634339768864
1492638447.5,40.449405604413,-79.9461832720432,14.2399997711182,-0.033416748046875,-0.977996826171875,0.224166870117188,0.0435940828318341,0.00929150272717745,0.0100182793886601
1492638447.7,40.449405604413,-79.9461832720432,14.2399997711182,0.017791748046875,-0.985641479492188,0.270416259765625,-0.0158023989602032,-0.0743535934222493,0.0245530136699855
1492638447.9,40.449405604413,-79.9461832720432,14.2399997711182,0.05078125,-1.00384521484375,0.24835205078125,-0.0143030392664886,0.0160431487227463,-0.0353729045467595
1492638448.1,40.449405604413,-79.9461832720432,14.2399997711182,0.115890502929688,-1.02775573730469,0.289154052734375,0.0707410154035568,0.0463421987606868,-0.0079250347718578
1492638448.3,40.4495048079488,-79.9460758634475,14.4399995803833,0.071533203125,-0.934951782226562,0.287200927734375,-0.0204136623876754,-0.000928910588219638,0.0125879635244775
1492638448.5,40.4495048079488,-79.9460758634475,14.4399995803833,0.08038330078125,-0.995101928710938,0.152969360351562,0.0381306078555365,-0.00343707570285626,0.0131938326724706
1492638448.7,40.4495048079488,-79.9460758634475,14.4399995803833,0.0527496337890625,-1.01866149902344,0.12774658203125,0.0589485380966859,-0.0280345641630461,0.0347947322741033
1492638448.9,40.4495048079488,-79.9460758634475,14.4399995803833,0.0024566650390625,-1.01998901367188,0.207321166992188,-0.0451496352245494,0.0300729476613928,-0.0303938585727473
1492638449.1,40.4495048079488,-79.9460758634475,14.4399995803833,0.0086212158203125,-1.089599609375,0.179885864257812,0.0763432410726475,-0.0909043406487647,0.052194495256136
1492638449.3,40.4496073079535,-79.9459659555696,14.5799999237061,-0.0179901123046875,-1.00532531738281,0.200424194335938,0.0109354720680834,0.0903370873365778,-0.0491670137289339
1492638449.5,40.4496073079535,-79.9459659555696,14.5799999237061,0.0725250244140625,-1.03274536132812,0.19921875,-0.0490908473217576,-0.0167004168797779,-0.0015257249885064
1492638449.7,40.4496073079535,-79.9459659555696,14.5799999237061,0.130538940429688,-0.935577392578125,0.142868041992188,-0.0273474686018057,-0.0136556248054903,-0.032231173408793
1492638449.9,40.4496073079535,-79.9459659555696,14.5799999237061,0.112503051757812,-0.938232421875,0.167449951171875,0.0138023649815537,-0.0670970120840014,0.044029243353953
1492638450.1,40.4496073079535,-79.9459659555696,14.5799999237061,-0.0088043212890625,-0.908905029296875,0.178375244140625,-0.0988429575421819,0.00276835595313737,-0.0127474868737733
1492638450.3,40.4497122098439,-79.9458543506039,14.3000001907349,0.0047607421875,-1.02348327636719,0.262771606445312,0.0365265859309818,-0.0810786078069174,0.0101791343185009
1492638450.5,40.4497122098439,-79.9458543506039,14.3000001907349,-0.098419189453125,-0.984024047851562,0.179092407226562,-0.0734079049191621,-0.011225223994684,-0.0113847473439797
1492638450.7,40.4497122098439,-79.9458543506039,14.3000001907349,-0.0531463623046875,-0.965377807617188,0.176422119140625,-0.0205279119984398,0.15754382165749,-0.125363780941627
1492638450.9,40.4497122098439,-79.9458543506039,14.3000001907349,0.0291748046875,-1.04022216796875,0.0926513671875,-0.00806698125795902,-0.0446204651159506,0.0202906243453137
1492638451.1,40.4497122098439,-79.9458543506039,14.3000001907349,0.08636474609375,-1.01280212402344,0.109710693359375,0.0219337947378926,0.0147432597946787,-0.0381971868827885
1492638451.3,40.44980588091,-79.9457557738165,13.7700004577637,0.02386474609375,-0.9913330078125,0.1019287109375,0.03391242700496,-0.0597797106728997,0.0570108220875443
1492638451.5,40.44980588091,-79.9457557738165,13.7700004577637,0.001739501953125,-1.0986328125,0.09979248046875,-0.115507688063353,-0.0407314509761079,0.0138495029328481
1492638451.7,40.44980588091,-79.9457557738165,13.7700004577637,0.243804931640625,-0.972015380859375,0.0551300048828125,-0.0659904686510734,0.237621613526756,-0.105777829020748
1492638451.9,40.44980588091,-79.9457557738165,13.7700004577637,-0.0005950927734375,-0.995986938476562,0.109451293945312,-0.0520514835055987,0.0216008996016327,-0.0752236481503782
1492638452.1,40.44980588091,-79.9457557738165,13.7700004577637,-0.03033447265625,-0.931869506835938,0.159683227539062,-0.0155712365775843,-0.142429317206855,0.0481877693961118
1492638452.3,40.449901319179,-79.9456573253607,12.6999998092651,0.12847900390625,-1.10154724121094,0.065704345703125,-0.0220885243972262,0.0628929459872023,-0.0632950833118043
1492638452.5,40.449901319179,-79.9456573253607,12.6999998092651,-0.0111083984375,-0.9554443359375,0.07989501953125,-0.0110499879949568,-0.109483617677594,0.0470828238598379
1492638452.7,40.449901319179,-79.9456573253607,12.6999998092651,0.01611328125,-0.9620361328125,0.1241455078125,-0.02755839096014,-0.0508727684071296,0.040365266326222
1492638452.9,40.449901319179,-79.9456573253607,12.6999998092651,0.124710083007812,-0.997146606445312,0.0768890380859375,0.0347087121708937,0.007225954985712,0.0355217752516949
1492638453.1,40.449901319179,-79.9456573253607,12.6999998092651,0.089752197265625,-1.01199340820312,0.0662689208984375,-0.06258215508799,0.0163613964730108,-0.00921267315891111
1492638453.3,40.4499846981201,-79.9455713165921,11.5600004196167,0.0233612060546875,-0.922393798828125,0.115936279296875,-0.0295901165557614,0.00444508217545126,-0.0141752075341648
1492638453.5,40.4499846981201,-79.9455713165921,11.5600004196167,-0.004730224609375,-0.91717529296875,0.187210083007812,-0.0577474524450602,0.133330094710381,-0.0649081599840652
1492638453.7,40.4499846981201,-79.9455713165921,11.5600004196167,0.156524658203125,-0.94317626953125,0.166488647460938,-0.0305262176789243,-0.0519199233477488,0.0232781584561646
1492638453.9,40.4499846981201,-79.9455713165921,11.5600004196167,0.186965942382812,-0.93853759765625,0.199493408203125,-0.0917962332978322,0.146316999766152,-0.059959207730371
1492638454.1,40.4499846981201,-79.9455713165921,11.5600004196167,0.197540283203125,-0.63824462890625,0.171707153320312,-0.291875264937741,0.175276213459674,-0.0535527074120764
1492638454.3,40.450062632296,-79.9454909243202,10.789999961853,0.139694213867188,-1.01980590820312,-0.0184326171875,0.121072629477182,-0.109280152170311,0.0420377314907918
1492638454.5,40.450062632296,-79.9454909243202,10.789999961853,0.0068511962890625,-1.01730346679688,0.255294799804688,0.184806335420523,-0.288388388122501,0.111390174701981
1492638454.7,40.450062632296,-79.9454909243202,10.789999961853,-0.027130126953125,-0.990478515625,0.241668701171875,0.0406891067147756,-0.134282707432302,0.0658021831620048
1492638454.9,40.450062632296,-79.9454909243202,10.789999961853,0.148788452148438,-0.99481201171875,0.170425415039062,-0.0212946360762736,0.0469462036959168,0.0252499629272593
1492638455.1,40.450062632296,-79.9454909243202,10.789999961853,0.08038330078125,-0.945114135742188,0.227935791015625,-0.0302945226640874,-0.0327755235356052,0.0168338412503909
1492638455.3,40.4501388725884,-79.9454122793581,10.5600004196167,0.150634765625,-1.06538391113281,0.0814056396484375,0.00836525530004789,0.0648274662030358,-0.0310018582496124
1492638455.5,40.4501388725884,-79.9454122793581,10.5600004196167,0.129165649414062,-0.965316772460938,0.133941650390625,-0.00173478313407762,0.08509918210461,-0.0599453592927026
1492638455.7,40.4501388725884,-79.9454122793581,10.5600004196167,0.119110107421875,-1.00648498535156,0.138839721679688,-0.09124922000993,-0.0462055785967658,0.0279727788257563
1492638455.9,40.4501388725884,-79.9454122793581,10.5600004196167,0.009063720703125,-0.897933959960938,0.104568481445312,-0.035053591532059,0.00341843357522571,-0.00463256871619284
1492638456.1,40.4501388725884,-79.9454122793581,10.5600004196167,0.0572052001953125,-1.03968811035156,0.0571441650390625,-0.0127408289710481,0.010720554968114,0.00304053101654347
1492638456.3,40.4502101787721,-79.9453371133604,9.96000003814697,0.0677947998046875,-0.958541870117188,0.0537872314453125,-0.0173512934501933,-0.0243511460593575,0.0094811197967911
1492638456.5,40.4502101787721,-79.9453371133604,9.96000003814697,0.0439910888671875,-0.980941772460938,0.0439910888671875,0.0113059177757134,-0.0287917008609557,0.0140508379112581
1492638456.7,40.4502101787721,-79.9453371133604,9.96000003814697,0.0693206787109375,-1.0048828125,0.0351409912109375,-0.00709279693120804,-0.0605829200576675,0.0182093639534168
1492638456.9,40.4502101787721,-79.9453371133604,9.96000003814697,0.124984741210938,-1.02056884765625,-0.008270263671875,-0.0270164376783088,-0.0274787624435466,0.0136550921732723
1492638457.1,40.4502101787721,-79.9453371133604,9.96000003814697,-0.0201873779296875,-1.02378845214844,-0.0797576904296875,-0.00911440251468718,-0.0403586084234968,0.0213351161248428
1492638457.3,40.4502740052766,-79.9452696484099,8.42000007629395,0.0507354736328125,-1.04888916015625,-0.130859375,-0.020771324922073,0.0171499584717833,-0.0290447011645132
1492638457.5,40.4502740052766,-79.9452696484099,8.42000007629395,0.110458374023438,-1.05349731445312,-0.113388061523438,-0.036633645006803,-0.0359263094212779,0.0114460000490516
1492638457.7,40.4502740052766,-79.9452696484099,8.42000007629395,0.012176513671875,-1.01983642578125,-0.1590576171875,-0.00973172325536755,-0.027594077318747,-0.00429328199331674
1492638457.9,40.4502740052766,-79.9452696484099,8.42000007629395,0.0214691162109375,-1.02413940429688,-0.169296264648438,-0.0245887000285926,-0.0423913992835543,-0.0161355604125721
1492638458.1,40.4502740052766,-79.9452696484099,8.42000007629395,0.06878662109375,-1.04924011230469,-0.20794677734375,-0.0105101652419977,-0.00312468690698997,-0.0118278973493689
1492638458.3,40.4503178256513,-79.9452206298252,5.8600001335144,0.04766845703125,-1.02583312988281,-0.13336181640625,-0.00564723309151302,-0.0371929088357196,0.00323680598888231
1492638458.5,40.4503178256513,-79.9452206298252,5.8600001335144,0.0718841552734375,-1.04339599609375,-0.155029296875,-0.0214664099665837,-0.0285813111348394,-0.00334466401303052
1492638458.7,40.4503178256513,-79.9452206298252,5.8600001335144,0.076171875,-1.03216552734375,-0.0900115966796875,-0.00219870579596942,-0.01700588145681,-0.00424348088093226
1492638458.9,40.4503178256513,-79.9452206298252,5.8600001335144,0.0650787353515625,-1.01246643066406,0.0189666748046875,-0.00139629535952854,-0.0265823424206259,0.00965023052601113
1492638459.1,40.4503178256513,-79.9452206298252,5.8600001335144,0.084014892578125,-0.961471557617188,0.151870727539062,0.0060395167200817,-0.0191838145962768,0.0150383380434594
1492638459.3,40.4503417315742,-79.9451932130597,3.51999998092651,0.0897674560546875,-0.95330810546875,0.17431640625,-0.0107312076124743,-0.00524829156021915,0.0031023163538333
1492638459.5,40.4503417315742,-79.9451932130597,3.51999998092651,0.0832061767578125,-0.97137451171875,0.198211669921875,-0.0320671226856441,-0.0125557392752876,0.00183651588771864
1492638459.7,40.4503417315742,-79.9451932130597,3.51999998092651,0.09722900390625,-0.962020874023438,0.196456909179688,-0.00534096956615391,-0.00422031137944857,-0.00111000554234503
1492638459.9,40.4503417315742,-79.9451932130597,3.51999998092651,0.084320068359375,-0.96832275390625,0.142242431640625,-0.0169611403504967,0.00223705531566656,-0.00444428322712423
1492638460.1,40.4503417315742,-79.9451932130597,3.51999998092651,0.0679473876953125,-0.991958618164062,0.124176025390625,-0.0160628561148129,-0.00627733700542577,0.00305038471257676
1492638460.3,40.4503426880771,-79.945192116084,1.57000005245209,0.087615966796875,-0.977493286132812,0.10272216796875,-0.0130497556574973,-0.0148053114480775,0.0116329539575751
1492638460.5,40.4503426880771,-79.945192116084,1.57000005245209,0.0617523193359375,-0.991409301757812,0.090179443359375,-0.00549010658719835,-0.0084728470080871,0.00742915417688504
1492638460.7,40.4503426880771,-79.945192116084,1.57000005245209,0.0845184326171875,-0.970458984375,0.0910797119140625,-0.0129845082107903,-0.0158703095680002,0.0063053001968716
1492638460.9,40.4503426880771,-79.945192116084,1.57000005245209,0.0918731689453125,-0.985198974609375,0.101715087890625,-0.0117093866808604,0.00433136519690487,0.00200136555919455
1492638461.1,40.4503426880771,-79.945192116084,1.57000005245209,0.0821533203125,-0.951568603515625,0.226364135742188,-0.000110521185238288,-0.00106180232661459,0.00746510685160111
1492638461.3,40.4503581001797,-79.9451708773611,0.810000002384186,0.085296630859375,-0.964874267578125,0.219680786132812,-0.0234800260667926,-0.007293332961291,-0.000221575002694593
1492638461.5,40.4503581001797,-79.9451708773611,0.810000002384186,0.096923828125,-0.949462890625,0.235702514648438,-0.0138202081608572,-0.000974184326750985,-0.00227141009372858
1492638461.7,40.4503581001797,-79.9451708773611,0.810000002384186,0.107635498046875,-0.944854736328125,0.227752685546875,-0.0116028602372572,-0.000989630661073445,-0.00864595247894225
1492638461.9,40.4503581001797,-79.9451708773611,0.810000002384186,0.0974578857421875,-0.961776733398438,0.231536865234375,-0.00877751263679216,-0.0169608740343876,0.00954982935291514
1492638462.1,40.4503581001797,-79.9451708773611,0.810000002384186,0.097412109375,-0.969390869140625,0.2183837890625,-0.00532632218015848,-0.00422057769555758,-0.00217606892670375
1492638462.3,40.4503637537321,-79.9451629737439,0.870000004768372,0.08966064453125,-0.969619750976562,0.219207763671875,-0.017409882994175,-0.0243500807949215,0.013745373334226
1492638462.5,40.4503637537321,-79.9451629737439,0.870000004768372,0.0558929443359375,-0.961257934570312,0.234207153320312,-0.0168998876454248,0.00649118884095913,-0.00658706264020199
1492638462.7,40.4503637537321,-79.9451629737439,0.870000004768372,0.0896759033203125,-0.949050903320312,0.231475830078125,-0.0170530194081044,-0.0041441449722723,-0.0012301141075076
1492638462.9,40.4503637537321,-79.9451629737439,0.870000004768372,0.0845947265625,-0.9268798828125,0.326431274414062,0.00626055909055827,-0.00535828011323943,0.00647520987441866
1492638463.1,40.4503637537321,-79.9451629737439,0.870000004768372,0.105850219726562,-0.920989990234375,0.346542358398438,-0.00852717549432471,-0.0031358721835683,-0.00114542558484308
1492638463.3,40.4503725387573,-79.9451506923548,1.0900000333786,0.08245849609375,-0.924072265625,0.338424682617188,-0.018284198780048,-0.0126446888556962,0.00624271591125474
1492638463.5,40.4503725387573,-79.9451506923548,1.0900000333786,0.095916748046875,-0.916351318359375,0.334396362304688,-0.0108403972171675,-0.0158844243217776,0.00526107473345153
1492638463.7,40.4503725387573,-79.9451506923548,1.0900000333786,0.0822296142578125,-0.937240600585938,0.351669311523438,-0.00694765465179872,-0.0276073931241974,0.0255892496501354
1492638463.9,40.4503725387573,-79.9451506923548,1.0900000333786,0.0440826416015625,-0.8916015625,0.435836791992188,-0.053541522135498,-0.0304987871196964,0.00486160056993965
1492638464.1,40.4503725387573,-79.9451506923548,1.0900000333786,0.165618896484375,-0.9217529296875,0.315322875976562,-0.0252978998268807,0.0107996508524893,-0.0130814472744692
1492638464.3,40.4503839161615,-79.9451347868426,2.5,0.05194091796875,-0.957611083984375,0.365692138671875,-0.00755964907029893,0.0170713952196259,0.016937970849013
1492638464.5,40.4503839161615,-79.9451347868426,2.5,0.050750732421875,-0.996261596679688,0.257736206054688,0.0623411390093379,-0.0269951323895882,0.0209660019977578
1492638464.7,40.4503839161615,-79.9451347868426,2.5,0.112762451171875,-0.88848876953125,0.400772094726562,0.0435807670263837,0.0114193684381508,0.0121450798351974
1492638464.9,40.4503839161615,-79.9451347868426,2.5,0.148651123046875,-0.936279296875,0.277664184570312,-0.0502908677089473,0.0992520190856181,-0.00610210100569856
1492638465.1,40.4503839161615,-79.9451347868426,2.5,0.137222290039062,-0.93927001953125,0.264663696289062,-0.026283535746319,0.118237694496793,-0.0378917223057564
1492638465.3,40.4503918653893,-79.9451236738911,3.86999988555908,0.234786987304688,-0.942581176757812,0.283584594726562,-0.0795347733229984,0.13028610158442,-0.0310045214107025
1492638465.5,40.4503918653893,-79.9451236738911,3.86999988555908,0.243118286132812,-0.925704956054688,0.240875244140625,-0.0326181307151815,0.243795619881887,-0.0510751686499757
1492638465.7,40.4503918653893,-79.9451236738911,3.86999988555908,0.220703125,-0.943313598632812,0.193923950195312,-0.0392781639692517,0.231076362515668,-0.038315963867406
1492638465.9,40.4503918653893,-79.9451236738911,3.86999988555908,0.205429077148438,-0.916641235351562,0.235977172851562,-0.0428100482069147,0.257686135495522,-0.0768045005734492
1492638466.1,40.4503918653893,-79.9451236738911,3.86999988555908,0.2105712890625,-0.936569213867188,0.2633056640625,-0.0479970870620621,0.237518282876461,-0.0202962169836029
1492638466.3,40.4503905469367,-79.9451255170764,4.51000022888184,0.145980834960938,-0.973251342773438,0.207656860351562,-0.038584410505286,0.309785822216851,-0.0459754814785829
1492638466.5,40.4503905469367,-79.9451255170764,4.51000022888184,0.152328491210938,-0.965347290039062,0.2113037109375,-0.0361593360166599,0.290617986587115,-0.0778876081887844
1492638466.7,40.4503905469367,-79.9451255170764,4.51000022888184,0.149948120117188,-0.975753784179688,0.232345581054688,0.000258060309628678,0.245710965337872,-0.0400813733540196
1492638466.9,40.4503905469367,-79.9451255170764,4.51000022888184,0.200332641601562,-0.952285766601562,0.23394775390625,-0.0545047875017797,0.25031530454651,-0.0822362839327748
1492638467.1,40.4503905469367,-79.9451255170764,4.51000022888184,0.240325927734375,-0.973709106445312,0.218902587890625,-0.0233359490518193,0.306491225632314,-0.0724662111577101
1492638467.3,40.450390936196,-79.9451249728953,4.90000009536743,0.213729858398438,-0.9097900390625,0.257293701171875,-0.0255293285256086,0.286293811925153,-0.0788338293240896
1492638467.5,40.450390936196,-79.9451249728953,4.90000009536743,0.18414306640625,-0.974227905273438,0.281341552734375,-0.0442058109342253,0.294920057012029,-0.109967514047661
1492638467.7,40.450390936196,-79.9451249728953,4.90000009536743,0.211898803710938,-1.06739807128906,0.242843627929688,-0.0778830808149313,0.374920350893573,-0.0955917704834132
1492638467.9,40.450390936196,-79.9451249728953,4.90000009536743,0.171722412109375,-1.00959777832031,0.243972778320312,0.0808786044090524,0.239858668842423,-0.0978826216530993
1492638468.1,40.450390936196,-79.9451249728953,4.90000009536743,-0.0421295166015625,-0.89984130859375,0.248245239257812,0.0988962207639835,0.0706336900116266,0.0488098838267543
1492638468.3,40.4505327417883,-79.9450576930874,5.42000007629395,0.0989227294921875,-0.9918212890625,0.25201416015625,0.0486780573527953,0.0241546047709097,0.0356211111603549
1492638468.5,40.4505327417883,-79.9450576930874,5.42000007629395,0.148345947265625,-0.984603881835938,0.18609619140625,0.0215694743007698,0.127501500348634,-0.027829767075219
1492638468.7,40.4505327417883,-79.9450576930874,5.42000007629395,0.202362060546875,-1.00079345703125,0.140228271484375,-0.0391476690758378,0.18213864695659,-0.0744396135254588
1492638468.9,40.4505327417883,-79.9450576930874,5.42000007629395,0.258560180664062,-0.913558959960938,0.212493896484375,0.0295826597047092,0.140221024030961,0.0159342254341621
1492638469.1,40.4505841816543,-79.9450798336029,5.82000017166138,0.207229614257812,-0.94805908203125,0.14794921875,-0.0540046458490628,0.214149044311016,-0.0608135498080684
1492638469.3,40.4505841816543,-79.9450798336029,5.82000017166138,0.158737182617188,-0.9390869140625,0.152206420898438,-0.0143650909198874,0.155391188548379,-0.032534507456953
1492638469.5,40.4505841816543,-79.9450798336029,5.82000017166138,0.113998413085938,-0.9647216796875,0.10400390625,-0.0309792213803467,0.134230509474937,0.00253506304164643
1492638469.7,40.4505841816543,-79.9450798336029,5.82000017166138,0.1351318359375,-1.02009582519531,0.08697509765625,-0.0204956877492498,0.0948032084846407,-0.00685178085255586
1492638469.9,40.4505841816543,-79.9450798336029,5.82000017166138,0.104278564453125,-0.983840942382812,0.121719360351562,-0.0413682127927458,0.114082630564051,-0.0273733012643795
1492638470.1,40.4505841816543,-79.9450798336029,5.82000017166138,0.0716400146484375,-0.974197387695312,0.192169189453125,0.00669864908987631,0.0744196398172832,0.0180021700206086
1492638470.3,40.4506299603519,-79.9450995374638,5.01000022888184,0.105560302734375,-0.88934326171875,0.2576904296875,-0.0637622017670041,0.10571817421233,-0.0297134209142321
1492638470.5,40.4506299603519,-79.9450995374638,5.01000022888184,0.0443572998046875,-0.9725341796875,0.273239135742188,-0.0173627450428806,0.0671244426432292,-0.017410415626393
1492638470.7,40.4506299603519,-79.9450995374638,5.01000022888184,-0.0136260986328125,-0.954452514648438,0.250076293945312,-0.00757829119792948,-0.0127149963084743,0.00208765197851311
1492638470.9,40.4506299603519,-79.9450995374638,5.01000022888184,0.002593994140625,-0.96673583984375,0.282562255859375,0.00211162042832383,-0.0680850448484208,0.0417796711811631
1492638471.1,40.4506688121988,-79.9451162599008,4.71000003814697,0.0249176025390625,-0.927520751953125,0.271255493164062,-0.00929017114663241,-0.0637592722898051,0.0213937056688245
1492638471.3,40.4506688121988,-79.9451162599008,4.71000003814697,0.0155792236328125,-0.955612182617188,0.26611328125,-0.00899589184617866,-0.0382331395575046,0.0138673461121516
1492638471.5,40.4506688121988,-79.9451162599008,4.71000003814697,0.003082275390625,-0.938461303710938,0.254653930664062,-0.0144979826582824,-0.0658543811193704,0.0117498667294296
1492638471.7,40.4506688121988,-79.9451162599008,4.71000003814697,0.05609130859375,-0.945159912109375,0.2708740234375,-0.00377076978744319,-0.055286957913936,0.0118324247232221
1492638471.9,40.4506688121988,-79.9451162599008,4.71000003814697,0.0525665283203125,-0.881317138671875,0.318634033203125,-0.0203843676156845,-0.024333302880054,-0.00227833431256279
1492638472.1,40.4506688121988,-79.9451162599008,4.71000003814697,0.122772216796875,-0.940658569335938,0.281051635742188,-0.0768066311023213,0.0292116813648611,-0.0520400319129114
1492638472.3,40.4507094258149,-79.9451337406305,4.78000020980835,0.075927734375,-0.9295654296875,0.36688232421875,-0.0256281318020505,-0.048767805881531,-0.0214608173282945
1492638472.5,40.4507094258149,-79.9451337406305,4.78000020980835,0.004241943359375,-0.901657104492188,0.333984375,-0.0266755530587787,-0.00940015969965269,-0.00131506894628113
1492638472.7,40.4507094258149,-79.9451337406305,4.78000020980835,0.056060791015625,-0.911346435546875,0.342529296875,-0.00675723863385805,-0.0276108552336145,0.011730425653472
1492638472.9,40.4507094258149,-79.9451337406305,4.78000020980835,0.02410888671875,-0.936981201171875,0.333526611328125,-0.0715514153232679,-0.0261274745064404,0.000401072060165933
1492638473.1,40.4507094258149,-79.9451337406305,4.78000020980835,0.112945556640625,-0.886581420898438,0.368667602539062,0.00416704815764698,-0.029812756822892,-0.00947632610682895
1492638473.3,40.450755148455,-79.9451534203633,5.53000020980835,0.088348388671875,-0.913253784179688,0.38348388671875,0.0233548574955589,-0.00547013287902276,0.00238565970449298
1492638473.5,40.450755148455,-79.9451534203633,5.53000020980835,0.0789794921875,-0.915542602539062,0.336105346679688,-0.00389726993922196,-0.0584760933193059,0.0193028578970033
1492638473.7,40.450755148455,-79.9451534203633,5.53000020980835,0.1290283203125,-0.933395385742188,0.284149169921875,-0.0371542929999135,-0.0486825847266485,0.0423937961285354
1492638473.9,40.450755148455,-79.9451534203633,5.53000020980835,0.029815673828125,-0.965988159179688,0.243515014648438,-0.0504645058120205,-0.0422193590771352,0.00705577899205593
1492638474.1,40.4508072683469,-79.9451758535725,6.34999990463257,0.02459716796875,-0.949310302734375,0.30572509765625,-2.7963191445832e-05,-0.021275727632534,-0.00954130723742689
1492638474.3,40.4508072683469,-79.9451758535725,6.34999990463257,0.0568389892578125,-0.95965576171875,0.303817749023438,-0.0225005154178615,-0.0264473201533589,-0.00442697268003872
1492638474.5,40.4508072683469,-79.9451758535725,6.34999990463257,0.03558349609375,-0.964981079101562,0.258880615234375,-0.0191518566631958,-0.0137051596017658,-0.00869042726914657
1492638474.7,40.4508072683469,-79.9451758535725,6.34999990463257,0.0494384765625,-0.938583374023438,0.238479614257812,-0.029073995936504,-0.0295938449812875,0.00724220026836148
1492638474.9,40.4508072683469,-79.9451758535725,6.34999990463257,0.0605316162109375,-0.934402465820312,0.23095703125,0.015560850249333,-0.0352021959208854,0.0109123025665997
1492638475.1,40.4508072683469,-79.9451758535725,6.34999990463257,0.066802978515625,-0.947799682617188,0.230819702148438,-0.0449996992551779,-0.015661251422429,0.0113080483045855
1492638475.3,40.4508623308192,-79.9451995533139,6.48999977111816,0.080963134765625,-0.95953369140625,0.264495849609375,0.0109490541896428,-0.060699566513413,0.0226592398188302
1492638475.5,40.4508623308192,-79.9451995533139,6.48999977111816,0.0328826904296875,-0.934036254882812,0.231170654296875,-0.0172367775233199,-0.0286084753779582,-0.00116886140243578
1492638475.7,40.4508623308192,-79.9451995533139,6.48999977111816,0.0782470703125,-0.939132690429688,0.171112060546875,-0.0134194024168003,0.0192309525475712,-0.0204450876885383
1492638475.9,40.4508623308192,-79.9451995533139,6.48999977111816,0.0255584716796875,-0.945541381835938,0.201126098632812,-0.026953853392692,-0.0445008891830061,-0.000161121245949794
1492638476.1,40.4508623308192,-79.9451995533139,6.48999977111816,0.074127197265625,-0.9400634765625,0.19549560546875,0.00233186385047338,-0.00427277565292313,-0.0170245235844405
1492638476.3,40.4509151809493,-79.9452223008289,5.92999982833862,0.0525054931640625,-0.97283935546875,0.271743774414062,-0.0142063665189187,-0.0211795875171822,0.0148362041167224
1492638476.5,40.4509151809493,-79.9452223008289,5.92999982833862,0.06549072265625,-0.940032958984375,0.243606567382812,-0.035021633598978,0.0076730997327363,-0.00464322136055315
1492638476.7,40.4509151809493,-79.9452223008289,5.92999982833862,0.07073974609375,-0.975616455078125,0.196075439453125,0.0141211453640362,0.00203252454394847,-0.0190525207545359
1492638476.9,40.4509151809493,-79.9452223008289,5.92999982833862,0.0753021240234375,-0.933029174804688,0.293624877929688,0.00700038524138229,-0.0447203336568286,0.00871679256393836
1492638477.1,40.4509151809493,-79.9452223008289,5.92999982833862,0.092315673828125,-0.980499267578125,0.251907348632812,-0.0618662973869767,-0.00278779702909495,0.00577107008220171
1492638477.3,40.450963844875,-79.9452432465366,5.59999990463257,0.139923095703125,-0.969757080078125,0.241867065429688,-0.0387620433499943,0.103421996720464,-0.0678352403381713
1492638477.5,40.450963844875,-79.9452432465366,5.59999990463257,0.082244873046875,-0.938308715820312,0.308013916015625,-0.0576707534056659,0.0407895078878716,-0.0433442783215846
1492638477.7,40.450963844875,-79.9452432465366,5.59999990463257,0.14361572265625,-0.907318115234375,0.293487548828125,0.0119565280300197,-0.0585778260729469,0.027995149378913
1492638477.9,40.450963844875,-79.9452432465366,5.59999990463257,0.116287231445312,-0.97320556640625,0.222320556640625,0.00429434725775277,-0.0532064964703661,0.0460284783842755
1492638478.1,40.450963844875,-79.9452432465366,5.59999990463257,0.0877227783203125,-0.923355102539062,0.263442993164062,0.00328873763013885,0.0106156264211649,-0.00105993811385154
1492638478.3,40.4510123854064,-79.9452641391336,5.84999990463257,0.0237884521484375,-0.946609497070312,0.244384765625,-0.0267234899584001,-0.0274840887657267,-0.0076661755139021
1492638478.5,40.4510123854064,-79.9452641391336,5.84999990463257,0.0699920654296875,-0.917587280273438,0.197311401367188,-0.0123466811297164,0.0202876948681146,-0.0204368318891591
1492638478.7,40.4510123854064,-79.9452641391336,5.84999990463257,0.12640380859375,-0.916671752929688,0.234588623046875,-0.0321084016825403,-0.0200016713670401,0.000789094630990478
1492638478.9,40.4510123854064,-79.9452641391336,5.84999990463257,0.129669189453125,-0.921463012695312,0.277297973632812,0.0248624729886527,-0.0512165825038589,0.0227772178551207
1492638479.1,40.4510123854064,-79.9452641391336,5.84999990463257,0.111923217773438,-0.934722900390625,0.242080688476562,-0.0291352486415759,0.00125781098284442,0.0284862362839236
1492638479.3,40.4510659636046,-79.9452872000203,6.03000020980835,0.117767333984375,-0.944808959960938,0.211532592773438,-0.0134132771462931,-0.0222453845854319,0.0340389271567388
1492638479.5,40.4510659636046,-79.9452872000203,6.03000020980835,0.08074951171875,-0.96429443359375,0.175994873046875,0.00085434207769742,0.00318833645704286,0.0170599436269386
1492638479.7,40.4510659636046,-79.9452872000203,6.03000020980835,0.088226318359375,-1.02635192871094,0.134109497070312,0.0129951608551507,0.0328911047269146,0.00218059630055688
1492638479.9,40.4510659636046,-79.9452872000203,6.03000020980835,-0.00360107421875,-1.02645874023438,0.0478515625,-0.0468268940790813,0.0109423962869176,0.00375718766588379
1492638480.1,40.4510659636046,-79.9452872000203,6.03000020980835,0.0720062255859375,-1.00433349609375,-0.0964813232421875,-0.0155115817691665,0.0320098647222074,-0.016234630005123
1492638480.3,40.4511158679414,-79.9453086796202,5.57000017166138,0.068206787109375,-1.02742004394531,-0.0696868896484375,-0.0111727597212094,0.0309169034108389,-0.022584671308308
1492638480.5,40.4511158679414,-79.9453086796202,5.57000017166138,0.025665283203125,-1.02799987792969,-0.05938720703125,-0.0107298760319293,-0.00312069216535485,0.00416305341601187
1492638480.7,40.4511158679414,-79.9453086796202,5.57000017166138,0.049835205078125,-1.00823974609375,-0.087799072265625,-0.0117533288388467,-0.00736976568457628,-0.00116752982189074
1492638480.9,40.4511158679414,-79.9453086796202,5.57000017166138,0.017852783203125,-1.01251220703125,-0.0365447998046875,0.00804514333702037,-0.0181315996495865,0.0246520832625365
1492638481.1,40.4511158679414,-79.9453086796202,5.57000017166138,0.0796051025390625,-1.00189208984375,-0.047637939453125,-0.0281512106187916,0.040600956082694,-0.0217172797412692
1492638481.3,40.4511513115899,-79.9453239351158,3.15000009536743,0.05517578125,-1.00828552246094,0.128036499023438,-0.00535162221051423,-0.00953917670855482,-0.00322881650561207
1492638481.5,40.4511513115899,-79.9453239351158,3.15000009536743,0.056304931640625,-0.947021484375,0.218475341796875,0.00412443758020572,-0.0159824286498925,0.00114968664258721
1492638481.7,40.4511513115899,-79.9453239351158,3.15000009536743,0.05987548828125,-0.91790771484375,0.362075805664062,0.0126542762356205,-0.00859135767659562,0.00441658635178741
1492638481.9,40.4511513115899,-79.9453239351158,3.15000009536743,0.133056640625,-0.9176025390625,0.38653564453125,-0.0438164567828557,-0.0135427067752709,0.00385119725236359
1492638482.1,40.4511513115899,-79.9453239351158,3.15000009536743,0.0679779052734375,-0.818923950195312,0.526763916015625,-0.0492945791451487,-0.0379729487190038,0.00172572838637135
1492638482.3,40.451161890521,-79.9453284884517,1.87999999523163,0.116607666015625,-0.882308959960938,0.631805419921875,-0.0565261267691498,0.0514192490628139,-0.0433599909720161
1492638482.5,40.451161890521,-79.9453284884517,1.87999999523163,0.106109619140625,-0.899932861328125,0.47552490234375,0.0486106793772163,0.0262710188891957,-0.0358213808743288
1492638482.7,40.451161890521,-79.9453284884517,1.87999999523163,0.067962646484375,-0.928482055664062,0.284561157226562,-0.0840152755409477,-0.00583764910945369,-0.0115072527541234
1492638482.9,40.451161890521,-79.9453284884517,1.87999999523163,0.048126220703125,-0.978561401367188,0.096221923828125,-0.0599325761194702,-0.0230105107666116,0.00904169821692802
1492638483.1,40.451161890521,-79.9453284884517,1.87999999523163,0.0409088134765625,-1.00830078125,0.0791168212890625,-0.0252246628969035,0.0107983192719443,-0.0184117641962628
1492638483.3,40.4511830033071,-79.945337575722,3.38000011444092,0.06207275390625,-1.00326538085938,0.0356903076171875,-0.0177568928842123,0.0107495834239958,-0.0194013948573363
1492638483.5,40.4511830033071,-79.945337575722,3.38000011444092,0.0430755615234375,-1.01611328125,-0.012847900390625,-0.0225338049314875,-0.0211276558759256,0.000890028436304481
1492638483.7,40.4511830033071,-79.945337575722,3.38000011444092,0.049102783203125,-0.980560302734375,0.20513916015625,0.00863636509901796,0.00207007511531859,-0.00738041832893659
1492638483.9,40.4511830033071,-79.945337575722,3.38000011444092,0.104934692382812,-0.932754516601562,0.26251220703125,-0.0124971497313058,0.00220563001480362,-0.019325494766269
1492638484.1,40.4511830033071,-79.945337575722,3.38000011444092,0.106918334960938,-0.882965087890625,0.395355224609375,0.0451062256987811,0.0220421853942588,-0.0155882808085608
1492638484.3,40.4512122587087,-79.9453501677002,1.91999995708466,0.084747314453125,-0.896392822265625,0.452377319335938,0.0087655284118868,0.00951440931041709,-0.0127293773783607
1492638484.5,40.4512122587087,-79.9453501677002,1.91999995708466,0.0673370361328125,-0.893875122070312,0.578857421875,-0.0372509657474833,0.0119440111728964,0.00491885853337635
1492638484.7,40.4512122587087,-79.9453501677002,1.91999995708466,0.110763549804688,-0.886260986328125,0.509674072265625,0.00366291176329498,0.0233745648876255,-0.0213471003497482
1492638484.9,40.4512122587087,-79.9453501677002,1.91999995708466,0.103530883789062,-0.856369018554688,0.457672119140625,-0.0231551204138029,-0.0147459229557687,-0.0279205808683907
1492638485.1,40.4512122587087,-79.9453501677002,1.91999995708466,0.08087158203125,-0.925750732421875,0.395156860351562,-0.0270137745172188,0.000180296005798364,0.0285107373659523
1492638485.3,40.4512397376056,-79.9453619950433,4.01000022888184,0.033355712890625,-0.9337158203125,0.18951416015625,-0.0950181255846101,-0.000442883689280177,0.0171539532134184
1492638485.5,40.4512397376056,-79.9453619950433,4.01000022888184,0.106246948242188,-0.877059936523438,0.132614135742188,-0.0482612726421979,0.0566875143312086,-0.0219646874065375
1492638485.7,40.4512397376056,-79.9453619950433,4.01000022888184,0.000457763671875,-1.01591491699219,0.011199951171875,-0.00823742356772409,-0.0361068717431853,0.0373263332063326
1492638485.9,40.4512397376056,-79.9453619950433,4.01000022888184,-0.034912109375,-1.04534912109375,-0.120635986328125,-0.0186338718311754,0.0416036362331089,-0.0162913553363417
1492638486.1,40.4512693468114,-79.9453747393043,3.73000001907349,0.0123138427734375,-1.09452819824219,-0.173355102539062,-0.0493078949505991,-0.0124412233484142,0.0165866999012315
1492638486.3,40.4512693468114,-79.9453747393043,3.73000001907349,-0.005035400390625,-1.08970642089844,-0.182647705078125,-0.00237580600845969,-0.00742835522855802,0.0138556282033553
1492638486.5,40.4512693468114,-79.9453747393043,3.73000001907349,0.003997802734375,-1.02578735351562,-0.122879028320312,-0.0261088323788098,-0.032801888830397,0.0222078340140618
1492638486.7,40.4512693468114,-79.9453747393043,3.73000001907349,0.0332489013671875,-0.982086181640625,0.0577392578125,0.0156207713738598,-0.0213737319606489,0.0140758716255048
1492638486.9,40.4512693468114,-79.9453747393043,3.73000001907349,0.056549072265625,-0.963134765625,0.213516235351562,-0.00109802131743967,-0.00637534133354069,-0.00106100337828757
1492638487.1,40.4512693468114,-79.9453747393043,3.73000001907349,0.0572357177734375,-0.937789916992188,0.270004272460938,-0.00851785443050944,5.53937506736482e-05,-8.7351683754599e-05
1492638487.3,40.4512788316072,-79.9453788217074,0.620000004768372,0.064971923828125,-0.95794677734375,0.25750732421875,-0.0181989776251655,-0.0051995557122707,0.00409194701490675
1492638487.5,40.4512788316072,-79.9453788217074,0.620000004768372,0.05474853515625,-0.941192626953125,0.254531860351562,-0.015962987573935,0.00116752982189074,-0.000166447568129952
1492638487.7,40.4512788316072,-79.9453788217074,0.620000004768372,0.063079833984375,-0.950286865234375,0.253829956054688,-0.0139267346044604,-0.00735511829858084,0.00200882241024677
1492638487.9,40.4512788316072,-79.9453788217074,0.620000004768372,0.059326171875,-0.950668334960938,0.25640869140625,-0.0170596773108296,-0.00308021211678565,-0.00016671388423896
1492638488.1,40.4512788316072,-79.9453788217074,0.620000004768372,0.0597381591796875,-0.952056884765625,0.253616333007812,-0.0181563670477242,-0.00732795405546203,-0.000166980200347968
1492638488.3,40.4512801994709,-79.9453794104571,0.0,0.0525970458984375,-0.94403076171875,0.282867431640625,-0.0117413446139413,7.66990393942821e-05,0.00201201820355486
1492638488.5,40.4512801994709,-79.9453794104571,0.0,0.0577392578125,-0.94805908203125,0.281524658203125,-0.0128034132566649,-0.00736310778185108,-0.00224451216671878
1492638488.7,40.4512801994709,-79.9453794104571,0.0,0.0529632568359375,-0.942306518554688,0.270492553710938,-0.0160788350813534,-0.00840467008418107,0.00305571103475692
1492638488.9,40.4512801994709,-79.9453794104571,0.0,0.068267822265625,-0.946762084960938,0.266021728515625,-0.0192117777877226,-0.00412976390238588,0.000880174740271188
1492638489.1,40.4512801994709,-79.9453794104571,0.0,0.0581512451171875,-0.9442138671875,0.272537231445312,-0.0149981243109992,-0.00628426122425998,0.00306130367304608
1492638489.3,40.4512810564931,-79.9453797793328,0.25,0.062957763671875,-0.947830200195312,0.261749267578125,-0.0138588239966633,-0.00416491762877492,-0.00119735722609963
1492638489.5,40.4512810564931,-79.9453797793328,0.25,0.05902099609375,-0.947708129882812,0.257598876953125,-0.01596431915448,-0.000960069572973565,-0.00122718463030851
1492638489.7,40.4512810564931,-79.9453797793328,0.25,0.0532684326171875,-0.950088500976562,0.248214721679688,-0.0202538727222706,-0.00305943946028303,-0.000199470765646935
1492638489.9,40.4512810564931,-79.9453797793328,0.25,0.067047119140625,-0.941558837890625,0.236175537109375,-0.0233948049119101,0.000151800182134517,-0.00237234389904259
1492638490.1,40.4512810564931,-79.9453797793328,0.25,0.067413330078125,-0.951980590820312,0.244720458984375,-0.0149927979888191,-0.00947579347461094,0.000937166387598884
1492638490.3,40.4512842243101,-79.9453811428103,0.469999998807907,0.0584716796875,-0.947265625,0.259841918945312,-0.0192890094593349,-0.0105112305064337,0.0030282804755291
1492638490.5,40.4512842243101,-79.9453811428103,0.469999998807907,0.055450439453125,-0.943923950195312,0.251388549804688,-0.0203590675853288,-0.00731277403724858,0.00514149880050698
1492638490.7,40.4512842243101,-79.9453811428103,0.469999998807907,0.0588836669921875,-0.95068359375,0.246383666992188,-0.0161107930144344,-0.0126593362416917,0.00306636367911724
1492638490.9,40.4512842243101,-79.9453811428103,0.469999998807907,0.0569610595703125,-0.94879150390625,0.245025634765625,-0.0181923197224403,-0.00626348856775736,0.00302854679163811
1492638491.1,40.4512892174749,-79.9453832919458,0.449999988079071,0.058624267578125,-0.927703857421875,0.326873779296875,-0.00540355385177077,-0.0106020442996054,-2.7963191445832e-05
1492638491.3,40.4512892174749,-79.9453832919458,0.449999988079071,0.0709228515625,-0.913543701171875,0.397186279296875,-0.00642168033650807,-0.00634072023936966,-0.00111559818063419
1492638491.5,40.4512892174749,-79.9453832919458,0.449999988079071,0.06964111328125,-0.929092407226562,0.374313354492188,-0.0244781788433543,0.00547812236229299,0.00186767487247257
1492638491.7,40.4512892174749,-79.9453832919458,0.449999988079071,0.0673828125,-0.919586181640625,0.314056396484375,-0.0267434636665757,-0.000888430539650434,0.00825819622422671
1492638491.9,40.4512892174749,-79.9453832919458,0.449999988079071,0.0629119873046875,-0.938735961914062,0.3121337890625,-0.0181550354671792,-0.00520035466059773,0.000893756861830592
1492638492.1,40.4512892174749,-79.9453832919458,0.449999988079071,0.0750885009765625,-0.910430908203125,0.368026733398438,0.00304239522930652,-0.00852850707486975,0.00645044247628092
1492638492.3,40.4512971517443,-79.9453867069783,1.36000001430511,0.030029296875,-0.888320922851562,0.43109130859375,-0.0174506293588532,0.0437221808802669,-0.0237482063885636
1492638492.5,40.4512971517443,-79.9453867069783,1.36000001430511,0.0526885986328125,-0.9110107421875,0.406097412109375,0.0326932318579217,-0.107641509151586,0.0421948579951064
1492638492.7,40.4512971517443,-79.9453867069783,1.36000001430511,0.121063232421875,-0.868728637695312,0.414016723632812,0.00355904848078189,0.00954689987571605,-0.0213124792555771
1492638492.9,40.4512971517443,-79.9453867069783,1.36000001430511,0.118850708007812,-0.887283325195312,0.484298706054688,-0.00235849546137417,-0.00317342275493842,0.0149110389433537
1492638493.1,40.4512971517443,-79.9453867069783,1.36000001430511,0.018585205078125,-0.838180541992188,0.52459716796875,-0.0227761525906847,-0.0338889911873673,0.0115826202129726
1492638493.3,40.451316766329,-79.9453951493995,2.82999992370605,0.131256103515625,-0.9036865234375,0.477279663085938,-0.0383196922929321,-0.0178357224524787,-0.0110084426819515
1492638493.5,40.451316766329,-79.9453951493995,2.82999992370605,0.05364990234375,-0.883026123046875,0.492584228515625,-0.0417343974426317,0.0321757796581193,-0.0452913153945416
1492638493.7,40.451316766329,-79.9453951493995,2.82999992370605,0.187606811523438,-0.955612182617188,0.475265502929688,-0.0438497462964817,0.0619885364810114,0.0473707115736754
1492638493.9,40.451316766329,-79.9453951493995,2.82999992370605,0.134613037109375,-0.914306640625,0.466094970703125,0.0347113753319838,-0.000220776054367569,0.0312761638418906
1492638494.1,40.451316766329,-79.9453951493995,2.82999992370605,-0.0028839111328125,-0.937103271484375,0.473709106445312,0.0809768750532763,-0.0260587649503163,-0.0172293206722676
1492638494.3,40.4513555338991,-79.9454118355625,5.09999990463257,0.10516357421875,-0.884552001953125,0.471511840820312,-0.0131669347454608,-0.00310125108939727,0.0265285465666063
1492638494.5,40.4513555338991,-79.9454118355625,5.09999990463257,0.0760650634765625,-0.869781494140625,0.410415649414062,0.0116928750821019,-0.105380751702217,0.0217159481607241
1492638494.7,40.4513555338991,-79.9454118355625,5.09999990463257,-0.0051727294921875,-0.710525512695312,0.421127319335938,0.0898936710150796,0.0100606236499923,0.0510064590938516
1492638494.9,40.4513555338991,-79.9454118355625,5.09999990463257,0.0197601318359375,-0.957382202148438,0.391693115234375,-0.0138207407930752,-0.0998962377533083,0.0214405773040099
1492638495.1,40.4513799531365,-79.9454223459806,6.90999984741211,0.091278076171875,-0.998977661132812,0.436019897460938,0.0602164690916727,-0.129094869628828,0.0425320141891105
1492638495.3,40.4513799531365,-79.9454223459806,6.90999984741211,0.0804443359375,-0.802474975585938,0.455642700195312,0.0295701428475858,-0.0129552134387995,0.0109983226698092
1492638495.5,40.4513799531365,-79.9454223459806,6.90999984741211,-0.12506103515625,-1.01994323730469,0.686111450195312,-0.24278015655824,-0.0675686579130544,-0.0385625725843474
1492638495.7,40.4513799531365,-79.9454223459806,6.90999984741211,0.1629638671875,-0.98095703125,0.532440185546875,0.129087679093885,-0.0774244844752196,0.0185808749254828
1492638495.9,40.4513799531365,-79.9454223459806,6.90999984741211,0.062103271484375,-0.861236572265625,0.581130981445312,-0.0728683484823121,0.232340565085129,-0.150615608081649
1492638496.1,40.4513799531365,-79.9454223459806,6.90999984741211,0.00482177734375,-0.934799194335938,0.553466796875,0.0569634178201409,0.00813382660132001,-0.0335566286833254
1492638496.3,40.4514852728109,-79.9454681786636,9.27000045776367,0.156570434570312,-0.827728271484375,0.442337036132812,-0.00879508949998668,0.0808852623117776,-0.0909269775180304
1492638496.5,40.4514852728109,-79.9454681786636,9.27000045776367,0.197189331054688,-0.914398193359375,0.48944091796875,0.0190274870402891,-0.0724489006106246,0.0483614074991849
1492638496.7,40.4514852728109,-79.9454681786636,9.27000045776367,0.02154541015625,-0.818649291992188,0.484619140625,-0.00428262934895642,-0.128668231222197,0.0866515387040172
1492638496.9,40.4514852728109,-79.9454681786636,9.27000045776367,0.043365478515625,-0.829559326171875,0.454376220703125,0.0591810320598498,-0.117386548212404,0.0467560539940852
1492638497.1,40.4514852728109,-79.9454681786636,9.27000045776367,0.19677734375,-0.911544799804688,0.447769165039062,-0.000113983294655391,0.0680735932557334,-0.032163262800996
1492638497.3,40.4515858201652,-79.9455119388732,12.2700004577637,0.176712036132812,-0.85101318359375,0.422164916992188,-0.124256172244263,0.091215930496304,-0.0526858484772556
1492638497.5,40.4515858201652,-79.9455119388732,12.2700004577637,0.149017333984375,-0.92401123046875,0.383514404296875,0.025342108300976,-0.112901518620601,0.10930465325234
1492638497.7,40.4515858201652,-79.9455119388732,12.2700004577637,0.0626678466796875,-0.933425903320312,0.361007690429688,0.0520480213961816,0.0358325661509071,0.0292281929636196
1492638497.9,40.4515858201652,-79.9455119388732,12.2700004577637,-0.002532958984375,-0.924468994140625,0.362594604492188,-0.00986275078099945,-0.0541745555266099,0.0682765261307975
1492638498.1,40.4515858201652,-79.9455119388732,12.2700004577637,0.005859375,-0.871505737304688,0.3179931640625,-0.0895426663834072,0.0197321594647241,0.0171579479550535
1492638498.3,40.451701021875,-79.9455620769498,14.3999996185303,0.04290771484375,-0.984832763671875,0.284988403320312,-0.00594683871414694,-0.00101786016862828,0.0447227305018097
1492638498.5,40.451701021875,-79.9455620769498,14.3999996185303,0.1148681640625,-0.975067138671875,0.203155517578125,0.00990749188731278,0.0275908815254389,-0.00849947861898789
1492638498.7,40.451701021875,-79.9455620769498,14.3999996185303,0.0630645751953125,-1.00933837890625,0.231246948242188,-0.00759293858392492,-0.00101280016255713,0.00952080089703328
1492638498.9,40.451701021875,-79.9455620769498,14.3999996185303,0.146713256835938,-1.04563903808594,0.26788330078125,-0.11277848057824,0.0443363058276392,-0.0609770678989993
1492638499.1,40.451701021875,-79.9455620769498,14.3999996185303,-0.054534912109375,-0.91912841796875,0.317031860351562,-0.0614681548040099,0.0248640708853068,-0.0081569961028037
1492638499.3,40.4518295950309,-79.9456180345459,15.1700000762939,0.08123779296875,-0.987686157226562,0.232818603515625,-0.0888915234968828,0.00695457887063292,-0.0371793267141602
1492638499.5,40.4518295950309,-79.9456180345459,15.1700000762939,0.0766448974609375,-0.867889404296875,0.2762451171875,-0.0510983381514594,-0.0485907056690407,0.0497142933329452
1492638499.7,40.4518295950309,-79.9456180345459,15.1700000762939,-0.060272216796875,-0.946762084960938,0.148544311523438,-0.0248542171892735,-0.096628539095781,0.0511731729780906
1492638499.9,40.4518295950309,-79.9456180345459,15.1700000762939,0.0087432861328125,-0.96490478515625,0.155136108398438,-0.0507388114042987,-0.0475334307162793,0.0241261089472458
1492638500.1,40.4518295950309,-79.9456180345459,15.1700000762939,0.0464630126953125,-1.00274658203125,0.18914794921875,0.0462170301894531,-0.0258246730904984,0.0325262516575738
1492638500.3,40.4519575857549,-79.945673738656,15.0699996948242,0.031463623046875,-0.94219970703125,0.213760375976562,-0.017679394896491,-0.0966719486215493,0.0715048100041915
1492638500.5,40.4519575857549,-79.945673738656,15.0699996948242,-0.1026611328125,-0.920181274414062,0.177200317382812,-0.0602388396448293,-0.00917538890365,0.0388568518848011
1492638500.7,40.4519575857549,-79.945673738656,15.0699996948242,-0.025299072265625,-0.946029663085938,0.171630859375,0.0121069966316092,-0.0873034805388686,0.00141547011937712
1492638500.9,40.4519575857549,-79.945673738656,15.0699996948242,0.13470458984375,-0.983184814453125,0.19549560546875,-0.00447863800518626,0.0234355512765883,0.0286814459918264
1492638501.1,40.4519575857549,-79.945673738656,15.0699996948242,0.12255859375,-1.01606750488281,0.1630859375,0.0846877237161928,0.0505055184928077,-0.0131240578519105
1492638501.3,40.452082677621,-79.9457281811255,14.7600002288818,0.08966064453125,-0.989776611328125,0.195709228515625,-0.0717647345265832,0.110019445688917,-0.0649915169261847
1492638501.5,40.452082677621,-79.9457281811255,14.7600002288818,0.0916900634765625,-0.987960815429688,0.146194458007812,-0.0178762025010479,0.070312779100272,-0.0558076059070465
1492638501.7,40.452082677621,-79.9457281811255,14.7600002288818,0.0716705322265625,-1.02899169921875,0.191970825195312,0.0444798502103944,-0.0821875480848264,0.0507795577689769
1492638501.9,40.452082677621,-79.9457281811255,14.7600002288818,-0.0325469970703125,-0.994461059570312,0.218154907226562,-0.0875157344777479,-0.0036836844197976,0.0119080584981803
1492638502.1,40.452082677621,-79.9457281811255,14.7600002288818,6.103515625e-05,-1.06047058105469,0.178909301757812,-0.0166314410075448,-0.0722233308662949,0.00854581762195527
1492638502.3,40.4522076603943,-79.9457825761156,14.3699998855591,0.093353271484375,-0.86962890625,0.158218383789062,-0.071420920429854,0.00684831874313876,0.00884702114124323
1492638502.5,40.4522076603943,-79.9457825761156,14.3699998855591,0.048736572265625,-0.993087768554688,0.162246704101562,-0.0146266133389332,0.0256233381120884,-0.00661316161888476
1492638502.7,40.4522076603943,-79.9457825761156,14.3699998855591,0.0446929931640625,-1.07257080078125,0.216583251953125,0.120868098705464,-0.0688640194672689,0.00141520380326811
1492638502.9,40.4522076603943,-79.9457825761156,14.3699998855591,0.0015411376953125,-1.23129272460938,0.06365966796875,0.228518662604756,-0.0578510494114643,0.0781901432886174
1492638503.1,40.4522076603943,-79.9457825761156,14.3699998855591,-0.0013427734375,-0.989974975585938,0.170181274414062,0.0481739209584433,-0.0279754419868464,-0.0335534328900173
1492638503.3,40.452324038128,-79.9458332260213,13.6300001144409,0.162200927734375,-0.946319580078125,0.153900146484375,-0.115577729200022,0.0273413433312985,-0.0215119500212241
1492638503.5,40.452324038128,-79.9458332260213,13.6300001144409,0.0949859619140625,-0.949966430664062,0.150238037109375,0.00386424674170497,-0.0617091708826621,0.0727013682819641
1492638503.7,40.452324038128,-79.9458332260213,13.6300001144409,0.0626068115234375,-0.989089965820312,0.209304809570312,0.0183063030170957,-0.0267043151985515,0.0482359726118422
1492638503.9,40.452324038128,-79.9458332260213,13.6300001144409,0.0652618408203125,-0.910858154296875,0.12957763671875,0.0565266594013679,0.0358008745339352,0.0132809180401162
1492638504.1,40.452324038128,-79.9458332260213,13.6300001144409,0.0963134765625,-0.925765991210938,0.17620849609375,-0.0599426961316125,0.047188817671223,-0.0295232712124004
1492638504.3,40.4524370752418,-79.9458824220227,13.0,0.0771636962890625,-0.956161499023438,0.177383422851562,-0.0642162707328627,0.0355148510328607,-0.0348679692040804
1492638504.5,40.4524370752418,-79.9458824220227,13.0,-0.0140533447265625,-0.956695556640625,0.184097290039062,-0.101768173683525,0.0581024518183677,-0.00225809428827819
1492638504.7,40.4524370752418,-79.9458824220227,13.0,-0.0327911376953125,-0.906906127929688,0.161911010742188,0.036534575414252,-0.00980336228869068,0.0483789843623794
1492638504.9,40.4524370752418,-79.9458824220227,13.0,0.0411224365234375,-0.960159301757812,0.177459716796875,-0.0367154040522684,-0.0539971889980106,0.0850605662688038
1492638505.1,40.4524370752418,-79.9458824220227,13.0,-0.00726318359375,-0.934921264648438,0.178634643554688,0.00897538550578505,-0.0691990451324009,0.00666775642123139
1492638505.3,40.4525437168975,-79.9459302973186,12.4200000762939,-0.06878662109375,-0.909133911132812,0.206329345703125,-0.0372363183614879,0.0236456746865955,0.0102198806831791
1492638505.5,40.4525437168975,-79.9459302973186,12.4200000762939,0.0104522705078125,-1.00564575195312,0.162994384765625,0.0458148928648512,-0.0481574093596848,0.0496391921902049
1492638505.7,40.4525437168975,-79.9459302973186,12.4200000762939,0.00244140625,-0.932693481445312,0.189910888671875,0.0279022050568692,-0.0522983585386491,0.0334732717412059
1492638505.9,40.4525437168975,-79.9459302973186,12.4200000762939,0.0626678466796875,-0.96063232421875,0.118621826171875,-0.0404025505814831,-0.0135674741734087,-0.0121069966316092
1492638506.1,40.4525437168975,-79.9459302973186,12.4200000762939,0.0506439208984375,-0.891433715820312,0.20599365234375,-0.0605672074072361,0.00890294752413489,-0.00490793957290703
1492638506.3,40.4526431081048,-79.9459761298815,12.1899995803833,0.03131103515625,-0.974227905273438,0.165176391601562,0.0110028500436624,0.00630716440963466,-0.0222941204333803
1492638506.5,40.4526431081048,-79.9459761298815,12.1899995803833,-0.0260162353515625,-1.0084228515625,0.236358642578125,-0.0407474299426484,-0.0146250154422791,0.0124151243697314
1492638506.7,40.4526431081048,-79.9459761298815,12.1899995803833,-0.0416717529296875,-1.00291442871094,0.248443603515625,-0.034449586596829,-0.0423240213079753,0.00402137324601965
1492638506.9,40.4526431081048,-79.9459761298815,12.1899995803833,0.0002593994140625,-1.00059509277344,0.177581787109375,0.0143368614123326,-0.00435426838227955,-0.0382256827064523
1492638507.1,40.4526431081048,-79.9459761298815,12.1899995803833,-0.0160980224609375,-0.878631591796875,0.21478271484375,0.0225119670105488,-0.0416244088896115,0.0440526791715457
1492638507.3,40.4527465734065,-79.9460238411436,12.0699996948242,0.039093017578125,-0.999603271484375,0.176467895507812,-0.0580662328275427,0.0290947685930067,-0.0209276524780607
1492638507.5,40.4527465734065,-79.9460238411436,12.0699996948242,0.046722412109375,-0.953948974609375,0.241729736328125,-0.00594497450138388,0.0415221435037524,-0.00976394750455751
1492638507.7,40.4527465734065,-79.9460238411436,12.0699996948242,0.0644989013671875,-0.995834350585938,0.167007446289062,-0.0222581677586643,0.0214198046475073,0.00398169214577747
1492638507.9,40.4527465734065,-79.9460238411436,12.0699996948242,0.01055908203125,-0.948974609375,0.19134521484375,-0.00760678702159333,-0.0627011983887166,0.0544608453437934
1492638508.1,40.4527465734065,-79.9460238411436,12.0699996948242,-0.044891357421875,-0.962432861328125,0.212417602539062,0.0168945613232447,-0.0267035162502245,-0.0040229711426737
1492638508.3,40.4528497862184,-79.9460714359745,11.9099998474121,0.016754150390625,-0.921035766601562,0.175140380859375,-0.0602388396448293,-0.0442811783930745,0.0197555952823168
1492638508.5,40.4528497862184,-79.9460714359745,11.9099998474121,0.05596923828125,-0.968414306640625,0.169769287109375,-0.00897938024742017,0.0511143171179998,-0.0162170531419285
1492638508.7,40.4528497862184,-79.9460714359745,11.9099998474121,-0.0307769775390625,-0.940994262695312,0.211578369140625,0.00146101017401747,-0.0265969898066214,0.0342024452476696
1492638508.9,40.4528497862184,-79.9460714359745,11.9099998474121,0.02813720703125,-1.05709838867188,0.203811645507812,-0.085601986918417,-0.0207145995908543,0.0183688873027125
1492638509.1,40.4528497862184,-79.9460714359745,11.9099998474121,0.07989501953125,-0.872589111328125,0.187225341796875,-0.0279325650932961,-0.0870355665332066,0.0479182574937957
1492638509.3,40.4529527788757,-79.9461189292847,11.8299999237061,0.0725555419921875,-0.987106323242188,0.192642211914062,-0.00366637387271209,0.0574627605245307,-0.0119141837686875
1492638509.5,40.4529527788757,-79.9461189292847,11.8299999237061,-0.0254058837890625,-0.998306274414062,0.2476806640625,-0.00877085473406696,0.0170809825995502,0.0275876857321308
1492638509.7,40.4529527788757,-79.9461189292847,11.8299999237061,-0.046051025390625,-0.98089599609375,0.18951416015625,0.0161781709900134,-0.0479667270256352,0.0365407006847592
1492638509.9,40.4529527788757,-79.9461189292847,11.8299999237061,0.001220703125,-0.927947998046875,0.185440063476562,-0.0311693710821784,-0.119992185022937,0.0330431712251581
1492638510.1,40.4529527788757,-79.9461189292847,11.8299999237061,-0.03350830078125,-0.944717407226562,0.196441650390625,0.00730931192783148,-0.00749253741082893,0.00649145515706814
1492638510.3,40.4530529683701,-79.9461651299641,11.9300003051758,-0.01715087890625,-0.97003173828125,0.203811645507812,-0.030080138196336,0.00551780346253517,0.0220682843729416
1492638510.5,40.4530529683701,-79.9461651299641,11.9300003051758,-0.07318115234375,-0.938995361328125,0.21466064453125,-0.0540342069371627,-0.0687870541117657,0.0198823617502046
1492638510.7,40.4530529683701,-79.9461651299641,11.9300003051758,-0.0139312744140625,-1.01063537597656,0.1851806640625,-0.0358133913910586,-0.012537363463766,-0.0355193784067138
1492638510.9,40.4530529683701,-79.9461651299641,11.9300003051758,-0.0191650390625,-0.98577880859375,0.185516357421875,0.0303046426762297,-0.0374238049022295,0.0217311281789376
1492638511.1,40.4531522048721,-79.9462108911873,11.7600002288818,0.0233917236328125,-0.998809814453125,0.0750274658203125,-0.0125871645761505,0.0383644333992455,-0.0705980036530195
1492638511.3,40.4531522048721,-79.9462108911873,11.7600002288818,-0.0260772705078125,-0.994903564453125,0.089080810546875,-0.0377596295156885,-0.0284715888979281,0.0199449460358214
1492638511.5,40.4531522048721,-79.9462108911873,11.7600002288818,0.006683349609375,-1.06387329101562,0.0735015869140625,0.0334447759175421,-0.00235023966199493,-0.0327041508183911
1492638511.7,40.4531522048721,-79.9462108911873,11.7600002288818,0.0546875,-1.028564453125,-0.0126800537109375,-0.015492407009318,0.0671028710383995,-0.0760329828056532
1492638511.9,40.4531522048721,-79.9462108911873,11.7600002288818,0.0203857421875,-0.969696044921875,0.018707275390625,-0.00850853336669416,-0.0435610596343171,-0.0244976199193119
1492638512.1,40.4532457885511,-79.9462540457075,10.7299995422363,0.012939453125,-0.948822021484375,0.0098876953125,-0.0418720828709888,-0.0284465551836814,0.00924063635035694
1492638512.3,40.4532457885511,-79.9462540457075,10.7299995422363,-0.051116943359375,-1.04200744628906,0.004608154296875,-0.0304644323416344,0.0161504741146765,-0.021677864957136
1492638512.5,40.4532457885511,-79.9462540457075,10.7299995422363,-0.136062622070312,-1.00578308105469,0.0937652587890625,-0.101119693958091,0.0293677426047398,-0.0650839286160105
1492638512.7,40.4532457885511,-79.9462540457075,10.7299995422363,0.0284271240234375,-1.05755615234375,0.08648681640625,0.00111133712289007,0.0159494054523756,0.00530128846591173
1492638512.9,40.4532457885511,-79.9462540457075,10.7299995422363,0.0238494873046875,-0.933975219726562,0.0368804931640625,-0.0623198337206172,0.0259309332179925,-0.0230954656053852
1492638513.1,40.4532457885511,-79.9462540457075,10.7299995422363,-0.04632568359375,-0.973190307617188,0.0179901123046875,-0.0022080268597847,-0.0201971473910519,-0.00530155478202074
1492638513.3,40.4533322238734,-79.9462939038846,9.21000003814697,-0.028076171875,-1.045166015625,-0.045013427734375,-0.0314138492702477,-0.0848943850167829,-0.00756604065691512
1492638513.5,40.4533322238734,-79.9462939038846,9.21000003814697,-0.0530548095703125,-1.03706359863281,-0.0526580810546875,-0.0160708455980832,-0.0424467930342279,-0.0160482087288175
1492638513.7,40.4533322238734,-79.9462939038846,9.21000003814697,-0.0783233642578125,-0.999053955078125,-0.0587005615234375,-0.0411655462337908,-0.0741908742796454,0.0104321346220584
1492638513.9,40.4533322238734,-79.9462939038846,9.21000003814697,-0.104782104492188,-1.04708862304688,-0.0241851806640625,-0.0441546782412958,-0.0858757598784771,-0.0108925951745331
1492638514.1,40.453400431899,-79.9463253568542,7.17999982833862,-0.0763702392578125,-0.995162963867188,-0.058441162109375,-0.0115554559698538,-0.140337404170598,-0.01041828618439
1492638514.3,40.453400431899,-79.9463253568542,7.17999982833862,-0.0172882080078125,-1.02409362792969,-0.026458740234375,-0.0164934892630787,-0.160509784163512,0.0279669198713581
1492638514.5,40.453400431899,-79.9463253568542,7.17999982833862,-0.086212158203125,-1.00411987304688,-0.0273284912109375,0.0123639916768019,-0.0979462712031522,-0.0230773561099726
1492638514.7,40.453400431899,-79.9463253568542,7.17999982833862,0.0638427734375,-1.01443481445312,-0.017059326171875,-0.0152005245538453,-0.107342702477279,-0.0371961046290277
1492638514.9,40.453400431899,-79.9463253568542,7.17999982833862,0.13568115234375,-1.00553894042969,0.0081329345703125,-0.0230366097452944,-0.000918524259968329,-0.0290212653469205
1492638515.1,40.453400431899,-79.9463253568542,7.17999982833862,0.0833587646484375,-1.01792907714844,0.0318450927734375,-0.0187923299160351,0.0224579048404202,-0.0151773550523616
1492638515.3,40.4534456841318,-79.9463462241509,4.90999984741211,0.128036499023438,-0.975234985351562,0.0260467529296875,-0.0459134298251841,0.066244001586849,-0.0326274517789968
1492638515.5,40.4534456841318,-79.9463462241509,4.90999984741211,0.136795043945312,-0.996902465820312,-0.0235748291015625,-0.0383591070770653,0.0991718579368067,-0.0219729432059168
1492638515.7,40.4534456841318,-79.9463462241509,4.90999984741211,0.0775299072265625,-1.02223205566406,-0.084136962890625,-0.00166474199740853,0.0872379667760526,0.0136186068663382
1492638515.9,40.4534456841318,-79.9463462241509,4.90999984741211,0.0534515380859375,-1.05557250976562,-0.148849487304688,-0.0257953783185075,0.0980288291969447,-0.00691436513817273
1492638516.1,40.4534456841318,-79.9463462241509,4.90999984741211,0.0388336181640625,-1.03524780273438,-0.128707885742188,-0.0204450876885383,0.0703346170212107,-0.0238475422972235
1492638516.3,40.453479708127,-79.9463619137369,3.27999997138977,0.02410888671875,-1.02813720703125,-0.08343505859375,-0.000975515907296025,0.037238715206469,0.0137546943980412
1492638516.5,40.453479708127,-79.9463619137369,3.27999997138977,0.038360595703125,-1.01325988769531,-0.102783203125,-0.00482431631467854,0.0372589552307536,-0.0161387562058802
1492638516.7,40.453479708127,-79.9463619137369,3.27999997138977,0.07672119140625,-0.978622436523438,0.180694580078125,0.00451192751881225,0.0180525037652111,-0.0085301049715238
1492638516.9,40.453479708127,-79.9463619137369,3.27999997138977,0.070556640625,-0.9351806640625,0.236968994140625,-0.0124918234091257,0.022417957424069,-0.00871546098339331
1492638517.1,40.453479708127,-79.9463619137369,3.27999997138977,0.0868377685546875,-0.96160888671875,0.266616821289062,-0.0123813022238874,0.0351816895804918,-0.00981348230083299
1492638517.3,40.4534928387447,-79.9463679686977,1.36000001430511,0.121017456054688,-0.9425048828125,0.289230346679688,-0.0163885607161296,0.0511619877015122,-0.0194916760182899
1492638517.5,40.4534928387447,-79.9463679686977,1.36000001430511,0.125885009765625,-0.9349365234375,0.316909790039062,0.00616654950407848,0.0829273742356504,-0.0161440825280603
1492638517.7,40.4534928387447,-79.9463679686977,1.36000001430511,0.0989532470703125,-0.898422241210938,0.419998168945312,0.031862591913926,0.0997795912975628,-0.0169907014385965
1492638517.9,40.4534928387447,-79.9463679686977,1.36000001430511,0.212478637695312,-0.943862915039062,0.265487670898438,-0.0495678194729908,0.154557086494967,-0.0286279164539158
1492638518.1,40.4534928387447,-79.9463679686977,1.36000001430511,0.167556762695312,-0.997482299804688,-0.0037994384765625,-0.0654229490227776,0.152531219853743,-0.038380944998004
1492638518.3,40.4535201228948,-79.946380550319,2.75,-0.0489501953125,-0.953231811523438,-0.0955047607421875,0.00713807066973938,0.0861135801638212,-0.0076126459759915
1492638518.5,40.4535201228948,-79.946380550319,2.75,0.0122528076171875,-1.02853393554688,-0.042266845703125,-0.0044568000842476,0.0744856862123172,-0.0226283471501853
1492638518.7,40.4535201228948,-79.946380550319,2.75,-0.0019683837890625,-1.04450988769531,-0.0679931640625,-0.029980269655458,0.0129626702898517,0.0188514520922349
1492638518.9,40.4535201228948,-79.946380550319,2.75,0.0051116943359375,-1.05142211914062,-0.0818328857421875,-0.0198903512334748,0.0394864231664959,-0.00350418736232626
1492638519.1,40.4535201228948,-79.946380550319,2.75,0.0266876220703125,-0.992935180664062,0.166824340820312,0.0333182757657633,0.00616255476244336,-0.0188666321104483
1492638519.3,40.4535280508517,-79.9463842061613,0.699999988079071,0.185073852539062,-0.876922607421875,0.323379516601562,-0.0265463897459098,-0.0136577553343624,-0.0130311135298667
1492638519.5,40.4535280508517,-79.9463842061613,0.699999988079071,0.14019775390625,-0.984786987304688,0.295242309570312,-0.00055287224230045,0.120195916846328,-0.0493616908046187
1492638519.7,40.4535280508517,-79.9463842061613,0.699999988079071,0.0576629638671875,-0.927032470703125,0.350418090820312,0.00237447442791465,0.0287046154933101,-0.00218219419721093
1492638519.9,40.4535280508517,-79.9463842061613,0.699999988079071,0.128921508789062,-0.91387939453125,0.374298095703125,0.00969497163232446,0.0903472073487201,-0.0363851720770986
1492638520.1,40.4535358843089,-79.9463878184267,1.11000001430511,0.102523803710938,-0.929672241210938,0.299331665039062,-0.0137624175652025,0.107521134270314,-0.0249413025569191
1492638520.3,40.4535358843089,-79.9463878184267,1.11000001430511,0.148208618164062,-0.913360595703125,0.412155151367188,0.0199540007835277,0.153037486776967,-0.0513689153182114
1492638520.5,40.4535358843089,-79.9463878184267,1.11000001430511,0.0898590087890625,-0.98211669921875,0.317306518554688,0.0873950932803673,0.143032789509867,-0.00480540787093898
1492638520.7,40.4535358843089,-79.9463878184267,1.11000001430511,0.206649780273438,-0.860305786132812,0.3746337890625,0.0519976876515791,0.19111270088183,-0.115111942325367
1492638520.9,40.4535358843089,-79.9463878184267,1.11000001430511,0.298812866210938,-0.904220581054688,0.40374755859375,-0.0584827512220311,0.395016298163202,-0.0240086635431733
1492638521.1,40.4535358843089,-79.9463878184267,1.11000001430511,0.0556640625,-1.01943969726562,0.363876342773438,-0.082376632522222,0.488755307476247,-0.171632742772337
1492638521.3,40.4535554895257,-79.9463968590386,2.97000002861023,0.350250244140625,-0.933578491210938,0.229385375976562,0.00411192072308234,0.403109911032062,-0.0798980284956852
1492638521.5,40.4535554895257,-79.9463968590386,2.97000002861023,0.354171752929688,-0.890380859375,0.321578979492188,-0.154466006385686,0.480722414680241,-0.122238028770201
1492638521.7,40.4535554895257,-79.9463968590386,2.97000002861023,0.350997924804688,-0.900848388671875,0.247650146484375,-0.104973021739326,0.508053637999397,-0.144192329848487
1492638521.9,40.4535554895257,-79.9463968590386,2.97000002861023,0.615310668945312,-0.988479614257812,0.199172973632812,-0.0137922449694114,0.545762401138265,-0.0943102573668671
1492638522.1,40.4535554895257,-79.9463968590386,2.97000002861023,0.2550048828125,-0.95220947265625,0.40838623046875,-0.0552392873304236,0.718331245033765,-0.239118842691599
1492638522.3,40.4535712610579,-79.9464041318122,3.99000000953674,0.333648681640625,-0.947708129882812,0.159210205078125,-0.141036750272852,0.469989342855004,-0.175383538851604
1492638522.5,40.4535712610579,-79.9464041318122,3.99000000953674,0.113418579101562,-1.02969360351562,0.231781005859375,-0.0394789663154436,0.438486011372129,-0.143342248828534
1492638522.7,40.4535712610579,-79.9464041318122,3.99000000953674,0.09832763671875,-0.916534423828125,0.35784912109375,-0.014955247417449,0.274523971487548,-0.0797614083317642
1492638522.9,40.4535712610579,-79.9464041318122,3.99000000953674,0.112335205078125,-0.955673217773438,0.214584350585938,-0.143393115205354,0.278533626824771,-0.185575722659447
1492638523.1,40.4535712610579,-79.9464041318122,3.99000000953674,0.012939453125,-1.03837585449219,0.685943603515625,-0.0291456349698272,0.232067857389505,-0.0776647016055448
1492638523.3,40.4535495482027,-79.9464723840718,4.90999984741211,0.0540618896484375,-0.888626098632812,0.405441284179688,-0.00444747902043233,0.0893788819763673,-0.0152031877149353
1492638523.5,40.4535495482027,-79.9464723840718,4.90999984741211,-0.074798583984375,-0.877365112304688,0.3662109375,0.0175651452857266,0.383865908995149,-0.13941861359452
1492638523.7,40.4535495482027,-79.9464723840718,4.90999984741211,0.0095367431640625,-0.920883178710938,0.30755615234375,0.0237777674766635,-0.0129120702291402,0.0450577561669416
1492638523.9,40.4535495482027,-79.9464723840718,4.90999984741211,0.148574829101562,-0.918289184570312,0.2989501953125,0.0241343647466251,0.167904583562335,-0.0375036997349319
1492638524.1,40.4535291882526,-79.9465333697102,6.23999977111816,0.266754150390625,-0.891738891601562,0.308929443359375,0.0479507480590947,0.158183246635218,0.0064800035643808
1492638524.3,40.4535291882526,-79.9465333697102,6.23999977111816,0.220672607421875,-0.878997802734375,0.340072631835938,-0.0196980710027711,0.187340333197733,-0.0145459195579038
1492638524.5,40.4535291882526,-79.9465333697102,6.23999977111816,0.34521484375,-0.817657470703125,0.23748779296875,-0.0446082145749362,0.118371917815733,0.0557471521503017
1492638524.7,40.4535291882526,-79.9465333697102,6.23999977111816,0.285247802734375,-1.03590393066406,0.2724609375,-0.027122964121912,0.0714576720528971,0.0752390944847006
1492638524.9,40.4535291882526,-79.9465333697102,6.23999977111816,0.2713623046875,-1.03138732910156,0.226211547851562,0.0139736062396458,0.271142289535365,-0.0943834942968442
1492638525.1,40.4535291882526,-79.9465333697102,6.23999977111816,0.30767822265625,-0.761856079101562,0.604446411132812,-0.2224266816112,0.314181103279918,0.00544163705535891
1492638525.3,40.4535041970562,-79.9466082276571,7.42000007629395,0.111404418945312,-1.08442687988281,0.33380126953125,-0.121418574102784,0.353925853072152,-0.11624138894367
1492638525.5,40.4535041970562,-79.9466082276571,7.42000007629395,0.247833251953125,-0.60687255859375,0.328109741210938,0.000207726565026181,0.238290066960366,0.114538297426564
1492638525.7,40.4535041970562,-79.9466082276571,7.42000007629395,0.0198211669921875,-0.738677978515625,0.520736694335938,-0.233450304311365,-0.152706455853471,0.0886321316067091
1492638525.9,40.4535041970562,-79.9466082276571,7.42000007629395,-0.229095458984375,-1.02275085449219,0.298599243164062,0.0210536199976214,-0.0809837992721106,-0.0262308051567355
1492638526.1,40.4534754627259,-79.9466942976851,8.51000022888184,0.19659423828125,-1.017333984375,0.315948486328125,-0.159927883465329,0.15738562988874,-0.133187881908171
1492638526.3,40.4534754627259,-79.9466942976851,8.51000022888184,0.0743560791015625,-0.830490112304688,0.337783813476562,-0.123155487765733,0.0784426109599569,-0.0622375420429338
1492638526.5,40.4534754627259,-79.9466942976851,8.51000022888184,0.1998291015625,-0.956573486328125,0.224258422851562,0.0660882066630794,-0.158913751722227,0.063993364149623
1492638526.7,40.4534754627259,-79.9466942976851,8.51000022888184,0.09759521484375,-0.873321533203125,0.437347412109375,-0.176639219305577,0.109631423118093,-0.10551417607283
1492638526.9,40.4534754627259,-79.9466942976851,8.51000022888184,-0.0514068603515625,-0.869293212890625,0.264022827148438,-0.124181337417632,-0.00875887050916161,0.0424659677940765
1492638527.1,40.4534754627259,-79.9466942976851,8.51000022888184,-0.0232086181640625,-0.970474243164062,0.214111328125,0.0669947466981423,0.0697644342318247,-0.0325467579979674
1492638527.3,40.4534426242517,-79.9467950982893,9.86999988555908,0.103439331054688,-0.963851928710938,0.278778076171875,0.113885556643385,0.043927510600312,-0.0490594220208947
1492638527.5,40.4534426242517,-79.9467950982893,9.86999988555908,0.0768585205078125,-0.783233642578125,0.307693481445312,-0.109112639337745,-0.0184330694849834,0.0255857875407183
1492638527.7,40.4534426242517,-79.9467950982893,9.86999988555908,0.170196533203125,-0.96807861328125,0.261520385742188,-0.212260064149822,0.0726353218869302,-0.0908564037491433
1492638527.9,40.4534426242517,-79.9467950982893,9.86999988555908,0.0214385986328125,-0.92413330078125,0.066558837890625,0.167776219197793,-0.0670421509655457,-0.00130787841133791
1492638528.1,40.4534426242517,-79.9467950982893,9.86999988555908,-0.045501708984375,-0.85357666015625,0.38519287109375,0.0659521191313763,-0.00468343509301335,0.0028197549621759
1492638528.3,40.4534062582516,-79.9469094726038,10.6099996566772,0.035003662109375,-0.86773681640625,0.233169555664062,-0.217848974013463,-0.235793353438417,-0.00695298097397888
1492638528.5,40.4534062582516,-79.9469094726038,10.6099996566772,0.0023040771484375,-0.904541015625,0.255447387695312,-0.0481092061439544,-0.0837135393894418,0.0455706809928909
1492638528.7,40.4534062582516,-79.9469094726038,10.6099996566772,0.407196044921875,-0.696136474609375,0.33111572265625,-0.311378658864828,0.0796639366358673,-0.0812272121957438
1492638528.9,40.4534062582516,-79.9469094726038,10.6099996566772,0.240310668945312,-0.93011474609375,0.264633178710938,0.150441171030249,-0.179665102936125,0.113956396728382
1492638529.1,40.4534062582516,-79.9469094726038,10.6099996566772,-0.007904052734375,-0.968414306640625,0.271881103515625,0.0334588906713195,-0.101272559404661,-0.0100582268050113
1492638529.3,40.4533678174798,-79.9470303722601,11.1999998092651,-0.0448760986328125,-0.940963745117188,0.24053955078125,-0.14614842166915,-0.0298843958562152,0.0796130702590468
1492638529.5,40.4533678174798,-79.9470303722601,11.1999998092651,0.138641357421875,-0.816970825195312,0.218292236328125,-0.143951313769835,-0.00652048361295001,-0.0675622663264382
1492638529.7,40.4533678174798,-79.9470303722601,11.1999998092651,0.08001708984375,-0.88226318359375,0.24591064453125,-0.0388720319030146,0.17787838816079,-0.0968162919526316
1492638529.9,40.4533678174798,-79.9470303722601,11.1999998092651,0.0761260986328125,-0.98846435546875,0.217498779296875,-0.138958153042045,0.18810359516615,-0.0925363257647653
1492638530.1,40.4533678174798,-79.9470303722601,11.1999998092651,0.104507446289062,-0.905624389648438,0.286529541015625,0.0564728635473483,-0.066311645878537,0.0391330216898423
1492638530.3,40.4533280742736,-79.9471553681888,11.6199998855591,0.0839080810546875,-1.04728698730469,0.176300048828125,0.00404587432804838,-0.0127895648189965,0.008604140849828
1492638530.5,40.4533280742736,-79.9471553681888,11.6199998855591,0.0760955810546875,-0.869781494140625,0.252182006835938,0.0202765095915363,-0.0075790901462565,-0.00723634131396331
1492638530.7,40.4533280742736,-79.9471553681888,11.6199998855591,0.0585784912109375,-1.00434875488281,0.236724853515625,-0.141934768192427,-0.0554427528377056,0.0690600281234988
1492638530.9,40.4533280742736,-79.9471553681888,11.6199998855591,-0.221527099609375,-0.861724853515625,0.274032592773438,-0.0731863299164675,-0.283515335959874,0.134325318009744
1492638531.1,40.4533280742736,-79.9471553681888,11.6199998855591,-0.029296875,-0.8193359375,0.21380615234375,-0.0127586721503516,-0.139264150251296,0.000228765537637807
1492638531.3,40.4532875356554,-79.9472828657593,11.960000038147,-0.0029449462890625,-1.06813049316406,0.410049438476562,0.0195896803464049,-0.189453551522711,0.0987811722048921
1492638531.5,40.4532875356554,-79.9472828657593,11.960000038147,-0.0813751220703125,-0.864517211914062,0.285369873046875,-0.0219543010782862,-0.133877374314392,0.05236520388201
1492638531.7,40.4532875356554,-79.9472828657593,11.960000038147,0.184097290039062,-1.10858154296875,0.205078125,0.2154523953485,0.106014584041656,-0.121748539761844
1492638531.9,40.4532875356554,-79.9472828657593,11.960000038147,-0.0057525634765625,-0.687896728515625,0.0714111328125,0.264704097600099,0.0270063176661665,0.0484876413348547
1492638532.1,40.4532875356554,-79.9472828657593,11.960000038147,0.030670166015625,-0.74554443359375,0.26654052734375,-0.0586380135135827,-0.046413038845683,0.0570949779779908
1492638532.3,40.4532486879432,-79.9474050452793,12.6400003433228,-0.0379791259765625,-0.881423950195312,0.260726928710938,0.146496763139733,0.102229699500436,0.011898204802147
1492638532.5,40.4532486879432,-79.9474050452793,12.6400003433228,-0.0205535888671875,-0.910980224609375,0.3701171875,0.0458492476429132,0.132665103386188,-0.00946886925577673
1492638532.7,40.4532486879432,-79.9474050452793,12.6400003433228,0.016937255859375,-1.03358459472656,0.0964202880859375,-0.0125347003026759,-0.199880626138698,0.105942678692224
1492638532.9,40.4532486879432,-79.9474050452793,12.6400003433228,0.054840087890625,-0.86773681640625,0.17059326171875,0.0547575214892282,-0.130134035086177,-0.0257588930115734
1492638533.1,40.4532486879432,-79.9474050452793,12.6400003433228,0.10028076171875,-1.1165771484375,0.198959350585938,-0.0626458046380429,-0.0942490046617952,0.0902300282607567
1492638533.3,40.4532008645295,-79.9475675945131,13.1199998855591,-0.537002563476562,-0.093658447265625,0.505996704101562,-0.337462191213282,0.110690295967508,-0.0261312029319665
1492638533.5,40.4532008645295,-79.9475675945131,13.1199998855591,-0.810394287109375,-0.660171508789062,0.232925415039062,-0.0362818414268035,-0.0678221908488299,0.123484388160358
1492638533.7,40.4532008645295,-79.9475675945131,13.1199998855591,0.10882568359375,-0.84307861328125,0.342010498046875,-0.0652442509136332,0.00787443471114629,0.0249008225083499
1492638533.9,40.4532008645295,-79.9475675945131,13.1199998855591,0.233078002929688,-1.14944458007812,0.0478057861328125,0.0985390908618039,0.175932682668379,-0.0229018537941364
1492638534.1,40.4532008645295,-79.9475675945131,13.1199998855591,0.009857177734375,-1.08668518066406,0.1109619140625,-0.0143376603606596,0.0543410030947398,-0.0120153838901105
1492638534.3,40.4531571279609,-79.9477148799934,13.6199998855591,-0.210678100585938,-0.919448852539062,0.211105346679688,-0.00819641088693687,0.0383343396789276,-0.0801488982703707
1492638534.5,40.4531571279609,-79.9477148799934,13.6199998855591,-0.221893310546875,-0.923629760742188,0.185562133789062,-0.0937581840728936,-0.10256685569444,0.0248938982895157
1492638534.7,40.4531571279609,-79.9477148799934,13.6199998855591,0.15374755859375,-0.8760986328125,-0.073699951171875,-0.0653752784392651,0.354629726548259,-0.0868816358222
1492638534.9,40.4531571279609,-79.9477148799934,13.6199998855591,0.205154418945312,-1.02558898925781,0.1810302734375,-0.196461659931254,0.152308046954395,-0.112224543071503
1492638535.1,40.4531571279609,-79.9477148799934,13.6199998855591,0.129745483398438,-0.930328369140625,0.171417236328125,0.0185353348708425,-0.105430552814602,-0.0112665029915802
1492638535.3,40.453113414894,-79.9478639731448,13.5200004577637,0.124603271484375,-1.05328369140625,0.16845703125,0.15974252745346,-0.0818764908695051,0.0327670014201169
1492638535.5,40.453113414894,-79.9478639731448,13.5200004577637,-0.000946044921875,-0.796371459960938,0.23675537109375,0.104855842651363,-0.0411002987870839,0.0193052547419844
1492638535.7,40.453113414894,-79.9478639731448,13.5200004577637,-0.0102996826171875,-1.01506042480469,0.216796875,-0.181420126094487,0.0596694558037704,-0.0947720494998868
1492638535.9,40.453113414894,-79.9478639731448,13.5200004577637,0.101852416992188,-0.888427734375,0.247970581054688,0.0267746226513296,-0.00337981773941956,-0.0903453431359571
1492638536.1,40.4530704781531,-79.9480120917247,13.1800003051758,0.216400146484375,-1.02508544921875,-0.0460662841796875,-0.0787336944671026,0.0600723920766994,-0.0500069747367449
1492638536.3,40.4530704781531,-79.9480120917247,13.1800003051758,0.134490966796875,-0.94921875,0.106292724609375,0.0170809825995502,0.0605256620942308,0.0298726779474188
1492638536.5,40.4530704781531,-79.9480120917247,13.1800003051758,0.268112182617188,-0.974197387695312,0.18560791015625,-0.101542071306977,-0.179094387514521,0.0847196816492737
1492638536.7,40.4530704781531,-79.9480120917247,13.1800003051758,0.275009155273438,-0.792922973632812,0.123489379882812,-0.260155418458244,0.289926896284239,-0.207058644224789
1492638536.9,40.4530704781531,-79.9480120917247,13.1800003051758,0.425216674804688,-0.875930786132812,0.18206787109375,0.0351995327597953,-0.102343150162873,0.0176839222703442
1492638537.1,40.4530704781531,-79.9480120917247,13.1800003051758,0.242660522460938,-0.748977661132812,0.3211669921875,-0.183587406589593,-0.156195196881474,0.255481038112936
1492638537.3,40.4530282903893,-79.9481576265631,13.0900001525879,-0.0348968505859375,-0.9237060546875,0.096771240234375,0.0934119731311833,0.0876797852008968,-0.00779959988451507
1492638537.5,40.4530282903893,-79.9481576265631,13.0900001525879,0.0035858154296875,-0.593353271484375,0.04510498046875,-0.092190647455273,-0.040869402720574,0.0993857097723401
1492638537.7,40.4530282903893,-79.9481576265631,13.0900001525879,0.481674194335938,-1.45954895019531,-0.313201904296875,-0.0507297566565924,0.092864693527172,-0.0551359566801285
1492638537.9,40.4530282903893,-79.9481576265631,13.0900001525879,0.123687744140625,-0.991180419921875,-0.157363891601562,0.391344331652201,-0.0525012914137131,0.244040364386065
1492638538.1,40.4530282903893,-79.9481576265631,13.0900001525879,0.188629150390625,-0.7027587890625,0.1619873046875,-0.141479367646024,0.156185343185441,-0.236418663662367
1492638538.3,40.4529870384809,-79.9483002329062,12.8800001144409,0.2960205078125,-0.8138427734375,0.103164672851562,0.0626340867292466,-0.0387023885415765,-0.00672235122357801
1492638538.5,40.4529870384809,-79.9483002329062,12.8800001144409,0.235000610351562,-0.700027465820312,0.178192138671875,-0.138751225425346,0.207236010753388,-0.174682062220477
1492638538.7,40.4529870384809,-79.9483002329062,12.8800001144409,0.114608764648438,-0.396240234375,0.37017822265625,-0.201838315856015,-0.0699681660552158,-0.0743884808325293
1492638538.9,40.4529870384809,-79.9483002329062,12.8800001144409,0.281600952148438,-0.869110107421875,-0.1029052734375,0.0525617451704579,-0.0928606987855369,0.154312608306897
1492638539.1,40.4529870384809,-79.9483002329062,12.8800001144409,0.291336059570312,-0.853286743164062,0.219497680664062,0.0330745965260211,-0.276744781520565,0.232421258866158
1492638539.3,40.4529473141985,-79.9484422768821,12.7200002670288,0.151824951171875,-0.714279174804688,0.171249389648438,-0.10377220240381,-0.101432881702284,0.0567748660149632
1492638539.5,40.4529473141985,-79.9484422768821,12.7200002670288,0.384979248046875,-1.13334655761719,0.245635986328125,-0.0593669207039374,0.234396791762779,-0.0470599206744632
1492638539.7,40.4529473141985,-79.9484422768821,12.7200002670288,0.157180786132812,-0.820648193359375,0.241134643554688,-0.0932684287484281,0.0803750006469184,-0.0662013910094077
1492638539.9,40.4529473141985,-79.9484422768821,12.7200002670288,-0.063323974609375,-1.02142333984375,0.204269409179688,-0.0961808617165387,0.0229572475448101,-0.0404938970068728
1492638540.1,40.4529473141985,-79.9484422768821,12.7200002670288,0.131637573242188,-1.1787109375,0.170486450195312,0.249060156724755,-0.0282015443633941,0.0719266547208601
1492638540.3,40.4529073259624,-79.9485852646896,12.6999998092651,0.161834716796875,-0.371353149414062,-0.042816162109375,0.360546205225979,0.0540046458490628,-0.169174645086194
1492638540.5,40.4529073259624,-79.9485852646896,12.6999998092651,0.146713256835938,-1.13168334960938,0.210128784179688,-0.0566430395410043,-0.0155738997386744,0.0836911688362851
1492638540.7,40.4529073259624,-79.9485852646896,12.6999998092651,0.039031982421875,-0.768661499023438,0.205184936523438,-0.294734967316268,-0.0129789155725012,-0.025374598866275
1492638540.9,40.4529073259624,-79.9485852646896,12.6999998092651,0.13958740234375,-1.16383361816406,0.344161987304688,0.00574816689682703,0.160568373707493,-0.0984472118041961
1492638541.1,40.4529073259624,-79.9485852646896,12.6999998092651,-0.0946197509765625,-0.922988891601562,0.328414916992188,0.0566209353039567,0.207047991580428,-0.0553977454152833
1492638541.3,40.4528671383883,-79.9487289652792,12.8100004196167,0.121932983398438,-1.08720397949219,0.029449462890625,0.0963172155643508,0.01213362824251,-0.0278329628685271
1492638541.5,40.4528671383883,-79.9487289652792,12.8100004196167,0.060394287109375,-0.991317749023438,0.10443115234375,0.0163858975550395,-0.0554171864912409,0.0173702018939328
