timestamp,latitude,longitude,speed,accelerometerX,accelerometerY,accelerometerZ,gyroX,gyroY,gyroZ
1492617197.3,40.4786843018483,-79.9227614218528,0.0,0.0157318115234375,-0.97430419921875,0.168197631835938,-0.00498730177339139,-0.0286819786240444,0.03734044796011
1492617197.5,40.4786843018483,-79.9227614218528,0.0,0.0037994384765625,-0.967117309570312,0.169769287109375,-0.017107614210451,-0.00946221135305153,-0.000150734917698485
1492617197.7,40.4786843018483,-79.9227614218528,0.0,0.015380859375,-0.972793579101562,0.162338256835938,-0.0170610088913746,-0.00520781151164995,-0.00122745094641752
1492617197.9,40.4786843018483,-79.9227614218528,0.0,0.0121002197265625,-0.970565795898438,0.165023803710938,-0.0149075768339366,-0.00203066033118542,-0.00121360250874911
1492617198.1,40.4786831981708,-79.9227586302292,0.0,0.0191497802734375,-0.964431762695312,0.20501708984375,-0.0360810390806115,0.0161904215310277,-0.000411192072308234
1492617198.3,40.4786831981708,-79.9227586302292,0.0,0.014495849609375,-0.948944091796875,0.237411499023438,0.00203758455001963,-0.00639504872560727,0.00323600704055528
1492617198.5,40.4786831981708,-79.9227586302292,0.0,0.0208892822265625,-0.958206176757812,0.245712280273438,-0.0169424982228661,-0.00308234264565771,-0.00869522095910871
1492617198.7,40.4786831981708,-79.9227586302292,0.0,0.0233001708984375,-0.9381103515625,0.329421997070312,-0.00634711182598585,-0.00421445242505039,-0.00538517804024923
1492617198.9,40.4786831981708,-79.9227586302292,0.0,0.031494140625,-0.9381103515625,0.32464599609375,-0.0170104088306631,0.00542938651434454,0.000878044211399125
1492617199.1,40.4786876415018,-79.9227698691175,0.819999992847443,0.03466796875,-0.93890380859375,0.320266723632812,-0.0181776723364448,0.01714010477575,0.0146966544756023
1492617199.3,40.4786876415018,-79.9227698691175,0.819999992847443,0.0230255126953125,-0.953048706054688,0.321823120117188,-0.00924037003424793,0.0202685201082661,-0.0140076947015988
1492617199.5,40.4786876415018,-79.9227698691175,0.819999992847443,0.0570526123046875,-0.914474487304688,0.315109252929688,-0.00914582781555012,0.0426068490157417,-0.00873330416269685
1492617199.7,40.4786876415018,-79.9227698691175,0.819999992847443,0.0423736572265625,-0.921340942382812,0.349594116210938,-0.00619211585054324,0.0957686043797944,-0.039760462442665
1492617199.9,40.4786876415018,-79.9227698691175,0.819999992847443,0.0970611572265625,-0.957382202148438,0.317230224609375,0.0280497441812596,0.133841155323567,-0.0309784224320197
1492617200.1,40.4786876415018,-79.9227698691175,0.819999992847443,0.065704345703125,-0.905746459960938,0.360610961914062,0.0461994533262586,0.17733883172394,-0.0106467854059188
1492617200.3,40.4786941497592,-79.9227863309966,1.99000000953674,0.176483154296875,-0.949569702148438,0.350906372070312,0.0165725851474541,0.221133184269748,-0.0782346180788217
1492617200.5,40.4786941497592,-79.9227863309966,1.99000000953674,0.171371459960938,-0.99530029296875,0.29290771484375,0.0108680940925044,0.24457858924237,-0.0378373938195188
1492617200.7,40.4786941497592,-79.9227863309966,1.99000000953674,0.152130126953125,-0.932693481445312,0.326507568359375,0.00947233136519383,0.316918300248301,-0.0518991506912462
1492617200.9,40.4786941497592,-79.9227863309966,1.99000000953674,0.18939208984375,-0.967483520507812,0.282333374023438,0.0295863881302353,0.30721454018438,-0.0484695318394421
1492617201.1,40.4786941497592,-79.9227863309966,1.99000000953674,0.15899658203125,-0.925216674804688,0.33001708984375,0.00522991574869761,0.35948573447991,-0.107495567923849
1492617201.3,40.4787065285248,-79.9228176416425,3.5,0.239517211914062,-0.994400024414062,0.285751342773438,-0.00457371285610208,0.380828307455805,-0.0799294537965482
1492617201.5,40.4787065285248,-79.9228176416425,3.5,0.19927978515625,-0.957000732421875,0.260177612304688,-0.040700824623572,0.456580593082564,-0.12207717384036
1492617201.7,40.4787065285248,-79.9228176416425,3.5,0.267959594726562,-0.932220458984375,0.263870239257812,0.0215684090363337,0.431714391668385,-0.0947201178586302
1492617201.9,40.4787065285248,-79.9228176416425,3.5,0.229583740234375,-0.95361328125,0.259078979492188,0.0122028704308521,0.462623305595954,-0.0938295567901078
1492617202.1,40.4787065285248,-79.9228176416425,3.5,0.198699951171875,-0.91229248046875,0.340179443359375,-0.0206267152748817,0.453260430151562,-0.112267153648944
1492617202.3,40.4787199075891,-79.9228514824275,4.26999998092651,0.28515625,-0.963958740234375,0.321136474609375,-0.0779821504074822,0.573805221100691,-0.290156993402422
1492617202.5,40.4787199075891,-79.9228514824275,4.26999998092651,0.319076538085938,-0.916061401367188,0.281112670898438,-0.0896859444500535,0.461142055397652,-0.197225454531889
1492617202.7,40.4787199075891,-79.9228514824275,4.26999998092651,0.251419067382812,-0.907012939453125,0.26806640625,-0.0480301102595791,0.455562999230045,-0.131745513861784
1492617202.9,40.4787199075891,-79.9228514824275,4.26999998092651,0.249343872070312,-0.89837646484375,0.234100341796875,-0.0938508620788284,0.407989887413523,-0.155548581368803
1492617203.1,40.4787199075891,-79.9228514824275,4.26999998092651,0.267837524414062,-0.914093017578125,0.34759521484375,-0.0276382857928423,0.346932125733494,-0.124859111915057
1492617203.3,40.4786690990647,-79.9229192976877,5.15999984741211,0.244522094726562,-0.952041625976562,0.355636596679688,-0.0533108923850972,0.327964293501623,-0.049371810816761
1492617203.5,40.4786690990647,-79.9229192976877,5.15999984741211,0.165206909179688,-0.866180419921875,0.340927124023438,-0.093030874779193,0.288865360273734,-0.0475451486250756
1492617203.7,40.4786690990647,-79.9229192976877,5.15999984741211,0.179443359375,-0.903244018554688,0.397232055664062,0.0507481324681139,0.0975324159697539,0.00240030709048842
1492617203.9,40.4786690990647,-79.9229192976877,5.15999984741211,0.117431640625,-0.922119140625,0.50177001953125,0.00114329505597102,0.0553098610993107,0.0243918924240357
1492617204.1,40.4786186302614,-79.9229498350873,6.94999980926514,0.192184448242188,-0.9268798828125,0.476669311523438,-0.0461978554296045,0.177936977704772,-0.0286537491164895
1492617204.3,40.4786186302614,-79.9229498350873,6.94999980926514,0.09796142578125,-0.78857421875,0.49005126953125,-0.0300630939653595,0.158681524075172,-0.0508293588813614
1492617204.5,40.4786186302614,-79.9229498350873,6.94999980926514,0.0787200927734375,-0.954376220703125,0.455093383789062,-0.0937856146321214,0.0452910490784326,0.0298431168593189
1492617204.7,40.4786186302614,-79.9229498350873,6.94999980926514,0.111709594726562,-0.948165893554688,0.3939208984375,0.0398166551416657,0.013578126817769,0.054749532005958
1492617204.9,40.4786186302614,-79.9229498350873,6.94999980926514,0.027191162109375,-0.946365356445312,0.41876220703125,0.0168639349707088,0.0413809959659782,0.0352509317688338
1492617205.1,40.4786186302614,-79.9229498350873,6.94999980926514,0.104278564453125,-0.949661254882812,0.42718505859375,0.021173462246675,-0.0299230116920213,-0.00716949597060232
1492617205.3,40.4785492462685,-79.922991817591,9.47000026702881,0.0240020751953125,-0.872650146484375,0.422027587890625,0.0126888973297915,-0.0351872822187809,-0.0125738487707001
1492617205.5,40.4785492462685,-79.922991817591,9.47000026702881,0.076416015625,-0.95257568359375,0.421051025390625,-0.0714941573598312,0.0068496503236838,0.0141773380630368
1492617205.7,40.4785492462685,-79.922991817591,9.47000026702881,0.036376953125,-0.90045166015625,0.403121948242188,-0.0509992685589084,0.00884089587073605,-0.00374360554432439
1492617205.9,40.4785492462685,-79.922991817591,9.47000026702881,0.032135009765625,-0.991134643554688,0.494461059570312,-0.00998685408779714,0.0255887170179174,-0.0342871337703342
1492617206.1,40.4785492462685,-79.922991817591,9.47000026702881,-0.0020751953125,-0.855300903320312,0.418502807617188,-0.021779065078559,-0.185994904215025,0.0887527728040897
1492617206.3,40.4784546565621,-79.923049051436,11.9099998474121,0.07574462890625,-0.992843627929688,0.359909057617188,-0.0187502519708119,-0.0551886872697121,0.0170098761984451
1492617206.5,40.4784546565621,-79.923049051436,11.9099998474121,0.149383544921875,-0.958969116210938,0.308609008789062,-0.0420379978069008,0.0970738196300423,0.0121136545343344
1492617206.7,40.4784546565621,-79.923049051436,11.9099998474121,0.07623291015625,-0.867507934570312,0.304824829101562,0.0605453694862974,-0.118462731608905,0.0243823050441115
1492617206.9,40.4784546565621,-79.923049051436,11.9099998474121,0.0535736083984375,-0.97564697265625,0.25103759765625,-0.00849734809011582,0.0372759994617301,-0.0588249674221062
1492617207.1,40.4784546565621,-79.923049051436,11.9099998474121,0.0359344482421875,-0.982742309570312,0.231033325195312,0.0192445346691306,-0.053304234482372,0.0429831536777699
1492617207.3,40.4783526966278,-79.9231107448201,13.0799999237061,0.0898590087890625,-1.01991271972656,0.192108154296875,0.0316695127348953,0.0487201352980186,-0.0307216937029361
1492617207.5,40.4783526966278,-79.9231107448201,13.0799999237061,0.0530853271484375,-0.957763671875,0.117584228515625,0.00397663213970632,-0.00640543505385858,0.0171166689581573
1492617207.7,40.4783526966278,-79.9231107448201,13.0799999237061,0.0048675537109375,-0.967437744140625,0.235504150390625,0.0471778987107537,-0.0864669816404747,0.00710344957556835
1492617207.9,40.4783526966278,-79.9231107448201,13.0799999237061,0.0460205078125,-0.958526611328125,0.1893310546875,-0.0631387557558166,-0.0187342730042714,0.0121964788442359
1492617208.1,40.478245150505,-79.9231758182657,13.0900001525879,0.0462799072265625,-0.957809448242188,0.20257568359375,0.0274694413797313,-0.0416523720810573,0.0707588585828603
1492617208.3,40.478245150505,-79.9231758182657,13.0900001525879,0.0852203369140625,-0.997283935546875,0.140243530273438,-0.0301768109439059,0.0193366800428473,-0.0408749953588632
1492617208.5,40.478245150505,-79.9231758182657,13.0900001525879,-0.0140228271484375,-0.911331176757812,0.182846069335938,-0.00951121351710899,-0.0775848067728424,0.0299568338378653
1492617208.7,40.478245150505,-79.9231758182657,13.0900001525879,0.115737915039062,-1.00904846191406,0.169021606445312,-0.107782923005469,-0.0280191178287237,0.00110121711074776
1492617208.9,40.478245150505,-79.9231758182657,13.0900001525879,-0.023406982421875,-0.952743530273438,0.240982055664062,-0.0842821242821737,-0.0622023883165447,0.0547407435743607
1492617209.1,40.478245150505,-79.9231758182657,13.0900001525879,0.149490356445312,-0.882095336914062,0.225921630859375,-0.00731730141110172,0.00642887087145128,-0.00648879199597806
1492617209.3,40.4781351168745,-79.9232423968397,12.6700000762939,0.0452117919921875,-0.916000366210938,0.187347412109375,-0.0270918051371581,0.0554874939440189,-0.0132151379611912
1492617209.5,40.4781351168745,-79.9232423968397,12.6700000762939,0.0212554931640625,-0.92889404296875,0.137969970703125,-0.0347553174899701,0.000221575002694593,-0.0280779736888144
1492617209.7,40.4781351168745,-79.9232423968397,12.6700000762939,0.079254150390625,-0.974441528320312,0.169189453125,-0.0883967081663461,-0.014318219284702,-0.00726536976984517
1492617209.9,40.4781351168745,-79.9232423968397,12.6700000762939,0.0266265869140625,-0.999053955078125,0.209930419921875,-0.0185286769681173,0.0341550409802662,-0.0279994104366571
1492617210.1,40.4781351168745,-79.9232423968397,12.6700000762939,-0.019866943359375,-1.00201416015625,0.14263916015625,-0.107318734027468,-0.0280151230870885,0.0448207348299246
1492617210.3,40.4780338503371,-79.9233036706667,12.2799997329712,0.0518341064453125,-1.044921875,0.155319213867188,0.041575140409445,-0.00133477633834771,-0.00383575091804113
1492617210.5,40.4780338503371,-79.9233036706667,12.2799997329712,0.041839599609375,-0.951080322265625,0.1927490234375,-0.0120902187167417,-0.0424694299034936,0.00425067141587547
1492617210.7,40.4780338503371,-79.9233036706667,12.2799997329712,-0.0123138427734375,-0.979446411132812,0.17449951171875,-0.070882961889658,-0.034650122626912,-0.0528807918690494
1492617210.9,40.4780338503371,-79.9233036706667,12.2799997329712,0.110824584960938,-0.815017700195312,0.191802978515625,-0.0341009788101376,0.102323176454697,-0.0976386760972481
1492617211.1,40.4780338503371,-79.9233036706667,12.2799997329712,0.123153686523438,-1.02143859863281,0.151412963867188,0.00142798697650049,-0.158484183838397,0.119839585892476
1492617211.3,40.4780008191874,-79.9233236569821,11.8400001525879,-0.026611328125,-0.921249389648438,0.182510375976562,-0.0157406136229133,-0.00628319595982395,-0.0204030097433151
1492617211.5,40.4780008191874,-79.9233236569821,11.8400001525879,-0.0016326904296875,-0.959197998046875,0.130172729492188,-0.000717721913776355,-0.0350927400000831,0.0331358492310929
1492617211.7,40.4780008191874,-79.9233236569821,11.8400001525879,0.04632568359375,-0.974716186523438,0.156829833984375,-0.0412582242397256,0.0045204496343005,-0.0174935062524035
1492617211.9,40.4780008191874,-79.9233236569821,11.8400001525879,-0.112625122070312,-0.956649780273438,0.215301513671875,-0.0132127411162101,-0.0690443154730673,0.0714792436577268
1492617212.1,40.4780008191874,-79.9233236569821,11.8400001525879,0.026824951171875,-1.03172302246094,0.164169311523438,-0.033205890367762,0.0257373214067438,-0.0494522382816814
1492617212.3,40.477843713053,-79.923429731354,11.3999996185303,0.0760345458984375,-0.988601684570312,0.132492065429688,-0.0381372657582617,0.0396067980477674,0.00697082415328241
1492617212.5,40.477843713053,-79.923429731354,11.3999996185303,0.0527191162109375,-0.95281982421875,0.12713623046875,-0.00265144318128289,-0.049975815751991,0.0107639644938823
1492617212.7,40.477843713053,-79.923429731354,11.3999996185303,0.083160400390625,-0.9583740234375,0.136932373046875,0.00571780686040012,0.0446383082952541,-0.00432151150087158
1492617212.9,40.477843713053,-79.923429731354,11.3999996185303,0.0312042236328125,-0.997360229492188,0.153396606445312,-0.0230752255811006,0.00759267226781591,-0.0215801269451301
1492617213.1,40.4777555773412,-79.9234884046762,10.9899997711182,0.033111572265625,-0.948898315429688,0.118087768554688,0.00411245335530036,-0.0117269635440549,0.00433722415130305
1492617213.3,40.4777555773412,-79.9234884046762,10.9899997711182,-0.016326904296875,-0.956130981445312,0.155990600585938,-0.0237471411241276,0.0267410668215946,-0.0397620603393191
1492617213.5,40.4777555773412,-79.9234884046762,10.9899997711182,0.066864013671875,-0.943450927734375,0.22332763671875,0.00184583695153392,-0.00851918601105447,0.0160340939750401
1492617213.7,40.4777555773412,-79.9234884046762,10.9899997711182,0.0337066650390625,-0.976654052734375,0.200653076171875,0.00690770723544753,0.0456929200869255,-0.0128417627763621
1492617213.9,40.4777555773412,-79.9234884046762,10.9899997711182,0.1478271484375,-0.987991333007812,0.237106323242188,0.00887072327494494,0.0254696737171908,-0.0117032614103532
1492617214.1,40.4777555773412,-79.9234884046762,10.9899997711182,0.172836303710938,-0.996017456054688,0.212661743164062,-0.0515433523696116,0.0450079550545571,-0.0219681495159546
1492617214.3,40.4776693275575,-79.9235428870469,10.6099996566772,0.0617218017578125,-1.02737426757812,0.15948486328125,0.103153816398693,-0.0134351150672317,0.0032232238673229
1492617214.5,40.4776693275575,-79.9235428870469,10.6099996566772,-0.03857421875,-0.958236694335938,0.18572998046875,0.00312495322309898,-0.017040502550981,-0.00418888607858563
1492617214.7,40.4776693275575,-79.9235428870469,10.6099996566772,-0.0192413330078125,-0.937240600585938,0.213302612304688,0.0292665424833168,-0.0299706822755337,0.0238336938595551
1492617214.9,40.4776693275575,-79.9235428870469,10.6099996566772,0.0457305908203125,-0.964523315429688,0.24468994140625,-0.0349377440246405,0.0129906334812975,-0.00785472731907971
1492617215.1,40.4776693275575,-79.9235428870469,10.6099996566772,0.0492095947265625,-0.989273071289062,0.187057495117188,0.0196187088022867,-0.017141436356295,0.0354301625101962
1492617215.3,40.4775764856925,-79.9235738670105,10.3500003814697,0.052734375,-0.917312622070312,0.2574462890625,0.0140870569020831,0.0690408533636502,-0.0576095007005941
1492617215.5,40.4775764856925,-79.9235738670105,10.3500003814697,0.00323486328125,-0.954605102539062,0.283004760742188,-0.000894822126266624,-0.0606210032612557,0.0321337017128961
1492617215.7,40.4775764856925,-79.9235738670105,10.3500003814697,-0.0088653564453125,-0.96295166015625,0.203704833984375,-0.00306449946635418,0.106387160278158,-0.0290937033285706
1492617215.9,40.4775764856925,-79.9235738670105,10.3500003814697,0.093963623046875,-0.893753051757812,0.227325439453125,0.0233521943344688,-0.00972533166875136,0.00026418558013586
1492617216.1,40.4775764856925,-79.9235738670105,10.3500003814697,0.074005126953125,-0.977188110351562,0.217254638671875,-0.0308790865233598,-0.0657430609858051,0.0414358570844339
1492617216.3,40.4774939359685,-79.9236225410155,10.4399995803833,0.0487823486328125,-1.01025390625,0.2552490234375,0.0521399004537893,-0.0162958827101949,-0.00582140382680421
1492617216.5,40.4774939359685,-79.9236225410155,10.4399995803833,0.025238037109375,-0.9871826171875,0.234130859375,-0.0122753084125022,-0.0339555702146193,0.0223524436612531
1492617216.7,40.4774939359685,-79.9236225410155,10.4399995803833,-0.0377044677734375,-0.888198852539062,0.286209106445312,-0.00628106543095188,-0.0552661852574334,0.0395282347956101
1492617216.9,40.4774939359685,-79.9236225410155,10.4399995803833,0.070220947265625,-1.08987426757812,0.233749389648438,0.0218293988231615,-0.0160929498351308,0.0301190203482511
1492617217.1,40.4774939359685,-79.9236225410155,10.4399995803833,0.13507080078125,-0.82965087890625,0.214859008789062,-0.147374541035023,0.0488226669999866,-0.0208267186727467
1492617217.3,40.4774019395727,-79.923676785086,10.6499996185303,0.135787963867188,-0.974929809570312,0.126907348632812,-0.0745354873247017,-0.171815435623116,0.138288101711782
1492617217.5,40.4774019395727,-79.923676785086,10.6499996185303,0.0865631103515625,-0.877944946289062,0.221435546875,0.0341933904999634,-0.0906353613786667,0.0197758353066014
1492617217.7,40.4774019395727,-79.923676785086,10.6499996185303,0.100311279296875,-0.919143676757812,0.273574829101562,-0.0793470204661478,0.114325510855467,-0.0533519050658844
1492617217.9,40.4774019395727,-79.923676785086,10.6499996185303,0.074371337890625,-0.969345092773438,0.196304321289062,0.0251341154198408,0.0083519394945975,0.0354208414463809
1492617218.1,40.4774019395727,-79.923676785086,10.6499996185303,0.0651092529296875,-0.99102783203125,0.215408325195312,0.129265311938593,0.0119200427230857,-0.0232302215565432
1492617218.3,40.4773137806376,-79.9237287664645,10.9300003051758,0.08001708984375,-1.02435302734375,0.257904052734375,0.064967282160265,0.0293640141792137,0.0155163754591287
1492617218.5,40.4773137806376,-79.9237287664645,10.9300003051758,0.129653930664062,-0.908966064453125,0.220596313476562,-0.0620375386450688,0.079116390715747,-0.0147001165850194
1492617218.7,40.4773137806376,-79.9237287664645,10.9300003051758,0.0514068603515625,-0.949172973632812,0.276077270507812,-0.0222256771933653,0.0192791557633016,-0.0770447177037743
1492617218.9,40.4773137806376,-79.9237287664645,10.9300003051758,-0.0361785888671875,-0.969711303710938,0.258453369140625,-0.0416289362634646,-0.0656719545847,0.0487891111702516
1492617219.1,40.4773137806376,-79.9237287664645,10.9300003051758,0.0948028564453125,-0.90283203125,0.191696166992188,-0.136373821520233,0.126392826386834,-0.0816884716965455
1492617219.3,40.4772478912601,-79.9237676169869,11.210000038147,0.307846069335938,-0.92315673828125,0.124862670898438,0.0600060793655564,-0.102495749293335,0.0723152099239026
1492617219.5,40.4772478912601,-79.9237676169869,11.210000038147,0.270706176757812,-0.984725952148438,0.124862670898438,0.0142971803120904,-0.0883698102393363,0.0739432002982681
1492617219.7,40.4772478912601,-79.9237676169869,11.210000038147,-0.039031982421875,-0.975189208984375,0.21624755859375,0.0225923944754692,-0.00227726904812676,-0.0178884530420622
1492617219.9,40.4772478912601,-79.9237676169869,11.210000038147,0.110336303710938,-0.927536010742188,0.1767578125,-0.0608289961423909,0.0397458150566696,-0.0465725621949787
1492617220.1,40.4772478912601,-79.9237676169869,11.210000038147,0.0232086181640625,-0.941650390625,0.214569091796875,-0.0538371330164968,-0.0464505894170531,0.0176943085985955
1492617220.3,40.4771281226064,-79.9238219140326,11.3400001525879,-0.0078582763671875,-0.986099243164062,0.20635986328125,0.0341654273085175,-0.065103369691968,0.0357028702058203
1492617220.5,40.4771281226064,-79.9238219140326,11.3400001525879,0.133193969726562,-0.950439453125,0.197891235351562,-0.0631795021204948,0.0259341290113006,-0.0380312719468766
1492617220.7,40.4771281226064,-79.9238219140326,11.3400001525879,0.0865936279296875,-0.999801635742188,0.218307495117188,-0.10842421219596,0.0166602031473177,-0.0054179349216572
1492617220.9,40.4771281226064,-79.9238219140326,11.3400001525879,0.056427001953125,-0.947723388671875,0.162368774414062,-0.0279032703213052,-0.0753341693356164,0.0521532162592397
1492617221.1,40.4771281226064,-79.9238219140326,11.3400001525879,0.100570678710938,-0.985397338867188,0.149871826171875,-0.0674424240773846,0.0663867470212772,-0.0157888168386438
1492617221.3,40.4770325185989,-79.9238651893634,11.4300003051758,0.117034912109375,-0.977035522460938,0.154266357421875,0.0280705168377622,0.0221529728956061,-0.01576298417607
1492617221.5,40.4770325185989,-79.9238651893634,11.4300003051758,0.14007568359375,-0.936325073242188,0.167831420898438,0.0464726936541007,-0.01519120349003,0.0197068594343683
1492617221.7,40.4770325185989,-79.9238651893634,11.4300003051758,0.10400390625,-0.985641479492188,0.217758178710938,-0.0121235082303677,0.00965795369317236,0.0350360146688644
1492617221.9,40.4770325185989,-79.9238651893634,11.4300003051758,0.152435302734375,-1.05586242675781,0.180679321289062,-0.0358978135976141,-0.0348634418302273,0.0359737136886813
1492617222.1,40.4770325185989,-79.9238651893634,11.4300003051758,0.004302978515625,-0.953277587890625,0.142837524414062,-0.0883727397165354,0.0005747101632391,-0.000906273718953965
1492617222.3,40.4769359920536,-79.9239088822827,11.3199996948242,0.0780487060546875,-1.01786804199219,0.0612945556640625,-0.0183864641659071,0.153274508113984,-0.128529480529404
1492617222.5,40.4769359920536,-79.9239088822827,11.3199996948242,0.0597991943359375,-0.94573974609375,0.182693481445312,-0.0252800566475772,0.0554669876036253,-0.0675734516030165
1492617222.7,40.4769359920536,-79.9239088822827,11.3199996948242,0.04449462890625,-0.991424560546875,0.128448486328125,0.013108345201479,-0.020301543305783,-0.0349984640974943
1492617222.9,40.4769359920536,-79.9239088822827,11.3199996948242,-0.0097198486328125,-0.917251586914062,0.196502685546875,0.00762356493646083,0.00313986692520342,-0.0105921906035722
1492617223.1,40.4769359920536,-79.9239088822827,11.3199996948242,0.1220703125,-0.999664306640625,0.160476684570312,-0.00891732859402132,-0.00632021389897605,0.0255141485073951
1492617223.3,40.4768381830896,-79.9239531556912,11.3299999237061,0.00677490234375,-0.95733642578125,0.192581176757812,0.0177928455589284,-0.046919838401125,-0.00289538873713415
1492617223.5,40.4768381830896,-79.9239531556912,11.3299999237061,0.039154052734375,-0.9588623046875,0.211212158203125,-0.0448798570061243,-0.0231101129913806,-0.00146607018008862
1492617223.7,40.4768381830896,-79.9239531556912,11.3299999237061,0.092620849609375,-0.992889404296875,0.208511352539062,0.0429674410273384,-0.00453909176193105,-0.0294023636989108
1492617223.9,40.4768381830896,-79.9239531556912,11.3299999237061,0.03033447265625,-1.03201293945312,0.194915771484375,0.00212813202708232,0.0212624118270836,0.011695271927083
1492617224.1,40.4768381830896,-79.9239531556912,11.3299999237061,0.13104248046875,-1.02412414550781,0.1614990234375,-0.0416843300141383,-0.0327052160828271,-0.00673966177066353
1492617224.3,40.4767392745389,-79.9239979268296,11.3500003814697,0.11004638671875,-0.96893310546875,0.146133422851562,0.00121173829598605,0.0521047467274003,-0.0598300444175021
1492617224.5,40.4767392745389,-79.9239979268296,11.3500003814697,-0.0301666259765625,-0.905029296875,0.217269897460938,0.049036785151629,0.0634966846063232,-0.0465752253560688
1492617224.7,40.4767392745389,-79.9239979268296,11.3500003814697,0.0772552490234375,-0.96282958984375,0.221664428710938,-0.0488959039299638,0.0651971129623388,-0.0486484962646955
1492617224.9,40.4767392745389,-79.9239979268296,11.3500003814697,0.1077880859375,-0.994537353515625,0.119735717773438,-0.0166322399558719,0.0128691933355899,-0.0225939923721232
1492617225.1,40.4767392745389,-79.9239979268296,11.3500003814697,0.06854248046875,-1.01406860351562,0.176849365234375,0.0178780667138109,-0.0277727754278913,0.0013209279006793
1492617225.3,40.4766429761561,-79.9240415164707,11.2200002670288,0.0791778564453125,-1.02395629882812,0.163162231445312,-0.0433184456590109,0.00985209813663913,-0.01966078674751
1492617225.5,40.4766429761561,-79.9240415164707,11.2200002670288,0.135848999023438,-1.0211181640625,0.1739501953125,-0.0414840603001643,0.069404641168555,-0.0432523992639769
1492617225.7,40.4766429761561,-79.9240415164707,11.2200002670288,0.0799407958984375,-0.978225708007812,0.146987915039062,-0.00317075959384834,-0.0254987021730727,0.061873754238029
1492617225.9,40.4766429761561,-79.9240415164707,11.2200002670288,0.123977661132812,-0.955001831054688,0.099456787109375,0.0218405840997398,0.0764460390907245,0.00215875837961823
1492617226.1,40.4766429761561,-79.9240415164707,11.2200002670288,0.092041015625,-0.979751586914062,0.135086059570312,-0.00769547028589297,-0.00101093594979408,0.0169832445875443
1492617226.3,40.4765504529613,-79.9240833972659,11.039999961853,0.0459136962890625,-0.980636596679688,0.218170166015625,-0.0299349959169267,-0.00831438892322738,0.00397982793301441
1492617226.5,40.4765504529613,-79.9240833972659,11.039999961853,0.005859375,-0.960952758789062,0.207321166992188,-0.0546768277081988,-0.0613411220200131,-0.00679878394686329
1492617226.7,40.4765504529613,-79.9240833972659,11.039999961853,-0.0555267333984375,-0.949874877929688,0.209243774414062,0.0492642191087218,-0.0896590465230437,0.0860328863827918
1492617226.9,40.4765504529613,-79.9240833972659,11.039999961853,0.03253173828125,-0.998428344726562,0.087249755859375,0.0828733120655218,-0.0356426827651845,-0.00545681707357236
1492617227.1,40.4765504529613,-79.9240833972659,11.039999961853,-0.021728515625,-0.993133544921875,0.216873168945312,-0.015325693125079,-0.0381926595089354,0.00953757881190078
1492617227.3,40.4764577092935,-79.9241253778587,10.960000038147,0.057342529296875,-0.94378662109375,0.19512939453125,0.00874555470371121,0.0478119973663016,0.0095620798939295
1492617227.5,40.4764577092935,-79.9241253778587,10.960000038147,0.0709381103515625,-0.938735961914062,0.142974853515625,-0.0318519392695657,-0.0242491469896075,0.0573120256068322
1492617227.7,40.4764577092935,-79.9241253778587,10.960000038147,-0.0206756591796875,-0.958969116210938,0.212234497070312,-0.0565879121064397,-0.00494921856980326,0.00796311797544593
1492617227.9,40.4764577092935,-79.9241253778587,10.960000038147,0.0890960693359375,-0.940567016601562,0.165496826171875,-0.082342011428051,0.0888236128890858,-0.00427091144016007
1492617228.1,40.4764577092935,-79.9241253778587,10.960000038147,0.0752716064453125,-0.92431640625,0.106918334960938,-0.0917187353101109,-0.0313161112582418,-0.00725551607381188
1492617228.3,40.4763612912025,-79.924169021686,11.0,-0.036834716796875,-0.904449462890625,0.196380615234375,-0.0584436027540069,-0.0400337027705071,0.0464183651678631
1492617228.5,40.4763612912025,-79.924169021686,11.0,0.027618408203125,-1.06640625,0.164031982421875,-0.0922889180994969,0.0495190836250424,-0.0767738742209133
1492617228.7,40.4763612912025,-79.924169021686,11.0,0.105239868164062,-0.962265014648438,0.14874267578125,-0.0493680823912349,0.0524275218515179,-0.0987324363569436
1492617228.9,40.4763612912025,-79.924169021686,11.0,0.13800048828125,-0.956954956054688,0.156723022460938,-0.0379090328528419,0.0810788741230264,-0.0645702048417342
1492617229.1,40.4763612912025,-79.924169021686,11.0,0.121688842773438,-0.969253540039062,0.169815063476562,-0.0826030012148787,0.0228720263899275,-0.0211628096023147
1492617229.3,40.4762722965641,-79.9242084206288,10.75,-0.0091552734375,-1.01165771484375,0.186370849609375,-0.0704067886867518,-0.0271996631613063,-0.00598172612442698
1492617229.5,40.4762722965641,-79.9242084206288,10.75,0.0492095947265625,-0.95050048828125,0.21417236328125,-0.0232608479090791,-0.0945174512996752,0.0138665471638246
1492617229.7,40.4762722965641,-79.9242084206288,10.75,0.0044708251953125,-0.846267700195312,0.158004760742188,-0.113716978546383,-0.106683037475266,0.0801433056320815
1492617229.9,40.4762722965641,-79.9242084206288,10.75,0.146865844726562,-0.9427490234375,0.129776000976562,-0.00212866465930033,-0.0733767459344082,0.0374850576073013
1492617230.1,40.4762722965641,-79.9242084206288,10.75,0.05401611328125,-0.990631103515625,0.128158569335938,-0.0522144689643116,-0.00923424476374075,-0.00264318738190364
1492617230.3,40.4761795540422,-79.9242493373359,10.7799997329712,-0.132919311523438,-0.969268798828125,0.25067138671875,0.167387930310859,0.0425250899702763,0.00906753087950179
1492617230.5,40.4761795540422,-79.9242493373359,10.7799997329712,0.050048828125,-0.956268310546875,0.217788696289062,-0.0957699359603395,-0.0153350141888943,-0.0137355196381927
1492617230.7,40.4761795540422,-79.9242493373359,10.7799997329712,0.11846923828125,-1.11257934570312,0.316192626953125,-0.0558568743872129,0.0982272346981556,0.0109029815027844
1492617230.9,40.4761795540422,-79.9242493373359,10.7799997329712,0.12060546875,-0.996170043945312,0.21429443359375,-0.00391031942856335,0.121271034978393,-0.114437896253468
1492617231.1,40.4761795540422,-79.9242493373359,10.7799997329712,0.14349365234375,-1.02679443359375,0.119873046875,0.0402587398826188,-0.0289823831950053,-0.000579237537092234
1492617231.3,40.4760874423059,-79.9242899757493,10.8400001525879,0.0306396484375,-0.874832153320312,0.163558959960938,0.0157334230879701,-0.103276854441055,0.0388113118301608
1492617231.5,40.4760874423059,-79.9242899757493,10.8400001525879,0.11212158203125,-0.950424194335938,0.160385131835938,-0.0993737255474347,0.0134036897663688,-0.0458330023602637
1492617231.7,40.4760874423059,-79.9242899757493,10.8400001525879,0.080322265625,-1.01676940917969,0.144073486328125,-0.0154721669850334,-0.0147861366882289,0.0329323837238109
1492617231.9,40.4760874423059,-79.9242899757493,10.8400001525879,-0.001800537109375,-0.86285400390625,0.194427490234375,0.0200852946252686,0.0775168961650454,-0.0245173273113785
1492617232.1,40.4760874423059,-79.9242899757493,10.8400001525879,0.0463409423828125,-1.04447937011719,0.183914184570312,0.0197505352762456,0.00626002645834026,0.0385697631192906
1492617232.3,40.4759954688551,-79.9243305531531,10.8800001144409,0.0888671875,-0.961532592773438,0.177642822265625,-0.0183907252236512,-0.0307275526573343,0.00415586288106865
1492617232.5,40.4759954688551,-79.9243305531531,10.8800001144409,-0.0228118896484375,-0.92181396484375,0.15570068359375,0.0451347215224449,0.0837303173043093,-0.0615943886396796
1492617232.7,40.4759954688551,-79.9243305531531,10.8800001144409,0.11590576171875,-0.983184814453125,0.17364501953125,-0.0172783228363251,0.112854380669307,-0.0761693366534653
1492617232.9,40.4759954688551,-79.9243305531531,10.8800001144409,0.06634521484375,-0.969146728515625,0.163116455078125,0.0624995970941976,-0.00784940099689955,0.0198520017137777
1492617233.1,40.4759954688551,-79.9243305531531,10.8800001144409,0.02593994140625,-0.957351684570312,0.2900390625,-0.0435195143213119,0.00453669491694998,-0.00792077371411367
1492617233.3,40.4759055502624,-79.9243702239821,10.789999961853,0.001708984375,-0.979461669921875,0.273635864257812,0.0553066653060026,0.0730316002571339,-0.0326748560464002
1492617233.5,40.4759055502624,-79.9243702239821,10.789999961853,0.0094451904296875,-0.967056274414062,0.255859375,-0.0276870216407908,0.028903020994521,0.0156351524437462
1492617233.7,40.4759055502624,-79.9243702239821,10.789999961853,0.04022216796875,-0.947052001953125,0.0792388916015625,0.0242065364121662,-0.0182389250415167,0.010957043672913
1492617233.9,40.4759055502624,-79.9243702239821,10.789999961853,0.139755249023438,-0.96295166015625,0.0498809814453125,-0.108668690384029,0.0634599329832801,-0.039660061269569
1492617234.1,40.4759055502624,-79.9243702239821,10.789999961853,0.0009613037109375,-0.940399169921875,0.0426483154296875,0.0666685094646076,0.00487784585258913,-0.0441110023994185
1492617234.3,40.4758141787001,-79.924410535841,10.8199996948242,0.160491943359375,-0.922698974609375,0.088592529296875,-0.0287336439491919,-0.05192764651491,0.0478194542173538
1492617234.5,40.4758141787001,-79.924410535841,10.8199996948242,0.096435546875,-0.984344482421875,-0.0011138916015625,-0.0251498280702723,-0.135984201052754,0.0512717099384235
1492617234.7,40.4758141787001,-79.924410535841,10.8199996948242,0.113494873046875,-1.04696655273438,0.0139007568359375,0.0764830570298766,-0.07814114112456,0.0489643471699789
1492617234.9,40.4758141787001,-79.924410535841,10.8199996948242,0.0999298095703125,-0.987197875976562,-0.004852294921875,0.0240195825036427,-0.0873708585144476,0.0644442373221734
1492617235.1,40.4758141787001,-79.924410535841,10.8199996948242,0.0977935791015625,-0.988479614257812,-0.0860443115234375,-0.0558994849646542,0.0418459838923061,-0.0166735189527681
1492617235.3,40.475727471031,-79.9244487900554,9.53999996185303,0.148193359375,-1.0113525390625,-0.0291748046875,-0.0377066326099959,0.100223806567388,-0.0688823952787905
1492617235.5,40.475727471031,-79.9244487900554,9.53999996185303,0.09014892578125,-0.953369140625,-0.072021484375,-0.0421977874723055,0.0289927695232566,-0.0133014243805098
1492617235.7,40.475727471031,-79.9244487900554,9.53999996185303,0.143798828125,-0.9571533203125,-0.042877197265625,-0.0608819930480834,-0.0421418610894139,0.067723121256279
1492617235.9,40.475727471031,-79.9244487900554,9.53999996185303,0.0929718017578125,-1.02143859863281,-0.0668487548828125,0.0207614712260397,-0.107561348002774,0.0580657001953247
1492617236.1,40.475727471031,-79.9244487900554,9.53999996185303,0.0270233154296875,-1.01132202148438,-0.079498291015625,0.00930428590040983,-0.0351630474528612,0.00125221834455526
1492617236.3,40.4756561649491,-79.9244802493042,7.59000015258789,0.104232788085938,-1.01742553710938,-0.04931640625,-0.0135624141673375,-0.0616037097034949,0.0234768302734845
1492617236.5,40.4756561649491,-79.9244802493042,7.59000015258789,0.0748138427734375,-1.04179382324219,-0.062744140625,0.088192976342955,0.0398534067647088,0.0359851652813687
1492617236.7,40.4756561649491,-79.9244802493042,7.59000015258789,0.020751953125,-0.898788452148438,-0.0191192626953125,-0.0441022139678212,0.0609168804583635,-0.0123370937497921
1492617236.9,40.4756561649491,-79.9244802493042,7.59000015258789,0.1278076171875,-1.0657958984375,-0.014984130859375,-0.0534243430475346,-0.00709705798895216,0.00906726456339278
1492617237.1,40.4756561649491,-79.9244802493042,7.59000015258789,0.115020751953125,-1.05674743652344,-0.06622314453125,-0.0374853239234103,0.0119482722306405,0.0219758726831159
1492617237.3,40.4756063665905,-79.9245022196455,5.28999996185303,0.022918701171875,-1.01870727539062,-0.102951049804688,-0.0633278401932122,-0.0283051413297982,0.0207489543689164
1492617237.5,40.4756063665905,-79.9245022196455,5.28999996185303,0.075439453125,-1.02272033691406,-0.0544281005859375,-0.0268420006269086,-0.0413114874615272,-0.00656549103537235
1492617237.7,40.4756063665905,-79.9245022196455,5.28999996185303,0.079071044921875,-1.02580261230469,-0.072174072265625,-0.0212946360762736,-0.0115634454531241,-0.00658546474354794
1492617237.9,40.4756063665905,-79.9245022196455,5.28999996185303,0.0741119384765625,-1.03330993652344,-0.03753662109375,-0.00557000141990073,-0.0074075825720554,0.0138228713219473
1492617238.1,40.4756063665905,-79.9245022196455,5.28999996185303,0.060882568359375,-1.02484130859375,-0.041107177734375,0.0048296426368587,-0.0170466278214882,0.0267487899887559
1492617238.3,40.4755813371772,-79.9245132622735,2.60999989509583,0.024261474609375,-1.00068664550781,-0.027923583984375,-0.018116419631373,-0.013711551188382,-0.00654738153995981
1492617238.5,40.4755813371772,-79.9245132622735,2.60999989509583,0.0853271484375,-1.01429748535156,-0.0352630615234375,-0.0253138787934212,-0.00302961205607414,-0.0194432064864505
1492617238.7,40.4755813371772,-79.9245132622735,2.60999989509583,0.066070556640625,-1.00848388671875,0.0503692626953125,-0.0213558887813454,-0.00411564914860845,0.00192440020369126
1492617238.9,40.4755813371772,-79.9245132622735,2.60999989509583,0.0540008544921875,-0.9898681640625,0.09368896484375,-0.0149262189615671,-0.00841319219966932,-0.00332975031092607
1492617239.1,40.4755813371772,-79.9245132622735,2.60999989509583,0.0687103271484375,-0.984512329101562,0.127059936523438,-0.0170929668244556,-0.00946247766916054,-0.0012167983020572
1492617239.3,40.4755701169893,-79.924518212464,0.529999971389771,0.06524658203125,-0.9820556640625,0.156707763671875,-0.01596431915448,-0.000960069572973565,-0.00122718463030851
1492617239.5,40.4755701169893,-79.924518212464,0.529999971389771,0.0460968017578125,-0.972610473632812,0.234909057617188,0.00190708965660574,-0.0159669823155701,0.00752422902780087
1492617239.7,40.4755701169893,-79.924518212464,0.529999971389771,0.069000244140625,-0.951416015625,0.24786376953125,-0.0159137190937685,-0.00202480137678724,-0.00548877500665331
1492617239.9,40.4755701169893,-79.924518212464,0.529999971389771,0.0681915283203125,-0.95965576171875,0.246612548828125,-0.0129458923749842,-0.0126795762659763,0.00523124732924265
1492617240.1,40.4755701169893,-79.924518212464,0.529999971389771,0.067779541015625,-0.95672607421875,0.2232666015625,-0.017007745669573,-0.00201734452573502,-0.0033675671984052
1492617240.3,40.4755662534088,-79.9245199170218,0.330000013113022,0.0672149658203125,-0.952377319335938,0.24188232421875,-0.0161307667226099,-0.00946753767523169,0.00625656434892315
1492617240.5,40.4755662534088,-79.9245199170218,0.330000013113022,0.0583953857421875,-0.961700439453125,0.216506958007812,-0.0193795569363976,-0.0147648313995083,0.00730318665732429
1492617240.7,40.4755662534088,-79.9245199170218,0.330000013113022,0.0656280517578125,-0.967483520507812,0.212860107421875,-0.0298670853091296,-0.00512418825342146,0.000773648296668019
1492617240.9,40.4755662534088,-79.9245199170218,0.330000013113022,0.057647705078125,-0.936508178710938,0.30615234375,-0.00219337947378926,-0.00849548387735277,-5.32632218015848e-07
1492617241.1,40.4755662534088,-79.9245199170218,0.330000013113022,0.04791259765625,-0.94061279296875,0.33636474609375,-0.0212347149517468,0.00226501850711239,-0.00342189568464281
1492617241.3,40.4755602354945,-79.9245225720417,0.879999995231628,0.071929931640625,-0.935806274414062,0.36383056640625,-0.00519582728674459,0.00535135589440522,-0.00646429091394933
1492617241.5,40.4755602354945,-79.9245225720417,0.879999995231628,0.05572509765625,-0.914642333984375,0.382354736328125,-0.0194168411916587,-0.00412603547685976,0.0158050621212933
1492617241.7,40.4755602354945,-79.9245225720417,0.879999995231628,0.0396270751953125,-0.904449462890625,0.379470825195312,-0.00415506393274163,0.00215343205743807,-0.00644538247020977
1492617241.9,40.4755602354945,-79.9245225720417,0.879999995231628,0.08087158203125,-0.932479858398438,0.394363403320312,-0.00649758042757533,-0.0105945874485532,0.00209324461680228
1492617242.1,40.4755602354945,-79.9245225720417,0.879999995231628,0.0312042236328125,-0.8662109375,0.478118896484375,-0.036634976587348,-0.0146500491565259,0.0231194340551959
1492617242.3,40.4755423719089,-79.9245304532065,2.5,0.144012451171875,-0.890625,0.45819091796875,0.0456910558741625,-0.0938990652945588,0.0337627573516976
1492617242.5,40.4755423719089,-79.9245304532065,2.5,0.101272583007812,-0.913238525390625,0.375137329101562,-0.0226483208583609,-0.016870326557325,0.0115400096355314
1492617242.7,40.4755423719089,-79.9245304532065,2.5,0.0650482177734375,-0.908432006835938,0.4014892578125,0.0280239115186858,0.0296005028840127,-0.00831918261318952
1492617242.9,40.4755423719089,-79.9245304532065,2.5,0.006103515625,-0.929367065429688,0.407745361328125,-0.00578704904874218,-0.00314838904069168,0.0319352962116852
1492617243.1,40.4755423719089,-79.9245304532065,2.5,0.0902099609375,-0.929763793945312,0.405715942382812,-0.0586534598479051,0.0152758920126945,0.0142870602999481
1492617243.3,40.4755030155843,-79.924547816668,4.6100001335144,0.0042877197265625,-0.888442993164062,0.383621215820312,-0.0156412777142534,-0.0392507334100238,0.031927573044524
1492617243.5,40.4755030155843,-79.924547816668,4.6100001335144,0.0164337158203125,-0.964935302734375,0.378311157226562,-0.03253264324419,0.055524245567062,-0.00474122568866807
1492617243.7,40.4755030155843,-79.924547816668,4.6100001335144,0.0623931884765625,-0.947799682617188,0.346237182617188,0.0657324083414448,-0.0280833000109946,0.0060765346592338
1492617243.9,40.4755030155843,-79.924547816668,4.6100001335144,0.02691650390625,-0.898208618164062,0.3773193359375,-0.00308367422620275,-0.010619354846691,-0.0138649492671705
1492617244.1,40.4755030155843,-79.924547816668,4.6100001335144,-0.0395965576171875,-0.958450317382812,0.373001098632812,-0.0136383142584048,-0.0541556470828703,0.0330527586050824
1492617244.3,40.4754499260392,-79.9245712390348,6.94000005722046,0.0605010986328125,-0.930404663085938,0.354324340820312,0.0153469984137996,0.0137246006777234,-0.024401213487851
1492617244.5,40.4754499260392,-79.9245712390348,6.94000005722046,-0.0322723388671875,-1.03553771972656,0.3494873046875,0.0593181848559889,-0.0854746878183112,0.0541386028518938
1492617244.7,40.4754499260392,-79.9245712390348,6.94000005722046,0.03955078125,-0.903121948242188,0.326690673828125,0.0286910333717507,0.0423541150282932,-0.0499276125362605
1492617244.9,40.4754499260392,-79.9245712390348,6.94000005722046,-0.106414794921875,-1.03485107421875,0.387786865234375,0.0406251908486137,-0.131090109917515,0.0721905739848869
1492617245.1,40.4754499260392,-79.9245712390348,6.94000005722046,-0.0989990234375,-0.8826904296875,0.3603515625,-0.0447211326051556,-0.15287316973771,0.0713729835302326
1492617245.3,40.4754546671256,-79.9245691473337,8.47999954223633,-0.115447998046875,-1.02128601074219,0.368637084960938,0.00488210691033326,0.0478325037066952,-0.0192653073256332
1492617245.5,40.4754546671256,-79.9245691473337,8.47999954223633,0.0443267822265625,-0.94171142578125,0.33740234375,0.0322956219071729,-0.0363713236394302,0.0324109367823733
1492617245.7,40.4754546671256,-79.9245691473337,8.47999954223633,0.00445556640625,-0.928237915039062,0.3277587890625,-0.0455842631144503,-0.0486287888726289,0.0359100641386284
1492617245.9,40.4754546671256,-79.9245691473337,8.47999954223633,-0.006134033203125,-0.99896240234375,0.345565795898438,-0.0786005364125986,0.0621975946265826,-0.0585408081337948
1492617246.1,40.4754546671256,-79.9245691473337,8.47999954223633,-0.0497283935546875,-0.911590576171875,0.230255126953125,0.0826626560232965,0.104759436219902,-0.0687279319355659
1492617246.3,40.4753030661827,-79.9246362341371,9.78999996185303,0.116256713867188,-0.962860107421875,0.273818969726562,-0.0271503946811398,0.0320846995488386,-0.0216850554920792
1492617246.5,40.4753030661827,-79.9246362341371,9.78999996185303,0.043426513671875,-1.00393676757812,0.308761596679688,0.0401655292444661,0.0210184662712324,0.0334096221911531
1492617246.7,40.4753030661827,-79.9246362341371,9.78999996185303,-0.026458740234375,-0.90850830078125,0.354156494140625,0.0134891772373603,0.0382011816244236,-0.0308806844200138
1492617246.9,40.4753030661827,-79.9246362341371,9.78999996185303,0.0124359130859375,-0.93170166015625,0.349639892578125,0.00236328915133632,-0.0287285839431208,0.0448793243739063
1492617247.1,40.4753030661827,-79.9246362341371,9.78999996185303,0.0450286865234375,-0.910003662109375,0.2833251953125,-0.0554400896766155,0.050348125672384,-0.0454785356191741
1492617247.3,40.4752037252738,-79.9246801993271,10.9899997711182,-0.0278778076171875,-0.970062255859375,0.229736328125,0.0309576497755171,0.0391463374952927,-0.0616244823599975
1492617247.5,40.4752037252738,-79.9246801993271,10.9899997711182,-0.03399658203125,-0.970245361328125,0.281356811523438,-0.0594686534575784,0.0439887633053838,-0.0657614367973266
1492617247.7,40.4752037252738,-79.9246801993271,10.9899997711182,0.0516815185546875,-1.00086975097656,0.22015380859375,0.0955635409758583,-0.0101927164400603,0.0148654988887133
1492617247.9,40.4752037252738,-79.9246801993271,10.9899997711182,-0.0059051513671875,-0.92681884765625,0.271408081054688,0.011997807026916,-0.0628338238110025,0.0226754851014797
1492617248.1,40.4752037252738,-79.9246801993271,10.9899997711182,-0.0178070068359375,-0.973297119140625,0.242477416992188,-0.0269005901708904,-0.029608492367283,0.00406584803622397
1492617248.3,40.4751125843641,-79.9247205354529,11.6300001144409,0.087005615234375,-0.988845825195312,0.255508422851562,0.00013848437668412,-0.0127682595302759,-0.0170250562166586
1492617248.5,40.4751125843641,-79.9247205354529,11.6300001144409,0.0680389404296875,-0.977432250976562,0.246017456054688,-0.0353100539450336,0.0310697688574094,-0.0484213286237117
1492617248.7,40.4751125843641,-79.9247205354529,11.6300001144409,-0.028961181640625,-0.94195556640625,0.28863525390625,-0.0375790671937811,-0.0837806510489118,0.0542083776724539
1492617248.9,40.4751125843641,-79.9247205354529,11.6300001144409,-0.059661865234375,-0.955291748046875,0.271697998046875,0.0303808090834059,-0.123569076683023,0.12431076704661
1492617249.1,40.4751125843641,-79.9247205354529,11.6300001144409,0.04583740234375,-0.986160278320312,0.147125244140625,-0.0314524651060538,-0.0412773989995741,0.0189763543473596
1492617249.3,40.475010728483,-79.9247656136912,12.0200004577637,0.01873779296875,-0.908721923828125,0.23931884765625,-0.0481685946362632,0.0247839097364954,0.0314292956045701
1492617249.5,40.475010728483,-79.9247656136912,12.0200004577637,-0.01080322265625,-0.868667602539062,0.237411499023438,-0.106036954594813,-0.0322812408372865,0.026719228900656
1492617249.7,40.475010728483,-79.9247656136912,12.0200004577637,-0.033599853515625,-0.956512451171875,0.182815551757812,-0.03414864939365,-0.0178618214311615,-0.00456838653392193
1492617249.9,40.475010728483,-79.9247656136912,12.0200004577637,-0.0016632080078125,-1.04066467285156,0.173965454101562,-0.0731841993875955,0.0302593689376983,-0.00509223032034051
1492617250.1,40.475010728483,-79.9247656136912,12.0200004577637,0.065277099609375,-1.0093994140625,0.177093505859375,-0.0223934563420403,0.0554518075854119,-0.0451533636500755
1492617250.3,40.4749065714803,-79.9248117103341,11.9300003051758,0.0138397216796875,-0.93096923828125,0.104904174804688,-0.0815529167970605,-0.000538491172414022,-0.0328199983258095
1492617250.5,40.4749065714803,-79.9248117103341,11.9300003051758,0.050048828125,-0.954086303710938,0.19451904296875,-0.00697428626269951,-0.0584574511916753,0.0107415939407256
1492617250.7,40.4749065714803,-79.9248117103341,11.9300003051758,-0.010345458984375,-0.974044799804688,0.216934204101562,-0.0326050812258401,-0.0529708067138941,0.0189947301588812
1492617250.9,40.4749065714803,-79.9248117103341,11.9300003051758,0.020904541015625,-1.00325012207031,0.115875244140625,-0.0421751506030399,0.00665231008690893,-0.0271043219942814
1492617251.1,40.4749065714803,-79.9248117103341,11.9300003051758,0.054901123046875,-0.895233154296875,0.167709350585938,-0.0209795841193172,-0.00411005651031929,0.0520402982290204
1492617251.3,40.4748069819494,-79.9248557855564,11.6700000762939,0.12451171875,-0.945648193359375,0.129104614257812,-0.0142127581055349,-0.110514793651672,0.1216880860051
1492617251.5,40.4748069819494,-79.9248557855564,11.6700000762939,0.0284271240234375,-1.00984191894531,0.216323852539062,-0.0277096585100565,0.0161376909414442,0.0103367934550336
1492617251.7,40.4748069819494,-79.9248557855564,11.6700000762939,0.0472259521484375,-1.00648498535156,0.190567016601562,0.0652517077646855,-0.0589251022790932,0.0242768438649443
1492617251.9,40.4748069819494,-79.9248557855564,11.6700000762939,0.0257415771484375,-0.954483032226562,0.219818115234375,0.00328740604959381,0.0201899568561087,0.00424641035813135
1492617252.1,40.4748069819494,-79.9248557855564,11.6700000762939,-0.004180908203125,-0.962310791015625,0.16131591796875,-0.0263399947614287,-0.0115338843650242,-0.0268952638487102
1492617252.3,40.4747086546072,-79.9248993021733,11.5500001907349,0.0361175537109375,-0.954986572265625,0.196548461914062,-0.0129173965513203,0.037306625814266,-0.0471419460360376
1492617252.5,40.4747086546072,-79.9248993021733,11.5500001907349,0.022613525390625,-1.028076171875,0.190216064453125,-0.0121261713914578,-0.0297030345859808,0.013813283942023
1492617252.7,40.4747086546072,-79.9248993021733,11.5500001907349,0.0205535888671875,-0.9698486328125,0.214797973632812,-0.049810699764406,-0.0156359513920732,-0.0260587649503163
1492617252.9,40.4747086546072,-79.9248993021733,11.5500001907349,0.100967407226562,-0.941665649414062,0.168624877929688,-0.030887874954957,0.0299877265065102,0.0166657957856069
1492617253.1,40.4747086546072,-79.9248993021733,11.5500001907349,0.112457275390625,-0.97735595703125,0.1986083984375,-0.050548661702467,0.113073825143129,-0.0573186835095574
1492617253.3,40.4746128317741,-79.9249417103726,11.3000001907349,-0.0177154541015625,-0.98297119140625,0.133255004882812,-0.0320423552875064,-0.0710534041994231,0.0457025074668498
1492617253.5,40.4746128317741,-79.9249417103726,11.3000001907349,-0.0813751220703125,-1.00526428222656,0.217742919921875,0.0426593132892163,-0.0566478332309665,0.0421652969070066
1492617253.7,40.4746128317741,-79.9249417103726,11.3000001907349,0.0418701171875,-0.960479736328125,0.190902709960938,-0.0461722890831398,-0.0358647904000971,0.00814953925175148
1492617253.9,40.4746128317741,-79.9249417103726,11.3000001907349,0.0630035400390625,-0.967025756835938,0.213836669921875,-0.0508735673554567,0.050314836158758,-0.0678221908488299
1492617254.1,40.4746128317741,-79.9249417103726,11.3000001907349,0.136398315429688,-0.932418823242188,0.165557861328125,-0.0303424595637088,-0.00405173328244655,0.0359510768194157
1492617254.3,40.4745171484037,-79.92498405685,11.289999961853,0.053741455078125,-0.942779541015625,0.171035766601562,-0.0355697121513163,0.0374573607319645,-0.0260499765187191
1492617254.5,40.4745171484037,-79.92498405685,11.289999961853,-0.0019989013671875,-0.998489379882812,0.16473388671875,-0.0159842928626556,-0.0211721306661299,-0.0107711550288255
1492617254.7,40.4745171484037,-79.92498405685,11.289999961853,-0.05816650390625,-0.962112426757812,0.12493896484375,-0.0195167097325367,-0.0349747619637926,0.00628772333367708
1492617254.9,40.4745171484037,-79.92498405685,11.289999961853,0.0201568603515625,-0.946624755859375,0.225540161132812,0.00879082844224256,0.0148330083234143,-0.0116766297994524
1492617255.1,40.4745171484037,-79.92498405685,11.289999961853,0.053558349609375,-0.960678100585938,0.152267456054688,-0.0517782431777566,-0.0422079074844478,0.0251679375656848
1492617255.3,40.474422000204,-79.9250261664775,11.1499996185303,0.113510131835938,-0.883956909179688,0.189376831054688,-0.0340194860807812,0.0246883022533616,0.00918391101913825
1492617255.5,40.474422000204,-79.9250261664775,11.1499996185303,0.0238189697265625,-1.0052490234375,0.204254150390625,-0.028536037396308,-0.0125826372022974,-0.0226501850711239
1492617255.7,40.474422000204,-79.9250261664775,11.1499996185303,-0.015289306640625,-1.06637573242188,0.175186157226562,-0.0130838441194503,0.0170972278821997,-0.0460252825909674
1492617255.9,40.474422000204,-79.9250261664775,11.1499996185303,-0.0573883056640625,-1.0008544921875,0.248382568359375,0.014518755314785,-0.0458338013085907,0.00346557152652011
1492617256.1,40.474422000204,-79.9250261664775,11.1499996185303,-0.0601043701171875,-1.04263305664062,0.189300537109375,-0.000333427768477921,-0.0925331299714572,0.0514136564245247
1492617256.3,40.4743277731199,-79.925067868448,11.0500001907349,0.176132202148438,-0.894622802734375,0.116775512695312,-0.0565889773708757,0.182244374451866,-0.12259808814958
1492617256.5,40.4743277731199,-79.925067868448,11.0500001907349,0.106597900390625,-0.980484008789062,0.1546630859375,-0.0702544558723993,0.0802301246836181,-0.0361113991170384
1492617256.7,40.4743277731199,-79.925067868448,11.0500001907349,0.03692626953125,-0.964324951171875,0.198501586914062,0.00586108492704639,-3.19579330809509e-05,0.0384437955997298
1492617256.9,40.4743277731199,-79.925067868448,11.0500001907349,-0.0589599609375,-1.01876831054688,0.194168090820312,0.0297546999111283,-0.050179547575382,0.0548110510271388
1492617257.1,40.4743277731199,-79.925067868448,11.0500001907349,-0.0569915771484375,-0.95263671875,0.253875732421875,-0.0473115893974757,-0.0379841339955822,0.0124082001508972
1492617257.3,40.4742343026512,-79.925109235564,10.9200000762939,-0.03057861328125,-0.945953369140625,0.201507568359375,-0.0330458343862482,-0.0667923464552963,0.0435488090933027
1492617257.5,40.4742343026512,-79.925109235564,10.9200000762939,0.050262451171875,-0.923370361328125,0.181167602539062,-0.0169012192259699,0.00436358944609483,-0.00764779970238055
1492617257.7,40.4742343026512,-79.925109235564,10.9200000762939,0.092681884765625,-1.01791381835938,0.126800537109375,-0.0496490458862382,0.0949851023870931,-0.0551303640418393
1492617257.9,40.4742343026512,-79.925109235564,10.9200000762939,0.07818603515625,-0.944488525390625,0.138748168945312,-0.0329188016022514,0.0353188423766309,0.0123663885217829
1492617258.1,40.4742343026512,-79.925109235564,10.9200000762939,-0.0251007080078125,-0.966384887695312,0.206253051757812,-0.0299043695643908,0.00551460766922708,0.00927552376063698
1492617258.3,40.474143617917,-79.9251496095003,10.8199996948242,0.0074615478515625,-1.0364990234375,0.173828125,0.00788721788437867,0.049942792554474,-0.00431298938538333
1492617258.5,40.474143617917,-79.9251496095003,10.8199996948242,-0.0282135009765625,-0.899246215820312,0.1954345703125,-0.0621179661099892,0.0163653912146459,0.0345068445602657
1492617258.7,40.474143617917,-79.9251496095003,10.8199996948242,0.02496337890625,-1.01606750488281,0.131988525390625,-0.0349838167114989,0.0374467080876042,-0.0686925118930678
1492617258.9,40.474143617917,-79.9251496095003,10.8199996948242,-0.064483642578125,-0.959060668945312,0.19879150390625,0.00238246391118489,-0.00533750745673681,-0.0212861139607853
1492617259.1,40.474143617917,-79.9251496095003,10.8199996948242,0.03900146484375,-0.9488525390625,0.205047607421875,-0.0144055709684566,-0.00735884672410695,-0.0406446319245713
1492617259.3,40.4740506858207,-79.9251910219682,10.7700004577637,0.105087280273438,-0.89288330078125,0.2496337890625,-0.0552976105582963,0.043962664326701,-0.059321380649297
1492617259.5,40.4740506858207,-79.9251910219682,10.7700004577637,-0.057281494140625,-0.939468383789062,0.20562744140625,0.0501182948703102,-0.0194754307356405,-0.0154298227237011
1492617259.7,40.4740506858207,-79.9251910219682,10.7700004577637,-0.0933380126953125,-0.799392700195312,0.200637817382812,-0.130669596781392,-0.0512679815128974,0.0265160297094829
1492617259.9,40.4740506858207,-79.9251910219682,10.7700004577637,0.0014495849609375,-1.06974792480469,0.151290893554688,-0.0556358320167364,0.0418411902023439,-0.035862659871225
1492617260.1,40.4740506858207,-79.9251910219682,10.7700004577637,0.0052947998046875,-1.00675964355469,0.23406982421875,7.11064011051157e-05,0.0829635932264755,-0.0375308639780507
1492617260.3,40.4739588473774,-79.9252317639537,10.75,0.04998779296875,-0.947463989257812,0.22149658203125,-0.0471011996713594,0.0173302544775816,0.0271946031552351
1492617260.5,40.4739588473774,-79.9252317639537,10.75,-0.00439453125,-0.968795776367188,0.188079833984375,-0.0548667110939215,0.0141805338563449,-0.0293861184162613
1492617260.7,40.4739588473774,-79.9252317639537,10.75,0.0771636962890625,-0.903396606445312,0.187225341796875,0.0432691771788444,0.00504216289184702,0.0313501997201948
1492617260.9,40.4739588473774,-79.9252317639537,10.75,-0.06280517578125,-0.913314819335938,0.0962982177734375,-0.0769877260564466,0.020704479578712,-0.043490219549321
1492617261.1,40.4739588473774,-79.9252317639537,10.75,-0.0891571044921875,-1.00285339355469,0.235336303710938,0.00455773388956161,0.0956974979786893,-0.0471137165284828
1492617261.3,40.473866465054,-79.9252727269091,10.8400001525879,-0.017669677734375,-1.00942993164062,0.2061767578125,0.0107666276549723,-0.0362285782050019,0.0492495717227263
1492617261.5,40.473866465054,-79.9252727269091,10.8400001525879,0.010009765625,-0.940460205078125,0.205520629882812,-0.0353105865772516,-0.0327464950797233,-0.00560808462348886
1492617261.7,40.473866465054,-79.9252727269091,10.8400001525879,0.0244293212890625,-0.977081298828125,0.198638916015625,-0.0838541542949979,0.0292652109027717,-0.00413269337958496
1492617261.9,40.473866465054,-79.9252727269091,10.8400001525879,0.036102294921875,-0.987747192382812,0.166748046875,-0.00681130080398666,0.0425892721525472,-0.0236363536227803
1492617262.1,40.473866465054,-79.9252727269091,10.8400001525879,0.041717529296875,-0.92877197265625,0.170013427734375,-0.0508895463219971,0.0715913627396191,-0.0550826934583269
1492617262.3,40.4737733160852,-79.9253140298003,10.9700002670288,0.00860595703125,-1.0108642578125,0.173294067382812,0.0112286861041011,-0.0351731674650035,0.016198943646516
1492617262.5,40.4737733160852,-79.9253140298003,10.9700002670288,-0.0229644775390625,-0.9591064453125,0.211380004882812,-0.0597701232929754,-0.00918391101913825,0.00474282358532212
1492617262.7,40.4737733160852,-79.9253140298003,10.9700002670288,0.017791748046875,-0.918869018554688,0.17498779296875,-0.0302385962811957,-0.0253298577599616,0.0168151991227603
1492617262.9,40.4737733160852,-79.9253140298003,10.9700002670288,-0.03228759765625,-0.99884033203125,0.167160034179688,0.013947507260963,-0.0692272746399557,0.0323078724481873
1492617263.1,40.4737733160852,-79.9253140298003,10.9700002670288,-0.0069580078125,-1.03501892089844,0.178665161132812,-0.0557407605636855,-0.0645132131944065,0.068899705825876
1492617263.3,40.473679679177,-79.9253555490472,11.0600004196167,-0.0203399658203125,-0.9305419921875,0.193008422851562,-0.0998104839662077,0.0176668780393677,-0.011729626705145
1492617263.5,40.473679679177,-79.9253555490472,11.0600004196167,0.014007568359375,-0.967529296875,0.198394775390625,-0.0284548109830606,0.0469893469055761,0.00385226251679962
1492617263.7,40.473679679177,-79.9253555490472,11.0600004196167,0.058135986328125,-0.983963012695312,0.2322998046875,-0.0774577739888456,0.0419892619589523,0.00229724275630235
1492617263.9,40.473679679177,-79.9253555490472,11.0600004196167,0.1148681640625,-0.902236938476562,0.240798950195312,-0.0627025299692616,-0.0634098655547867,0.0336405182576629
1492617264.1,40.473679679177,-79.9253555490472,11.0600004196167,-0.087646484375,-1.02287292480469,0.188339233398438,-0.0602915702344129,-0.0538669604207057,-0.059120045670887
1492617264.3,40.4735845873247,-79.9253977134262,11.0699996948242,-0.0909881591796875,-0.95892333984375,0.197647094726562,-0.00142425855097438,-0.0595599998829681,-0.0062581622455772
1492617264.5,40.4735845873247,-79.9253977134262,11.0699996948242,0.006317138671875,-0.9219970703125,0.173675537109375,-0.0718478251525937,0.0313113175682796,-0.0242731154394182
1492617264.7,40.4735845873247,-79.9253977134262,11.0699996948242,0.059112548828125,-1.02593994140625,0.135238647460938,-0.0466316843711785,-0.0326650023503669,0.043321641452319
1492617264.9,40.4735845873247,-79.9253977134262,11.0699996948242,-0.166915893554688,-1.20622253417969,0.203811645507812,0.101757521039165,-0.0751232469772822,-0.0062278022091503
1492617265.1,40.4735845873247,-79.9253977134262,11.0699996948242,0.134353637695312,-0.853378295898438,0.305938720703125,-0.0188450605056187,0.0947856316214462,-0.0494833972664353
1492617265.3,40.4734906571921,-79.9254393626908,10.960000038147,-0.0247955322265625,-1.02542114257812,0.124710083007812,-0.0604939704772589,0.0440074054330144,0.0088630001077837
1492617265.5,40.4734906571921,-79.9254393626908,10.960000038147,0.154891967773438,-1.01924133300781,0.145370483398438,-0.0670935499745843,0.0621251566449324,-0.0434958121876102
1492617265.7,40.4734906571921,-79.9254393626908,10.960000038147,0.13543701171875,-0.985504150390625,0.155609130859375,0.0048027447098489,0.0893101724202433,-0.0684190052491167
1492617265.9,40.4734906571921,-79.9254393626908,10.960000038147,0.173568725585938,-0.942581176757812,0.177413940429688,-0.0105724832115056,-0.12330941847674,0.082308455598316
1492617266.1,40.4734906571921,-79.9254393626908,10.960000038147,0.0123748779296875,-0.942626953125,0.196334838867188,-0.00776790826754312,-0.0626982689115175,0.0661875425717393
1492617266.3,40.4733951352361,-79.9254817177808,11.039999961853,0.0019683837890625,-0.887619018554688,0.197036743164062,0.0558134648614446,0.0592052668257696,0.000418648923360456
1492617266.5,40.4733951352361,-79.9254817177808,11.039999961853,-0.029876708984375,-1.01708984375,0.246734619140625,0.0160972108928749,0.128590200602258,-0.0939938738293656
1492617266.7,40.4733951352361,-79.9254817177808,11.039999961853,0.04718017578125,-0.89642333984375,0.16363525390625,-0.00459262129984165,0.0681052848727054,-0.0162159878774925
1492617266.9,40.4733951352361,-79.9254817177808,11.039999961853,0.0961151123046875,-1.01042175292969,0.151901245117188,-0.0786162490630301,-0.0186269476123412,0.0536200853876554
1492617267.1,40.4733951352361,-79.9254817177808,11.039999961853,-0.0627288818359375,-0.973281860351562,0.198867797851562,-0.0283586708677088,-0.0657515831012933,0.0905075296463429
1492617267.3,40.4733014572705,-79.9255232552328,10.960000038147,0.0101470947265625,-0.968490600585938,0.167724609375,-0.00403788484477814,-0.00955062830124216,-0.021340975079241
1492617267.5,40.4733014572705,-79.9255232552328,10.960000038147,-0.0294647216796875,-1.03091430664062,0.16693115234375,0.0183334672602145,0.00945235765701824,-0.0115650433497781
1492617267.7,40.4733014572705,-79.9255232552328,10.960000038147,0.023529052734375,-1.00550842285156,0.215438842773438,0.0295155480452392,-0.041677139479195,-0.000656469208704532
1492617267.9,40.4733014572705,-79.9255232552328,10.960000038147,0.0333099365234375,-0.912689208984375,0.172592163085938,-0.0489523629450735,0.0173390429091789,0.00691756093148082
1492617268.1,40.4733014572705,-79.9255232552328,10.960000038147,0.0487518310546875,-0.998916625976562,0.135345458984375,-0.0268587785417761,0.00654791417217782,-0.056801231309755
1492617268.3,40.4732708635737,-79.9255368206877,10.9499998092651,0.0671844482421875,-1.00962829589844,0.232315063476562,0.00779933356840606,0.0265405307915117,-0.0106507801475539
1492617268.5,40.4732708635737,-79.9255368206877,10.9499998092651,-0.004241943359375,-1.03352355957031,0.185501098632812,-0.0321816386125175,0.00340351987312127,0.018853582621107
1492617268.7,40.4732708635737,-79.9255368206877,10.9499998092651,0.031768798828125,-1.03153991699219,0.206329345703125,0.0251807207389172,0.000904409506190909,0.0279770398835004
1492617268.9,40.4732708635737,-79.9255368206877,10.9499998092651,0.0012359619140625,-0.970596313476562,0.193069458007812,0.0295469733461021,-0.0544310179395845,0.0676144642838038
1492617269.1,40.4732708635737,-79.9255368206877,10.9499998092651,0.0607757568359375,-0.933197021484375,0.156814575195312,-0.0458154254970692,-0.00395692474763973,-0.000458862655820653
1492617269.3,40.4731126850576,-79.9256076542037,10.8400001525879,0.0208740234375,-0.986984252929688,0.165756225585938,0.00649092252485013,-4.34095257682916e-05,-0.00739692992769508
1492617269.5,40.4731126850576,-79.9256076542037,10.8400001525879,0.011260986328125,-0.921432495117188,0.191665649414062,-0.0522144689643116,-0.00923424476374075,-0.00264318738190364
1492617269.7,40.4731126850576,-79.9256076542037,10.8400001525879,0.024749755859375,-1.0064697265625,0.179351806640625,0.00358434851113765,0.0265674287185215,-0.0138926461425074
1492617269.9,40.4731126850576,-79.9256076542037,10.8400001525879,0.0648040771484375,-0.980255126953125,0.14910888671875,-0.01152962330728,0.0107109675881897,-0.0076091838665744
1492617270.1,40.4731126850576,-79.9256076542037,10.8400001525879,0.0114288330078125,-0.93975830078125,0.144668579101562,-0.0741064520730899,0.000476972151233192,-0.0316801653792556
1492617270.3,40.4730207030707,-79.9256483334693,10.7399997711182,-0.0514068603515625,-0.975051879882812,0.23272705078125,-0.0195513308267077,-0.0200807672514155,0.0169110729220032
1492617270.5,40.4730207030707,-79.9256483334693,10.7399997711182,-0.04876708984375,-1.00628662109375,0.190658569335938,-0.0876142714380808,-0.0441067413416743,-0.00291562876141875
1492617270.7,40.4730207030707,-79.9256483334693,10.7399997711182,-0.0636749267578125,-0.984573364257812,0.189559936523438,0.0313861523949108,-0.14379977990381,0.0401423597429824
1492617270.9,40.4730207030707,-79.9256483334693,10.7399997711182,-0.034820556640625,-0.938125610351562,0.211746215820312,0.0168785823567042,0.0062749401604447,0.0150836117819908
1492617271.1,40.4730207030707,-79.9256483334693,10.7399997711182,0.0127410888671875,-0.948638916015625,0.192977905273438,-0.0667340232274236,0.0982882210871184,-0.0499827399708252
1492617271.3,40.4729292712861,-79.9256887694066,10.7799997329712,0.129058837890625,-0.998672485351562,0.183395385742188,-0.0144167562450349,-0.00628239701149692,0.0382523143173531
1492617271.5,40.4729292712861,-79.9256887694066,10.7799997329712,0.112045288085938,-0.986495971679688,0.174270629882812,-0.0378136916858171,0.0534304683180417,-0.00905474770626941
1492617271.7,40.4729292712861,-79.9256887694066,10.7799997329712,0.0321807861328125,-0.934158325195312,0.218368530273438,0.0406949656691738,-0.0385521862560961,0.0399660584788191
1492617271.9,40.4729292712861,-79.9256887694066,10.7799997329712,0.0360565185546875,-0.933090209960938,0.199188232421875,-0.0408872458998775,-0.0156862851366757,0.0220123579900499
1492617272.1,40.4729292712861,-79.9256887694066,10.7799997329712,0.04974365234375,-0.969070434570312,0.185089111328125,-0.0230858782254609,0.025677666598326,-0.0109647668400742
1492617272.3,40.4728367542718,-79.9257296852894,10.8400001525879,0.0496063232421875,-0.97613525390625,0.168655395507812,-0.0221796045065069,0.0416308004762277,0.00926140900685956
1492617272.5,40.4728367542718,-79.9257296852894,10.8400001525879,0.0089569091796875,-0.985183715820312,0.205398559570312,-0.0307214273868271,0.00338940511934385,-0.00991920979610913
1492617272.7,40.4728367542718,-79.9257296852894,10.8400001525879,0.075408935546875,-0.999435424804688,0.2037353515625,0.138126980465832,-0.044498758654134,0.0761640103312851
1492617272.9,40.4728367542718,-79.9257296852894,10.8400001525879,0.050811767578125,-1.00912475585938,0.17828369140625,-0.0124193854274755,-0.219018900680335,0.164635020692044
1492617273.1,40.4728367542718,-79.9257296852894,10.8400001525879,-0.0750885009765625,-0.99285888671875,0.19580078125,0.0205193898829515,0.104104298591742,-0.04164092048837
1492617273.3,40.4727414447238,-79.9257725916735,10.9799995422363,-0.0818023681640625,-1.02397155761719,0.202377319335938,-0.0103394566161236,-0.11373934909954,0.0705577899205593
1492617273.5,40.4727414447238,-79.9257725916735,10.9799995422363,-0.0652923583984375,-0.976654052734375,0.1934814453125,0.0349483966690008,-0.00767176815219126,0.00997353828234675
1492617273.7,40.4727414447238,-79.9257725916735,10.9799995422363,-0.109390258789062,-0.968887329101562,0.212844848632812,0.0128116690560442,-0.152183943647597,0.0698278174657686
1492617273.9,40.4727414447238,-79.9257725916735,10.9799995422363,0.0051727294921875,-1.00265502929688,0.163833618164062,0.0176796612126,-0.0171310500280437,0.0215495005925942
1492617274.1,40.4727414447238,-79.9257725916735,10.9799995422363,0.005096435546875,-0.991241455078125,0.196685791015625,-0.0570046968170371,-0.0155797586930726,0.0325092074265973
1492617274.3,40.4726499492375,-79.9258138696889,11.039999961853,-0.00469970703125,-0.918502807617188,0.189605712890625,-0.0491014999661179,-0.010317352379076,0.00272254958238801
1492617274.5,40.4726499492375,-79.9258138696889,11.039999961853,0.0673065185546875,-0.970703125,0.150650024414062,-0.0804775323488865,0.0398792394272825,-0.0115890117995888
1492617274.7,40.4726499492375,-79.9258138696889,11.039999961853,0.0907135009765625,-0.990676879882812,0.174468994140625,0.000671915543026992,-0.0542541840432033,-0.000919323208295353
1492617274.9,40.4726499492375,-79.9258138696889,11.039999961853,0.058502197265625,-0.948654174804688,0.185104370117188,0.0387671033560655,0.0188913995085861,-0.0209761220099001
1492617275.1,40.4726499492375,-79.9258138696889,11.039999961853,0.0026092529296875,-0.94879150390625,0.18560791015625,-0.0228075778915476,0.0022687469326385,-0.0439541422112128
1492617275.3,40.4725558600769,-79.9258563178356,11.0299997329712,3.0517578125e-05,-0.93817138671875,0.20623779296875,-0.0988722523141728,0.0144708184151636,-0.0042482745708944
1492617275.5,40.4725558600769,-79.9258563178356,11.0299997329712,-0.0037994384765625,-0.947433471679688,0.193389892578125,-0.0518064726853114,0.0503193635326112,-0.0774276802685277
1492617275.7,40.4725558600769,-79.9258563178356,11.0299997329712,-0.0162811279296875,-0.920074462890625,0.175857543945312,-0.0166269136336917,-0.0254281284041856,-0.0438193862600548
1492617275.9,40.4725558600769,-79.9258563178356,11.0299997329712,0.055999755859375,-0.953216552734375,0.15606689453125,0.0108931278067511,-0.0447413726294402,0.0354120530147836
1492617276.1,40.4725558600769,-79.9258563178356,11.0299997329712,0.0139923095703125,-0.951492309570312,0.182296752929688,-0.0470026627110265,-0.0241601974091988,-0.00255130832429591
1492617276.3,40.4724841840159,-79.9258886543548,10.9200000762939,0.0153961181640625,-0.984420776367188,0.181381225585938,0.00770159555640015,-0.0287634713534008,0.0438678557918942
1492617276.5,40.4724841840159,-79.9258886543548,10.9200000762939,0.021209716796875,-1.07011413574219,0.1566162109375,0.106608468964744,-0.023022494991517,0.0565940373769469
1492617276.7,40.4724841840159,-79.9258886543548,10.9200000762939,-0.0153961181640625,-1.00149536132812,0.140899658203125,-0.00488397112309632,-0.102074437208884,0.0673848997978389
1492617276.9,40.4724841840159,-79.9258886543548,10.9200000762939,0.036651611328125,-0.923904418945312,0.161529541015625,-0.00227593746758172,-0.0116854182310497,0.0042717103884871
1492617277.1,40.4724841840159,-79.9258886543548,10.9200000762939,0.0174713134765625,-1.04330444335938,0.199493408203125,-0.050784617775048,-0.113476495099949,0.0690768060383663
1492617277.3,40.4723704002392,-79.9259399952018,10.8999996185303,-0.106948852539062,-1.03781127929688,0.246261596679688,-0.00308900054838291,-0.0191297524261482,-0.0181078975158848
1492617277.5,40.4723704002392,-79.9259399952018,10.8999996185303,-0.003204345703125,-1.01103210449219,0.25872802734375,0.0243649944970259,-0.0224970533084444,-0.00289112767939002
1492617277.7,40.4723704002392,-79.9259399952018,10.8999996185303,0.332382202148438,-0.8499755859375,0.226959228515625,-0.116256036329665,0.260278722816714,-0.155396781186669
1492617277.9,40.4723704002392,-79.9259399952018,10.8999996185303,0.145660400390625,-0.998382568359375,0.243362426757812,-0.0655609007672437,0.158904164342303,-0.102371645986537
1492617278.1,40.4723704002392,-79.9259399952018,10.8999996185303,0.251113891601562,-1.01026916503906,0.150054931640625,-0.0345803478063519,0.108714763070888,-0.0592763732268747
1492617278.3,40.4722791211546,-79.9259811817591,10.8000001907349,0.0044097900390625,-1.05191040039062,0.204742431640625,-0.0117583888449179,-0.153087021573243,0.0749096614578578
1492617278.5,40.4722791211546,-79.9259811817591,10.8000001907349,0.025543212890625,-0.918441772460938,0.199951171875,-0.0650596938500907,-0.0761576187446689,0.0432452087290337
1492617278.7,40.4722791211546,-79.9259811817591,10.8000001907349,0.0484466552734375,-0.9959716796875,0.122100830078125,-0.0199888881938077,0.0458710855638518,0.00714046751472045
1492617278.9,40.4722791211546,-79.9259811817591,10.8000001907349,0.011505126953125,-0.958419799804688,0.154388427734375,0.00112465292834046,0.00211960991159407,-0.00319259751478699
1492617279.1,40.4722791211546,-79.9259811817591,10.8000001907349,-0.000244140625,-0.973052978515625,0.212203979492188,-0.0550797639811278,-0.010283263917123,-0.0271927389424721
1492617279.3,40.4721861679026,-79.9260231237271,10.8599996566772,0.0538787841796875,-0.978530883789062,0.1885986328125,-0.05592478499501,0.0131235252196925,-0.0304604375999993
1492617279.5,40.4721861679026,-79.9260231237271,10.8599996566772,0.111968994140625,-1.06126403808594,0.192642211914062,0.00947579347461094,0.107359746708255,-0.0886758074485864
1492617279.7,40.4721861679026,-79.9260231237271,10.8599996566772,0.104278564453125,-0.995590209960938,0.128982543945312,0.0436145891722277,0.0699159680978502,-0.0359851652813687
1492617279.9,40.4721861679026,-79.9260231237271,10.8599996566772,-0.07098388671875,-0.865341186523438,0.271255493164062,-0.040568199201286,-0.0837636068179353,0.0392507334100238
1492617280.1,40.4721861679026,-79.9260231237271,10.8599996566772,-0.063323974609375,-0.931427001953125,0.113327026367188,-0.0313438081335786,-0.117861389834765,0.0468966688996413
1492617280.3,40.4720944915189,-79.9260644895521,10.8000001907349,-0.09881591796875,-0.984268188476562,0.166412353515625,0.139920885776109,-0.171100110554321,0.031728102278877
1492617280.5,40.4720944915189,-79.9260644895521,10.8000001907349,0.0076446533203125,-1.07093811035156,0.252639770507812,0.0209537514567434,-0.0299190169503862,0.00882145479477847
1492617280.7,40.4720944915189,-79.9260644895521,10.8000001907349,-0.058013916015625,-1.04048156738281,0.210052490234375,-0.0299419201357609,0.141658332071277,-0.0689098258380183
1492617280.9,40.4720944915189,-79.9260644895521,10.8000001907349,0.068603515625,-1.0120849609375,0.182205200195312,-0.0198184458840427,0.0490594220208947,-0.00352815581213697
1492617281.1,40.4720944915189,-79.9260644895521,10.8000001907349,0.0725555419921875,-0.983047485351562,0.162109375,-0.0379340665670887,-0.0497446533693721,0.0210642726419817
1492617281.3,40.4719995403021,-79.9261074029964,10.8699998855591,0.019256591796875,-1.00332641601562,0.19329833984375,-0.0297424493701139,-0.0561769863502405,0.0414228075950925
1492617281.5,40.4719995403021,-79.9261074029964,10.8699998855591,-0.0697784423828125,-1.00169372558594,0.22918701171875,-0.0632087968924857,0.0259346616435186,-0.0358991451781591
1492617281.7,40.4719995403021,-79.9261074029964,10.8699998855591,0.05987548828125,-0.979324340820312,0.158432006835938,-0.0604047545807413,0.0227295472716083,-0.00920681420451294
1492617281.9,40.4719995403021,-79.9261074029964,10.8699998855591,0.122833251953125,-0.89154052734375,0.222549438476562,-0.0287930324415007,-0.0136417763678219,-0.00452444437593562
1492617282.1,40.4719995403021,-79.9261074029964,10.8699998855591,-0.0431976318359375,-0.932174682617188,0.204421997070312,-0.00822357513005568,0.013879596653166,-0.013980796774589
1492617282.3,40.4719069948824,-79.9261483017925,10.8800001144409,-0.0151519775390625,-0.951171875,0.19903564453125,0.0187435940680867,0.0445506902953905,-0.0223135615093379
1492617282.5,40.4719069948824,-79.9261483017925,10.8800001144409,0.06524658203125,-0.9183349609375,0.232620239257812,-0.0429429399453097,0.0364405658277722,-0.0325201263870666
1492617282.7,40.4719069948824,-79.9261483017925,10.8800001144409,0.0464630126953125,-0.979507446289062,0.154998779296875,-0.0788846957009101,0.00157792294587195,0.00665177745469091
1492617282.9,40.4719069948824,-79.9261483017925,10.8800001144409,-0.01080322265625,-0.98748779296875,0.231658935546875,0.0191404050705085,0.0583730289851198,-0.0436694502906833
1492617283.1,40.4719069948824,-79.9261483017925,10.8800001144409,-0.06243896484375,-0.976898193359375,0.239532470703125,-0.0541255533625524,0.0120518691970446,-0.00698254206207875
1492617283.3,40.471809767151,-79.9261912698527,11.1300001144409,0.047332763671875,-1.09130859375,0.178573608398438,0.043019372668595,0.0199276354887359,-0.0198690459447542
1492617283.5,40.471809767151,-79.9261912698527,11.1300001144409,0.0733795166015625,-1.00886535644531,0.139251708984375,-0.0199681155373051,-0.0541151670343011,0.0287229913048316
1492617283.7,40.471809767151,-79.9261912698527,11.1300001144409,-0.0564422607421875,-0.937423706054688,0.227432250976562,-0.00850134283175094,0.019191271447329,-0.0683742641428034
1492617283.9,40.471809767151,-79.9261912698527,11.1300001144409,0.144485473632812,-0.944168090820312,0.240280151367188,-0.0368522905322985,0.103412143024431,-0.0518224516518519
1492617284.1,40.471809767151,-79.9261912698527,11.1300001144409,0.05108642578125,-0.955947875976562,0.185028076171875,0.0193521263771698,0.0339015080444907,-0.0723919089632969
1492617284.3,40.4717117704501,-79.9262345777453,11.0699996948242,0.0770721435546875,-1.01710510253906,0.131561279296875,-0.0120191123156366,-0.00631355599625085,-0.058748534698821
1492617284.5,40.4717117704501,-79.9262345777453,11.0699996948242,0.008514404296875,-0.867935180664062,0.22003173828125,-0.00550262344432172,-0.0914375054989986,0.0406957646175008
1492617284.7,40.4717117704501,-79.9262345777453,11.0699996948242,0.05743408203125,-1.13980102539062,0.127853393554688,0.0377822663849542,0.0178330592913886,-0.0273807581154317
1492617284.9,40.4717117704501,-79.9262345777453,11.0699996948242,0.004486083984375,-1.06356811523438,0.234466552734375,0.140152580790946,-0.0466383422739036,0.0825875548805563
1492617285.1,40.4717117704501,-79.9262345777453,11.0699996948242,-0.033447265625,-0.815185546875,0.193893432617188,-0.318025642629556,-0.124504378857858,0.0589056612031356
1492617285.3,40.4716213364398,-79.9262745434417,10.8999996185303,-0.181259155273438,-1.06002807617188,0.138015747070312,0.00483923001678298,0.128658111210055,-0.127161947309648
1492617285.5,40.4716213364398,-79.9262745434417,10.8999996185303,-0.0307769775390625,-0.893783569335938,0.23272705078125,0.0330634112494428,-0.0544576495504853,0.0441938267093199
1492617285.7,40.4716213364398,-79.9262745434417,10.8999996185303,0.015594482421875,-1.00027465820312,0.166793823242188,-0.0461318090345706,0.0332698062339239,-0.0346770205539218
1492617285.9,40.4716213364398,-79.9262745434417,10.8999996185303,0.0330963134765625,-0.984878540039062,0.16473388671875,-0.00853995866755709,0.0277024679751132,-0.060933125741013
1492617286.1,40.4716213364398,-79.9262745434417,10.8999996185303,0.116104125976562,-0.916107177734375,0.153976440429688,0.0176042937537508,-0.0160783024491354,-0.0498903282809994
1492617286.3,40.4715483436385,-79.9263068013073,10.8199996948242,0.10479736328125,-1.00656127929688,0.187362670898438,-0.0578172272656203,0.0875998903681944,-0.00721530234135168
1492617286.5,40.4715483436385,-79.9263068013073,10.8199996948242,0.250808715820312,-0.922622680664062,0.148361206054688,-0.0442372362350882,-0.0539599047427495,0.0124809044486563
1492617286.7,40.4715483436385,-79.9263068013073,10.8199996948242,0.207794189453125,-0.95343017578125,0.136871337890625,0.0338620932603575,0.11890428371764,-0.0745951421331195
1492617286.9,40.4715483436385,-79.9263068013073,10.8199996948242,0.119003295898438,-1.00059509277344,0.2347412109375,-0.0507681061762895,-0.0241290384244449,0.0389924067842862
1492617287.1,40.4715483436385,-79.9263068013073,10.8199996948242,0.055572509765625,-0.981216430664062,0.289886474609375,-0.0129120702291402,0.0224131637341069,-0.0556331688556463
1492617287.3,40.4714332713429,-79.9263576633938,10.8599996566772,0.0114898681640625,-0.908798217773438,0.2657470703125,-0.0339888597282453,0.0151134391861997,0.00174543577843793
1492617287.5,40.4714332713429,-79.9263576633938,10.8599996566772,0.0191497802734375,-0.951904296875,0.264755249023438,-0.0632447495672017,0.0621049166206478,-0.0136023615836887
1492617287.7,40.4714332713429,-79.9263576633938,10.8599996566772,0.0491485595703125,-0.9864501953125,0.24932861328125,0.00855194289246245,-0.0319579330809509,0.0577455882322971
1492617287.9,40.4714332713429,-79.9263576633938,10.8599996566772,0.065338134765625,-1.00921630859375,0.21014404296875,0.0228227579097611,0.0381433910287689,-0.0126593362416917
1492617288.1,40.4714332713429,-79.9263576633938,10.8599996566772,-0.0062408447265625,-0.934295654296875,0.228240966796875,-0.0387812181098429,0.0449251307446557,-0.020771058605964
1492617288.3,40.4713424461324,-79.9263978082652,10.8100004196167,0.0454254150390625,-1.01805114746094,0.209686279296875,0.0465366095202626,-0.0300857308346252,0.00695138307732483
1492617288.5,40.4713424461324,-79.9263978082652,10.8100004196167,0.027313232421875,-1.04231262207031,0.186355590820312,0.0531007689750899,0.0283791772081024,0.0260595638986434
1492617288.7,40.4713424461324,-79.9263978082652,10.8100004196167,0.092559814453125,-1.04351806640625,0.156051635742188,-0.0777222258850905,0.0568750008719502,-0.0478559395242879
1492617288.9,40.4713424461324,-79.9263978082652,10.8100004196167,0.1458740234375,-1.06990051269531,0.31353759765625,-0.033205890367762,0.0257373214067438,-0.0494522382816814
1492617289.1,40.4713424461324,-79.9263978082652,10.8100004196167,0.0708160400390625,-0.96917724609375,0.232986450195312,-0.0678405666603515,-0.0197747700421654,-0.0336961783244456
1492617289.3,40.4712539046351,-79.9264369437322,10.75,0.125686645507812,-0.984298706054688,0.159515380859375,-0.0229820149429478,0.0278034017804272,-0.0173664734684067
1492617289.5,40.4712539046351,-79.9264369437322,10.75,0.07794189453125,-0.923141479492188,0.226028442382812,0.0282191212265886,-0.0257088255830799,0.0248781856390842
1492617289.7,40.4712539046351,-79.9264369437322,10.75,0.02642822265625,-0.948867797851562,0.223587036132812,-0.0341957873449444,-0.0625286255500794,0.0520557445633428
1492617289.9,40.4712539046351,-79.9264369437322,10.75,0.0371246337890625,-0.98919677734375,0.217254638671875,-0.0107178918070239,0.00432577255861571,0.00734260144145747
1492617290.1,40.4712539046351,-79.9264369437322,10.75,0.130096435546875,-1.01461791992188,0.213760375976562,0.0176309253646516,0.0147717556183425,-0.0350426725715896
1492617290.3,40.4711606701082,-79.9264781535249,10.9899997711182,0.12451171875,-0.948516845703125,0.20855712890625,-0.00111186975510808,-0.0680637395597001,0.0438790410684726
1492617290.5,40.4711606701082,-79.9264781535249,10.9899997711182,0.102005004882812,-0.966140747070312,0.23626708984375,0.00537372644756189,-0.0883194764947338,0.0258720773579018
1492617290.7,40.4711606701082,-79.9264781535249,10.9899997711182,0.06304931640625,-0.94598388671875,0.195785522460938,-0.0572084286404281,-0.0368522905322985,0.035760660801475
1492617290.9,40.4711606701082,-79.9264781535249,10.9899997711182,0.052734375,-1.01797485351562,0.28741455078125,-0.057337858269406,0.0578044440923879,-0.058311776280048
1492617291.1,40.4711606701082,-79.9264781535249,10.9899997711182,0.0256805419921875,-1.01106262207031,0.23712158203125,0.00959377151090145,0.0339670218073066,-0.0596974189952162
1492617291.3,40.4710647788177,-79.9265204425484,11.039999961853,0.0944671630859375,-0.92779541015625,0.245452880859375,-0.0191678356297363,0.00757136697909527,0.00404907012135647
1492617291.5,40.4710647788177,-79.9265204425484,11.039999961853,0.085296630859375,-0.971755981445312,0.228607177734375,-0.0342871337703342,0.0183102977587308,0.0251908407510595
1492617291.7,40.4710647788177,-79.9265204425484,11.039999961853,0.05303955078125,-0.900863647460938,0.245773315429688,-0.0365092753838963,0.0151219613016879,-0.0473262367834711
1492617291.9,40.4710647788177,-79.9265204425484,11.039999961853,0.03936767578125,-0.949234008789062,0.195098876953125,0.0400424912021044,-0.0630079945462937,0.07414133948337
1492617292.1,40.4710647788177,-79.9265204425484,11.039999961853,0.02191162109375,-0.896102905273438,0.224288940429688,-0.0289522894746874,0.0406030866115661,-0.0409173396201954
1492617292.3,40.4709650158955,-79.9265639377825,11.1199998855591,0.0435943603515625,-0.973861694335938,0.219711303710938,-0.0284095372445293,0.00230842803288068,-0.0237535327107437
1492617292.5,40.4709650158955,-79.9265639377825,11.1199998855591,0.041046142578125,-0.9942626953125,0.263504028320312,0.0492793991269352,0.0092627405874046,0.0612548356006945
1492617292.7,40.4709650158955,-79.9265639377825,11.1199998855591,0.058074951171875,-0.96746826171875,0.20037841796875,0.0161946825887718,0.029678799820061,8.92158965176545e-05
1492617292.9,40.4709650158955,-79.9265639377825,11.1199998855591,0.106903076171875,-0.943283081054688,0.21258544921875,-0.0905160517618312,-0.0493979097954438,0.0503790183410289
1492617293.1,40.4709650158955,-79.9265639377825,11.1199998855591,0.044403076171875,-0.952407836914062,0.24688720703125,-0.05377454873088,-0.0400688564968962,0.0166122662476963
1492617293.3,40.4708726587006,-79.9266042042235,11.0900001525879,-0.0456085205078125,-0.98614501953125,0.225067138671875,0.0443927648427488,-0.120470755070824,0.113784090205853
1492617293.5,40.4708726587006,-79.9266042042235,11.0900001525879,0.023773193359375,-0.967117309570312,0.235122680664062,-0.0665601188082414,0.0206392321320051,-0.0273900791792469
1492617293.7,40.4708726587006,-79.9266042042235,11.0900001525879,0.0829315185546875,-0.957992553710938,0.202545166015625,-0.0529170108598745,0.031190942687008,-0.00701956000123086
1492617293.9,40.4708726587006,-79.9266042042235,11.0900001525879,0.0646209716796875,-0.9779052734375,0.1959228515625,-0.0415583624945775,-0.0816304147847818,0.0349702345899395
1492617294.1,40.4708726587006,-79.9266042042235,11.0900001525879,-0.0130615234375,-0.968399047851562,0.1920166015625,0.00458729497766149,-0.0649137526223544,0.0183401251629397
1492617294.3,40.4707805755444,-79.9266443511874,10.9899997711182,0.0206756591796875,-1.03005981445312,0.174774169921875,0.0627454068628119,-0.0408196016081895,0.0615219506580295
1492617294.5,40.4707805755444,-79.9266443511874,10.9899997711182,0.0665435791015625,-1.00880432128906,0.23760986328125,-0.00457451180442911,-0.0127323068555598,0.0159792328565844
1492617294.7,40.4707805755444,-79.9266443511874,10.9899997711182,-6.103515625e-05,-0.956130981445312,0.223556518554688,-0.0205414941199992,0.0171582142711625,0.0317318307044031
1492617294.9,40.4707805755444,-79.9266443511874,10.9899997711182,0.05950927734375,-0.99884033203125,0.13861083984375,0.0355236394644579,0.0338064331935749,-0.00931946591862329
1492617295.1,40.4707805755444,-79.9266443511874,10.9899997711182,0.004180908203125,-0.940780639648438,0.239044189453125,-0.02527393137707,-0.00941320918899408,-0.0258236078260623
1492617295.3,40.470688437235,-79.9266845221973,10.9300003051758,0.0646209716796875,-0.940353393554688,0.180084228515625,-0.02971129038536,0.00976634434953858,-0.00246182611166925
1492617295.5,40.470688437235,-79.9266845221973,10.9300003051758,0.0927734375,-0.9964599609375,0.185745239257812,0.0225790786700188,0.0115525264926547,-0.00939456706136352
1492617295.7,40.470688437235,-79.9266845221973,10.9300003051758,0.10919189453125,-0.952255249023438,0.218917846679688,-0.0684198041974437,-0.0325299800830999,0.0015158712924731
1492617295.9,40.470688437235,-79.9266845221973,10.9300003051758,0.0153961181640625,-0.965179443359375,0.175933837890625,-0.0530826594796774,-0.0390051899575185,0.0443381700404022
1492617296.1,40.470688437235,-79.9266845221973,10.9300003051758,0.00201416015625,-1.01670837402344,0.170455932617188,-0.0215556258631014,-0.0190053828032415,0.00835806476510468
1492617296.3,40.4705948858526,-79.9267256681829,10.9300003051758,0.0151824951171875,-0.912689208984375,0.2490234375,-0.142756619704826,-0.0139640188597215,-0.00355798321634586
1492617296.5,40.4705948858526,-79.9267256681829,10.9300003051758,-0.0045013427734375,-1.02996826171875,0.154922485351562,-0.081907117222041,-0.0164892282053346,-0.0157230367597188
1492617296.7,40.4705948858526,-79.9267256681829,10.9300003051758,0.0475311279296875,-0.910110473632812,0.199600219726562,-0.0148596399343151,0.039457128394505,0.0178716751271947
1492617296.9,40.4705948858526,-79.9267256681829,10.9300003051758,0.0932769775390625,-0.916366577148438,0.207229614257812,-0.0368994284835929,0.0353414792458965,-0.00793249162291002
1492617297.1,40.4705948858526,-79.9267256681829,10.9300003051758,0.0243377685546875,-0.95916748046875,0.205474853515625,-0.00211614780217696,-0.0021140172733049,-0.00214863836747593
1492617297.3,40.4705004722243,-79.9267672739344,10.9300003051758,-0.0315093994140625,-0.962982177734375,0.209579467773438,0.00523710628364082,-0.0330112132920772,-0.0115895444318068
1492617297.5,40.4705004722243,-79.9267672739344,10.9300003051758,0.0146026611328125,-0.970077514648438,0.185699462890625,-0.0473728421025475,-0.0422382675208747,0.0145509795639749
1492617297.7,40.4705004722243,-79.9267672739344,10.9300003051758,0.0010833740234375,-0.913894653320312,0.225006103515625,-0.0248004213352539,-0.0179198783429252,0.0125868982600415
1492617297.9,40.4705004722243,-79.9267672739344,10.9300003051758,0.021942138671875,-0.96893310546875,0.215301513671875,-0.0515406892085215,0.0141573643548612,-0.0389479319940818
1492617298.1,40.4705004722243,-79.9267672739344,10.9300003051758,0.037506103515625,-1.00064086914062,0.224014282226562,-0.042617235343993,-0.00929682904935761,-0.00361098012203844
1492617298.3,40.4704035637959,-79.9268099790827,10.8900003433228,-0.00567626953125,-0.898956298828125,0.3006591796875,-0.0572158854914804,0.00249644720584028,-0.0197840911059806
1492617298.5,40.4704035637959,-79.9268099790827,10.8900003433228,-0.11395263671875,-0.945999145507812,0.215927124023438,-0.0483683317180191,-0.0720193327267948,-0.00670663857314655
1492617298.7,40.4704035637959,-79.9268099790827,10.8900003433228,0.0367279052734375,-0.996978759765625,0.22125244140625,-0.0207566775360776,0.00544776232586609,-0.0364778500830333
1492617298.9,40.4704035637959,-79.9268099790827,10.8900003433228,0.036590576171875,-0.991424560546875,0.164413452148438,-0.0502197613078422,0.100302103503436,-0.0882025637228793
1492617299.1,40.4704035637959,-79.9268099790827,10.8900003433228,-0.001251220703125,-0.956390380859375,0.213211059570312,-0.062109976626719,-0.0176767317354009,0.0154029247966913
1492617299.3,40.4703155963888,-79.9268487441439,10.960000038147,0.061370849609375,-0.920333862304688,0.176864624023438,-0.0574848647615784,-0.017711086513463,-0.0112049839703994
1492617299.5,40.4703155963888,-79.9268487441439,10.960000038147,0.0825653076171875,-1.020263671875,0.23284912109375,-0.0187510509191389,0.0299038369321727,-0.0141299337956334
1492617299.7,40.4703155963888,-79.9268487441439,10.960000038147,0.0791015625,-1.00868225097656,0.2314453125,-0.00541900018609323,0.0861926760481965,-0.0237346242670042
1492617299.9,40.4703155963888,-79.9268487441439,10.960000038147,0.0629730224609375,-0.959442138671875,0.191513061523438,-0.0319419541144104,0.000207726565026181,-0.000327568814079746
1492617300.1,40.4703155963888,-79.9268487441439,10.960000038147,0.0758209228515625,-0.978179931640625,0.225265502929688,0.0220752085917758,-0.0841689399358453,0.0526877126900186
1492617300.3,40.4702229426894,-79.9268895743383,10.960000038147,0.024139404296875,-1.00166320800781,0.241729736328125,0.0128167290621153,-0.0298705474185468,-0.0189835448823028
1492617300.5,40.4702229426894,-79.9268895743383,10.960000038147,-0.0384979248046875,-0.937179565429688,0.218017578125,-0.0116268286870679,-0.00418063027920639,-0.00863796299567201
1492617300.7,40.4702229426894,-79.9268895743383,10.960000038147,0.074798583984375,-0.950668334960938,0.218795776367188,-0.0101972438139134,0.0170820478639863,-0.0236051946380263
1492617300.9,40.4702229426894,-79.9268895743383,10.960000038147,0.04302978515625,-0.998458862304688,0.2171630859375,0.0324301115422219,-0.0438204515244908,0.0185707549133405
1492617301.1,40.4702229426894,-79.9268895743383,10.960000038147,0.061920166015625,-0.916152954101562,0.213485717773438,-0.0320791069105495,-0.00830027416944996,0.00502405339643448
1492617301.3,40.4701296764469,-79.9269306744652,10.9899997711182,0.03912353515625,-0.99957275390625,0.213699340820312,0.0155968029240491,-0.0245647315787819,0.014083861108775
1492617301.5,40.4701296764469,-79.9269306744652,10.9899997711182,0.0443115234375,-0.9716796875,0.186614990234375,-0.0232829521461267,0.0150431317334216,-0.00240962815430369
1492617301.7,40.4701296764469,-79.9269306744652,10.9899997711182,0.104385375976562,-0.947280883789062,0.24530029296875,0.00653939205668957,0.0584529238178222,-0.0565932384286198
1492617301.9,40.4701296764469,-79.9269306744652,10.9899997711182,0.0755462646484375,-1.02743530273438,0.220703125,0.0362914288067278,0.00401817745271155,-0.00390366152583815
1492617302.1,40.4701296764469,-79.9269306744652,10.9899997711182,0.0930633544921875,-1.00140380859375,0.19024658203125,0.0240012066921211,0.0955678020336025,-0.0671723795428506
1492617302.3,40.4700373887699,-79.9269713433626,10.9399995803833,0.0335845947265625,-0.986724853515625,0.206222534179688,-0.000707069269416038,-0.0414758045007851,0.0288875746601985
1492617302.5,40.4700373887699,-79.9269713433626,10.9399995803833,0.077362060546875,-0.954635620117188,0.213485717773438,-0.0211907727937605,0.0139661493885935,-0.000253000303557528
1492617302.7,40.4700373887699,-79.9269713433626,10.9399995803833,0.0794219970703125,-0.8779296875,0.258636474609375,-0.145153198369788,0.0434880890204489,-0.0303861354055861
1492617302.9,40.4700373887699,-79.9269713433626,10.9399995803833,0.0794525146484375,-0.98907470703125,0.209121704101562,0.000182426534670428,0.0106348011810134,-0.00748907530141183
1492617303.1,40.4700373887699,-79.9269713433626,10.9399995803833,0.071990966796875,-0.994232177734375,0.197860717773438,-0.0136191394985562,-0.00736071093687001,-0.0203785086612863
1492617303.3,40.4699440844065,-79.9270124602885,10.9300003051758,0.070343017578125,-0.992416381835938,0.118377685546875,-0.0302061057158967,0.0193372126750654,-0.0387428685901457
1492617303.5,40.4699440844065,-79.9270124602885,10.9300003051758,0.086334228515625,-0.974334716796875,0.274505615234375,-0.0420877989192853,-0.0337616920872615,0.022046712768112
1492617303.7,40.4699440844065,-79.9270124602885,10.9300003051758,-0.0030517578125,-0.927993774414062,0.246749877929688,-0.0713735161624506,-0.0739898056173444,0.0389101151066027
1492617303.9,40.4699440844065,-79.9270124602885,10.9300003051758,-0.0396881103515625,-0.9483642578125,0.249710083007812,-0.0532810649808883,0.03014618459137,0.0964021704031243
1492617304.1,40.4699440844065,-79.9270124602885,10.9300003051758,-0.04736328125,-0.869049072265625,0.233932495117188,-0.064497234227866,0.0897743613982441,0.0151011886451853
1492617304.3,40.4698503865373,-79.9270537506227,10.9700002670288,-0.033111572265625,-0.9654541015625,0.219589233398438,-0.0659981918182347,0.0876491588483609,-0.0318221118653568
1492617304.5,40.4698503865373,-79.9270537506227,10.9700002670288,-0.05279541015625,-1.01870727539062,0.199920654296875,0.00990216556513262,-0.00432337571363464,-0.025476597936025
1492617304.7,40.4698503865373,-79.9270537506227,10.9700002670288,-0.0764923095703125,-0.963516235351562,0.258148193359375,0.0242424890868823,-0.0427072501888377,-0.00497265438739595
1492617304.9,40.4698503865373,-79.9270537506227,10.9700002670288,-0.01715087890625,-0.958419799804688,0.20855712890625,-0.0642194665261707,-0.055960471353617,-0.00691037039653761
1492617305.1,40.4698503865373,-79.9270537506227,10.9700002670288,0.0894622802734375,-0.9488525390625,0.22259521484375,-0.0561098746907705,0.00993545507875861,-0.0187257508887832
1492617305.3,40.469784305044,-79.9270828711029,11.039999961853,0.0783843994140625,-0.968963623046875,0.200729370117188,0.00268739585599896,0.0255074906046699,-0.0266936625541912
1492617305.5,40.469784305044,-79.9270828711029,11.039999961853,0.00799560546875,-1.0213623046875,0.2559814453125,0.0121629230145009,-0.0564539551036087,0.0141309990600694
1492617305.7,40.469784305044,-79.9270828711029,11.039999961853,-0.0100860595703125,-0.954849243164062,0.159255981445312,-0.024668328545186,-0.155129133497116,0.0833124673292758
1492617305.9,40.469784305044,-79.9270828711029,11.039999961853,0.0007171630859375,-1.02220153808594,0.233245849609375,0.0292479003556862,-0.0714590036334422,0.00261628945489384
1492617306.1,40.469784305044,-79.9270828711029,11.039999961853,-0.0342254638671875,-0.997711181640625,0.266265869140625,0.0380214182508433,-0.0374770681240311,0.00261841998376591
1492617306.3,40.4696650564545,-79.9271381307753,11.0200004577637,0.04644775390625,-0.977447509765625,0.27288818359375,0.00998019618507195,-0.0596305736518552,0.0162492773911185
1492617306.5,40.4696650564545,-79.9271381307753,11.0200004577637,-0.03399658203125,-0.94561767578125,0.211227416992188,-0.0213700035351228,0.0597008811046333,-0.0398227804121729
1492617306.7,40.4696650564545,-79.9271381307753,11.0200004577637,0.0272064208984375,-0.98504638671875,0.175704956054688,-0.0361596023327689,0.00768135553211555,0.000676176600771119
1492617306.9,40.4696650564545,-79.9271381307753,11.0200004577637,0.0462646484375,-0.979095458984375,0.160797119140625,-0.0821369480241149,0.042012165144327,-0.0446641409578279
1492617307.1,40.4696650564545,-79.9271381307753,11.0200004577637,0.04736328125,-0.951202392578125,0.216201782226562,0.0200794356708704,-0.0299155548409691,-0.0050482881623542
1492617307.3,40.4695723085156,-79.9271811961555,10.9300003051758,0.0876007080078125,-0.976821899414062,0.138229370117188,-0.100022737905087,-0.0450817246167523,0.0470719048993685
1492617307.5,40.4695723085156,-79.9271811961555,10.9300003051758,0.0298309326171875,-0.98388671875,0.207366943359375,-0.0135850510366032,-0.0392632502671472,0.0372797278872562
1492617307.7,40.4695723085156,-79.9271811961555,10.9300003051758,0.023223876953125,-0.987396240234375,0.261550903320312,-0.0348884755444741,0.00979830228261953,-0.0131770547576031
1492617307.9,40.4695723085156,-79.9271811961555,10.9300003051758,-0.03680419921875,-0.982528686523438,0.266311645507812,-0.0283956888068609,0.0639968262590401,-0.0686935771575039
1492617308.1,40.4695723085156,-79.9271811961555,10.9300003051758,0.0388031005859375,-0.997467041015625,0.171829223632812,-0.051355599512761,0.0407492941554114,-0.0379484476369751
1492617308.3,40.4694779811591,-79.9272249949021,10.9300003051758,0.067718505859375,-0.944564819335938,0.163528442382812,0.00137632165135295,0.0180722111572777,-0.0128271153903667
1492617308.5,40.4694779811591,-79.9272249949021,10.9300003051758,0.063720703125,-0.965301513671875,0.210784912109375,-0.00373694764159919,0.0266135014053798,-0.0235636493250211
1492617308.7,40.4694779811591,-79.9272249949021,10.9300003051758,0.0772705078125,-0.97259521484375,0.172927856445312,0.00297048987987438,-0.0181015059292686,0.00647441092609164
1492617308.9,40.4694779811591,-79.9272249949021,10.9300003051758,0.0250244140625,-0.9322509765625,0.1943359375,-0.0599426961316125,0.0588907475010312,-0.023156185678239
1492617309.1,40.4694779811591,-79.9272249949021,10.9300003051758,0.0151519775390625,-1.03248596191406,0.194931030273438,-0.0585836850273451,0.0727080261846893,-0.037038711808604
1492617309.3,40.469385544494,-79.9272679157495,10.9499998092651,0.0072174072265625,-0.933502197265625,0.233795166015625,-0.0506549218299612,-0.0305139671379099,0.0272816885228807
1492617309.5,40.469385544494,-79.9272679157495,10.9499998092651,0.0279998779296875,-0.946044921875,0.23431396484375,-0.0333901811151955,-0.0157355536168422,0.0188906005602591
1492617309.7,40.469385544494,-79.9272679157495,10.9499998092651,0.037750244140625,-0.913040161132812,0.200286865234375,-0.00430153779269599,0.00215609521852815,0.00421525137337742
1492617309.9,40.469385544494,-79.9272679157495,10.9499998092651,-0.118011474609375,-0.834823608398438,0.223373413085938,0.00780306199393217,-0.168099793270238,0.115664814567667
1492617310.1,40.469385544494,-79.9272679157495,10.9499998092651,-0.154266357421875,-0.904647827148438,0.12969970703125,0.0905051328013618,-0.110136358460772,0.0961038963610354
1492617310.3,40.4692923080783,-79.9273112079427,10.9499998092651,-0.104507446289062,-1.02207946777344,0.190902709960938,0.0981966083456197,-0.127210150525379,0.069571355052794
1492617310.5,40.4692923080783,-79.9273112079427,10.9499998092651,0.182830810546875,-0.985580444335938,0.241897583007812,-0.0588268316348693,0.0865295659260916,-0.0893213576968216
1492617310.7,40.4692923080783,-79.9273112079427,10.9499998092651,-0.032379150390625,-0.91058349609375,0.244857788085938,0.0295533649327183,0.0349041881949055,-0.0392374176045735
1492617310.9,40.4692923080783,-79.9273112079427,10.9499998092651,-0.0027923583984375,-0.929855346679688,0.2086181640625,-0.10010502958277,0.141049533446085,-0.0781563211427734
1492617311.1,40.4692923080783,-79.9273112079427,10.9499998092651,0.127670288085938,-0.938949584960938,0.267120361328125,-0.0569548957046526,0.0567461038751904,-0.0092592784779875
1492617311.3,40.4691998319792,-79.9273541471003,10.9700002670288,0.037139892578125,-0.942947387695312,0.267242431640625,-0.0323880335969987,-0.0104222809260251,0.026350647405789
1492617311.5,40.4691998319792,-79.9273541471003,10.9700002670288,-0.012908935546875,-0.978836059570312,0.190841674804688,-0.0130369724842649,-0.0690475112663754,0.0586864830454221
1492617311.7,40.4691998319792,-79.9273541471003,10.9700002670288,-0.0576324462890625,-0.965499877929688,0.19842529296875,0.052766009626067,-0.12479120130726,0.0445770555901823
1492617311.9,40.4691998319792,-79.9273541471003,10.9700002670288,-0.0438690185546875,-0.880630493164062,0.283523559570312,0.00946407556581459,-0.060697435984541,-0.0242693870138921
1492617312.1,40.4691998319792,-79.9273541471003,10.9700002670288,0.0110015869140625,-0.951278686523438,0.211044311523438,0.0163419553970532,-0.0320125278832975,0.0333025631153319
1492617312.3,40.4691078119552,-79.9273968744899,11.0,0.0246429443359375,-0.974456787109375,0.188232421875,-0.0370512286657274,-0.00827204466189512,-0.0206160626305214
1492617312.5,40.4691078119552,-79.9273968744899,11.0,0.06854248046875,-0.980209350585938,0.269943237304688,-0.0412888505922615,0.0140953127014624,-0.0100550310117032
1492617312.7,40.4691078119552,-79.9273968744899,11.0,-0.0261077880859375,-0.987686157226562,0.233489990234375,0.0129506860649463,-0.0543282199215075,0.035457859385533
1492617312.9,40.4691078119552,-79.9273968744899,11.0,-0.0114898681640625,-0.970596313476562,0.206497192382812,-0.0804029638383643,0.00689971775217729,-0.0349598482616882
1492617313.1,40.4691078119552,-79.9273968744899,11.0,0.01092529296875,-0.977081298828125,0.190673828125,0.0496807375032102,0.0113706325902023,-0.0443016847334681
1492617313.3,40.4690133655927,-79.9274407284942,10.9399995803833,0.03497314453125,-0.958160400390625,0.21685791015625,-0.0447227305018097,-0.0177939108233644,-0.0100078930604088
1492617313.5,40.4690133655927,-79.9274407284942,10.9399995803833,-0.0125732421875,-0.878524780273438,0.268280029296875,0.0245641989465639,-0.0831255134207523,0.027121366225258
1492617313.7,40.4690133655927,-79.9274407284942,10.9399995803833,0.0620574951171875,-0.970535278320312,0.202529907226562,-0.0258611583974325,-0.0349340155991144,0.00302401941778497
1492617313.9,40.4690133655927,-79.9274407284942,10.9399995803833,-0.0839080810546875,-1.048583984375,0.216598510742188,0.0224216858495951,-0.147979078602471,0.147748981484288
1492617314.1,40.4690133655927,-79.9274407284942,10.9399995803833,0.120391845703125,-1.02365112304688,0.133544921875,-0.0490831241545964,0.156675897458234,-0.0627472710755749
1492617314.3,40.4689215298433,-79.9274833703201,10.9099998474121,0.06536865234375,-0.964126586914062,0.227340698242188,-0.0700041187299319,0.0706512668748211,-0.0595408251231195
1492617314.5,40.4689215298433,-79.9274833703201,10.9099998474121,0.108932495117188,-0.961532592773438,0.195388793945312,-0.0436540039563609,0.000283892972202447,-0.00044767737924232
1492617314.7,40.4689215298433,-79.9274833703201,10.9099998474121,0.02813720703125,-1.001708984375,0.224044799804688,-0.0165749819924352,-0.0126633309833268,-0.0406531540400596
1492617314.9,40.4689215298433,-79.9274833703201,10.9099998474121,0.0241241455078125,-0.942062377929688,0.201812744140625,0.0199409512941863,-0.0288492251405014,0.00560968252014291
1492617315.1,40.4689215298433,-79.9274833703201,10.9099998474121,0.0099639892578125,-0.916473388671875,0.272918701171875,-0.0528562907870207,-0.0400731175546403,0.0272838190517528
1492617315.3,40.4688287271087,-79.9275264611435,10.8299999237061,0.00213623046875,-0.957809448242188,0.195358276367188,-0.0179451783732809,-0.0488080196139912,0.0393921472639071
1492617315.5,40.4688287271087,-79.9275264611435,10.8299999237061,0.0238494873046875,-0.93414306640625,0.247894287109375,-0.00592233763211821,0.00747975423759655,-0.0299339306524906
1492617315.7,40.4688287271087,-79.9275264611435,10.8299999237061,0.02484130859375,-0.963363647460938,0.172454833984375,-0.108357633168708,0.00602087459245114,-0.0160519371543436
1492617315.9,40.4688287271087,-79.9275264611435,10.8299999237061,0.0541839599609375,-0.99578857421875,0.205123901367188,-0.00355505373914677,-0.0499718210103558,-0.00097365169453297
1492617316.1,40.4688287271087,-79.9275264611435,10.8299999237061,-0.003173828125,-1.00732421875,0.198760986328125,0.0561684642347522,0.00176540948661353,0.0208285828855097
1492617316.3,40.468781517234,-79.927548381967,10.8199996948242,0.00408935546875,-1.05335998535156,0.223129272460938,0.035728170236176,0.00509223032034051,0.0376701473030618
1492617316.5,40.468781517234,-79.927548381967,10.8199996948242,-0.04705810546875,-0.9404296875,0.146697998046875,-0.0263698221656376,-0.0285418963507062,0.0435184490568758
1492617316.7,40.468781517234,-79.927548381967,10.8199996948242,0.0689544677734375,-0.96881103515625,0.17913818359375,-0.0545524580852921,0.0482167978519936,-0.0337355931085788
1492617316.9,40.468781517234,-79.927548381967,10.8199996948242,0.046539306640625,-0.961776733398438,0.190048217773438,0.0173899092859994,-0.00756391012804305,-0.0296564292669044
1492617317.1,40.468781517234,-79.927548381967,10.8199996948242,0.0278472900390625,-0.980255126953125,0.214157104492188,-0.0246126684784033,-0.0221785392420709,-0.00339339986097897
1492617317.3,40.4686423312856,-79.9276229459378,10.9700002670288,-0.0107574462890625,-0.954086303710938,0.21820068359375,0.0157739031365393,-0.045844187636842,-0.0103823335096739
1492617317.5,40.4686423312856,-79.9276229459378,10.9700002670288,0.000152587890625,-1.01260375976562,0.216140747070312,-0.0513707795309745,-0.0464705631252287,-0.00680331132071642
1492617317.7,40.4686423312856,-79.9276229459378,10.9700002670288,-0.0194244384765625,-0.92620849609375,0.189178466796875,-0.0336200119172693,0.00766005024339491,-0.0291517602403344
1492617317.9,40.4686423312856,-79.9276229459378,10.9700002670288,0.0410003662109375,-0.960250854492188,0.222198486328125,-0.0327169339916234,-0.0678621382651811,0.0190320144141423
1492617318.1,40.4686423312856,-79.9276229459378,10.9700002670288,-0.04449462890625,-0.968399047851562,0.194290161132812,-0.0479874996821378,-0.0252185376263963,-0.00895594442982747
1492617318.3,40.468551601274,-79.9276720539312,10.9300003051758,0.036956787109375,-0.969406127929688,0.212631225585938,0.0281570695731898,0.0083218457742796,-0.0295871870785623
1492617318.5,40.468551601274,-79.9276720539312,10.9300003051758,0.0199127197265625,-0.942581176757812,0.252944946289062,-0.0298489758137171,-0.039154060662454,0.0584372111673907
1492617318.7,40.468551601274,-79.9276720539312,10.9300003051758,0.0574188232421875,-0.938690185546875,0.184280395507812,-0.0649606242575398,0.0163797722845324,0.00888856645424847
1492617318.9,40.468551601274,-79.9276720539312,10.9300003051758,0.05487060546875,-0.965850830078125,0.194549560546875,-0.0365803817850014,-0.00933198277574666,0.0220400548653868
1492617319.1,40.468551601274,-79.9276720539312,10.9300003051758,0.0393524169921875,-0.909866333007812,0.251373291015625,-0.0254470368479251,0.018249045053659,0.00182479797892229
1492617319.3,40.4684626000113,-79.9277204934031,10.8800001144409,0.037078857421875,-1.0469970703125,0.194854736328125,0.00032836776240677,-0.0297802662575931,0.0373977059235467
1492617319.5,40.4684626000113,-79.9277204934031,10.8800001144409,0.050201416015625,-0.924942016601562,0.206497192382812,0.0196759667657234,-0.00756817118578718,0.0364722574447442
1492617319.7,40.4684626000113,-79.9277204934031,10.8800001144409,0.05352783203125,-0.968093872070312,0.233566284179688,-0.0531553637774366,0.0131104757303511,0.000488157427811524
1492617319.9,40.4684626000113,-79.9277204934031,10.8800001144409,0.0642547607421875,-0.932281494140625,0.245620727539062,-0.0538144961472312,-0.0102813997043599,0.035726838655631
1492617320.1,40.4684626000113,-79.9277204934031,10.8800001144409,0.0915985107421875,-0.937637329101562,0.200485229492188,-0.0375031671027138,-0.0912287136695364,0.044632449340856
1492617320.3,40.4683740974631,-79.9277700842947,10.8199996948242,0.00640869140625,-0.908248901367188,0.196731567382812,0.0566406426960233,-0.0439746485516064,0.0390770953069507
1492617320.5,40.4683740974631,-79.9277700842947,10.8199996948242,-0.016265869140625,-0.982620239257812,0.169418334960938,-0.0572137549626083,-0.0570646179415639,0.0251506270185993
1492617320.7,40.4683740974631,-79.9277700842947,10.8199996948242,0.0527801513671875,-0.724380493164062,0.252365112304688,0.0108332066822243,-0.0702717664194848,0.0258813984217171
1492617320.9,40.4683740974631,-79.9277700842947,10.8199996948242,0.17974853515625,-0.950103759765625,0.114898681640625,-0.0237346242670042,-0.251928114902662,0.117690681208891
1492617321.1,40.4683740974631,-79.9277700842947,10.8199996948242,0.04193115234375,-0.976455688476562,0.19683837890625,-0.023559920899495,-0.0647377176743002,-0.0256632855284396
1492617321.3,40.4682836744108,-79.9278207513078,10.9300003051758,-0.000732421875,-0.939605712890625,0.198379516601562,-0.0594119281263597,0.00144769436856707,-0.0155390123283943
1492617321.5,40.4682836744108,-79.9278207513078,10.9300003051758,-0.0103302001953125,-0.914566040039062,0.232528686523438,-0.0127075394574221,-0.0180029689689357,-0.0150106411681226
1492617321.7,40.4682836744108,-79.9278207513078,10.9300003051758,0.0768890380859375,-0.996292114257812,0.196884155273438,-0.0376858599534933,0.0353433434586596,-0.028198614886195
1492617321.9,40.4682836744108,-79.9278207513078,10.9300003051758,0.0112762451171875,-0.990203857421875,0.290679931640625,-0.000374706765374149,-0.0648732725737852,0.0694674917702809
1492617322.1,40.4682836744108,-79.9278207513078,10.9300003051758,0.0098114013671875,-0.969894409179688,0.20391845703125,-0.0264989854785064,-0.0710920200352292,0.0297661515038156
1492617322.3,40.468196216009,-79.9278697571297,10.8900003433228,-0.037933349609375,-0.953384399414062,0.268600463867188,-0.0277807649111616,-0.0551239724552231,0.0542347429672457
1492617322.5,40.468196216009,-79.9278697571297,10.8900003433228,0.0897674560546875,-0.971420288085938,0.257797241210938,0.00620809481708371,-0.081939341471231,0.0461222216546463
1492617322.7,40.468196216009,-79.9278697571297,10.8900003433228,0.0154266357421875,-0.932632446289062,0.211639404296875,0.0159129201454415,0.0286076764296312,-0.0574864626582324
1492617322.9,40.468196216009,-79.9278697571297,10.8900003433228,0.0444488525390625,-0.913406372070312,0.19744873046875,-0.0726515671695796,0.0387601791372312,-0.0392275639085402
1492617323.1,40.468196216009,-79.9278697571297,10.8900003433228,0.0643310546875,-0.953384399414062,0.20538330078125,-0.00862784298352971,0.0511079255313836,-0.0418025743665378
1492617323.3,40.4681069579391,-79.927921211265,10.8900003433228,-0.03741455078125,-0.911224365234375,0.251022338867188,0.000401604692383949,-0.0648873873275626,0.0129661323992688
1492617323.5,40.4681069579391,-79.927921211265,10.8900003433228,-0.02874755859375,-0.974334716796875,0.151336669921875,-0.037577202981018,-0.0529425772063392,-0.00664538586807472
1492617323.7,40.4681069579391,-79.927921211265,10.8900003433228,0.0426025390625,-0.9200439453125,0.16668701171875,-0.0115109811796495,0.0170934994566736,-0.00549303606439744
1492617323.9,40.4681069579391,-79.927921211265,10.8900003433228,0.041351318359375,-0.955917358398438,0.242233276367188,-0.0319366277922302,0.00871812414448339,0.0039153794346345
1492617324.1,40.4681069579391,-79.927921211265,10.8900003433228,0.0134735107421875,-0.920242309570312,0.187774658203125,-0.0236344894100172,-0.0200562661693867,0.00407463646782123
1492617324.3,40.4680137633654,-79.9279760478763,10.9200000762939,0.0626068115234375,-0.958175659179688,0.186065673828125,-0.0463901356603083,0.00667920801391873,-0.0303461879892349
1492617324.5,40.4680137633654,-79.9279760478763,10.9200000762939,-0.055816650390625,-0.9683837890625,0.235488891601562,-0.0429807568327888,-0.016736902186712,0.0187949930771252
1492617324.7,40.4680137633654,-79.9279760478763,10.9200000762939,0.00665283203125,-0.863449096679688,0.19525146484375,-0.0965084305306185,0.00275077908994285,-0.0276505363338567
1492617324.9,40.4680137633654,-79.9279760478763,10.9200000762939,0.0160675048828125,-1.02139282226562,0.2510986328125,0.00729200138074596,0.0350602494347842,0.0309043865537155
1492617325.1,40.4680137633654,-79.9279760478763,10.9200000762939,0.066436767578125,-1.00901794433594,0.240493774414062,-0.0232065194228415,0.0714113330499297,-0.0547988004861245
1492617325.3,40.4679243233144,-79.9280286752891,10.960000038147,0.0858612060546875,-1.02996826171875,0.150665283203125,0.00245889663447016,0.0861364833491959,-0.0545740296901218
1492617325.5,40.4679243233144,-79.9280286752891,10.960000038147,0.03533935546875,-0.959518432617188,0.279922485351562,0.0234707050029773,0.00410206702704905,-0.000836498898393889
1492617325.7,40.4679243233144,-79.9280286752891,10.960000038147,0.03765869140625,-0.981979370117188,0.226348876953125,-0.0547913436350722,-0.0102760733821797,0.0293195393890094
1492617325.9,40.4679243233144,-79.9280286752891,10.960000038147,0.0106353759765625,-0.863357543945312,0.214279174804688,0.0103684850720055,-0.0755823759492118,0.0568105523735703
1492617326.1,40.4679243233144,-79.9280286752891,10.960000038147,0.142486572265625,-0.855743408203125,0.149459838867188,-0.0917461658693388,0.0580321443655897,-0.0341417251748158
1492617326.3,40.4678334423971,-79.928082150522,10.9799995422363,0.157928466796875,-0.853164672851562,0.116424560546875,0.0113466641403916,-0.329776574623422,0.312301710498649
1492617326.5,40.4678334423971,-79.928082150522,10.9799995422363,-0.04058837890625,-1.14189147949219,0.235397338867188,-0.0418752786642969,-0.04971029859131,0.0754007483628684
1492617326.7,40.4678334423971,-79.928082150522,10.9799995422363,0.195022583007812,-0.945556640625,0.216049194335938,-0.035795548211755,0.0906396224364108,-0.0581759550644539
1492617326.9,40.4678334423971,-79.928082150522,10.9799995422363,0.0514373779296875,-0.972488403320312,0.205047607421875,-0.0801827204162147,0.0473081272880586,-0.106498214095615
1492617327.1,40.4678334423971,-79.928082150522,10.9799995422363,-0.009033203125,-1.01268005371094,0.253097534179688,-0.132461637878906,0.0125560055913966,-0.0408385100519291
1492617327.3,40.4677702108959,-79.9281193565642,10.9200000762939,0.139312744140625,-0.953689575195312,0.199737548828125,0.0315089241211635,0.0774335392229259,-0.0809094970776973
1492617327.5,40.4677702108959,-79.9281193565642,10.9200000762939,0.0322723388671875,-0.981399536132812,0.22271728515625,0.0259849953881211,0.0455698820445639,-0.00624884118176192
1492617327.7,40.4677702108959,-79.9281193565642,10.9200000762939,0.05126953125,-1.01856994628906,0.249710083007812,-0.0469435405348267,0.0747607907529224,-0.0305275492594693
1492617327.9,40.4677702108959,-79.9281193565642,10.9200000762939,-0.0613555908203125,-0.980010986328125,0.19866943359375,0.0728619568956959,-0.0536573696429165,0.0158114537079094
1492617328.1,40.4677702108959,-79.9281193565642,10.9200000762939,-0.001373291015625,-1.023193359375,0.2314453125,-0.040062198594171,-0.024199345877223,0.0348373428515445
1492617328.3,40.4676547512064,-79.9281917216083,10.8299999237061,0.06280517578125,-0.91009521484375,0.162887573242188,0.0226922630163472,0.0285714574388061,-0.00837111425444607
1492617328.5,40.4676547512064,-79.9281917216083,10.8299999237061,1.52587890625e-05,-0.961944580078125,0.2188720703125,-0.0440894307945888,-0.0167291790195508,0.021982264269732
1492617328.7,40.4676547512064,-79.9281917216083,10.8299999237061,-0.02099609375,-0.895217895507812,0.276260375976562,0.0932023823533941,-0.0527271274741518,0.00855380710522551
1492617328.9,40.4676547512064,-79.9281917216083,10.8299999237061,0.0355682373046875,-0.891342163085938,0.188568115234375,-0.0313752334344415,-0.0465978622253344,0.0104611630779403
1492617329.1,40.4676547512064,-79.9281917216083,10.8299999237061,0.028228759765625,-0.90374755859375,0.155227661132812,-0.140442865349765,0.0626007972156206,-0.0527777275348633
1492617329.3,40.4676344423003,-79.9282044623917,10.8299999237061,0.0919036865234375,-0.890060424804688,0.228683471679688,-0.0628559280480502,0.0397577992815749,-0.0540568438064284
1492617329.5,40.4676344423003,-79.9282044623917,10.8299999237061,0.0798492431640625,-0.961105346679688,0.299362182617188,-0.0288822483380183,-0.0157677778660321,0.000811198868038136
1492617329.7,40.4676344423003,-79.9282044623917,10.8299999237061,0.12725830078125,-0.98046875,0.165313720703125,-0.0170711289035169,-0.00522006205266431,-0.0779949335807146
1492617329.9,40.4676344423003,-79.9282044623917,10.8299999237061,0.0756378173828125,-0.936325073242188,0.236495971679688,-0.0380680235699197,0.00981880862301314,-0.0142758750233698
1492617330.1,40.4676344423003,-79.9282044623917,10.8299999237061,0.024139404296875,-0.944137573242188,0.157928466796875,-0.0184812727007139,-0.0115772938907925,0.0211649401311867
1492617330.3,40.4674746098719,-79.9283002833417,10.9200000762939,0.0063934326171875,-0.921859741210938,0.187210083007812,-0.0879817876685118,-0.0111218933443889,0.041776475387855
1492617330.5,40.4674746098719,-79.9283002833417,10.9200000762939,0.0526123046875,-0.980682373046875,0.242996215820312,0.060933392057122,0.0144942542327563,-0.00900947396773806
1492617330.7,40.4674746098719,-79.9283002833417,10.9200000762939,0.03143310546875,-0.919219970703125,0.269058227539062,0.00161467456891504,0.0478546079437428,-0.0139677472852476
1492617330.9,40.4674746098719,-79.9283002833417,10.9200000762939,0.0238189697265625,-0.93463134765625,0.239044189453125,-0.0998352513643454,0.111270332452928,-0.0364943616817918
1492617331.1,40.4674746098719,-79.9283002833417,10.9200000762939,0.0954132080078125,-1.04249572753906,0.233978271484375,0.0443197942288807,0.0454479092666382,-0.0231202330035229
1492617331.3,40.4673904883728,-79.9283507048518,10.9399995803833,0.0186309814453125,-0.974822998046875,0.228225708007812,0.00480434260650295,-0.05747101632391,0.00659478580736322
1492617331.5,40.4673904883728,-79.9283507048518,10.9399995803833,-0.0472412109375,-0.96380615234375,0.302719116210938,0.0469808247900878,-0.0268899375265301,0.0538611014663075
1492617331.7,40.4673904883728,-79.9283507048518,10.9399995803833,0.009490966796875,-0.898284912109375,0.257293701171875,-0.0242691206977831,0.023559121951168,-0.00350791578785237
1492617331.9,40.4673904883728,-79.9283507048518,10.9399995803833,0.043182373046875,-1.00019836425781,0.256607055664062,-0.0561724589763873,0.0503614414778344,0.00782463359876181
