timestamp,latitude,longitude,speed,accelerometerX,accelerometerY,accelerometerZ,gyroX,gyroY,gyroZ
1492618026.9,40.4645665160794,-79.9300657923884,0.0,0.031005859375,-0.947769165039062,0.27178955078125,-0.0202951517191669,0.0011965582777726,0.00512019351178634
1492618027.1,40.4645665160794,-79.9300657923884,0.0,0.0465545654296875,-0.956634521484375,0.275177001953125,-0.0164857660959175,0.0362703898341162,-0.0205204551473876
1492618027.3,40.4645605894355,-79.9300693581532,0.610000014305115,0.0662078857421875,-0.948348999023438,0.308639526367188,-0.00978844858658624,0.0734566407671106,-0.0226802787914418
1492618027.5,40.4645605894355,-79.9300693581532,0.610000014305115,0.0940093994140625,-0.942901611328125,0.303604125976562,-0.00785286310631665,0.142581650021207,-0.0484279865264369
1492618027.7,40.4645605894355,-79.9300693581532,0.610000014305115,0.100997924804688,-0.93670654296875,0.312698364257812,-0.0215372500515798,0.171391726693684,-0.0443775848245354
1492618027.9,40.4645605894355,-79.9300693581532,0.610000014305115,0.126663208007812,-0.928192138671875,0.310440063476562,-0.0324503515665065,0.231026827719393,-0.0702323516353517
1492618028.1,40.4645489937108,-79.9300763347199,1.67999994754791,0.158859252929688,-0.946701049804688,0.315994262695312,0.001377919548007,0.31483837143695,-0.0839630775835822
1492618028.3,40.4645489937108,-79.9300763347199,1.67999994754791,0.189544677734375,-0.946807861328125,0.304443359375,-0.0297877231086453,0.408647421886664,-0.0898553214953825
1492618028.5,40.4645489937108,-79.9300763347199,1.67999994754791,0.19598388671875,-0.953826904296875,0.257522583007812,-0.0236038630574813,0.51923358825555,-0.0922098222151216
1492618028.7,40.4645489937108,-79.9300763347199,1.67999994754791,0.17987060546875,-0.95068359375,0.241622924804688,-0.0247186622897885,0.560717648555714,-0.143506565867792
1492618028.9,40.4645489937108,-79.9300763347199,1.67999994754791,0.201339721679688,-0.958587646484375,0.25482177734375,-0.0445064818212952,0.600202207509447,-0.154473196920629
1492618029.1,40.4645360246156,-79.9300841375749,2.70000004768372,0.223709106445312,-0.975601196289062,0.122879028320312,-0.0690778713028023,0.597171530188937,-0.150452089990718
1492618029.3,40.4645360246156,-79.9300841375749,2.70000004768372,0.202865600585938,-0.97076416015625,0.182846069335938,-0.0611459123121103,0.608828718912432,-0.101355117398454
1492618029.5,40.4645360246156,-79.9300841375749,2.70000004768372,0.150146484375,-0.9222412109375,0.158706665039062,-0.0344192265604021,0.669278480915595,-0.153481968362902
1492618029.7,40.4645360246156,-79.9300841375749,2.70000004768372,0.199981689453125,-0.964736938476562,0.1103515625,-0.05458255180561,0.670472642348387,-0.157956345310344
1492618029.9,40.4645360246156,-79.9300841375749,2.70000004768372,0.190505981445312,-0.999237060546875,0.0517578125,-0.0523372406905642,0.691732923646598,-0.154789580458131
1492618030.1,40.4645360246156,-79.9300841375749,2.70000004768372,0.207046508789062,-0.964935302734375,0.0947418212890625,-0.0674978178280583,0.683323992504673,-0.141062316619317
1492618030.3,40.4644995333165,-79.9300424393952,3.03999996185303,0.242172241210938,-1.00047302246094,0.0990142822265625,-0.0311038573193624,0.675638375914814,-0.158795507369828
1492618030.5,40.4644995333165,-79.9300424393952,3.03999996185303,0.209854125976562,-0.9893798828125,0.0566253662109375,-0.015192801386684,0.650004118842256,-0.168162377555854
1492618030.7,40.4644995333165,-79.9300424393952,3.03999996185303,0.200424194335938,-0.95257568359375,0.102569580078125,-0.022181735035379,0.638354653285922,-0.130886378094124
1492618030.9,40.4644995333165,-79.9300424393952,3.03999996185303,0.25421142578125,-1.08134460449219,0.0207977294921875,-0.0890723521348992,0.736633286993116,-0.246975966855659
1492618031.1,40.4644883110749,-79.9300113369521,3.38000011444092,0.315216064453125,-0.967529296875,0.0688934326171875,-0.0999012977593794,0.722888712607217,-0.163886672425732
1492618031.3,40.4644883110749,-79.9300113369521,3.38000011444092,0.335617065429688,-0.975112915039062,0.0794830322265625,-0.0945850955913632,0.762202829251185,-0.219376829530841
1492618031.5,40.4644883110749,-79.9300113369521,3.38000011444092,0.333602905273438,-1.04631042480469,0.0054931640625,-0.0178735393399578,0.693644274360948,-0.104329602019963
1492618031.7,40.4644883110749,-79.9300113369521,3.38000011444092,0.247665405273438,-0.978302001953125,0.0610809326171875,0.0171526216328734,0.709362517430705,-0.164785755609743
1492618031.9,40.4644883110749,-79.9300113369521,3.38000011444092,0.290481567382812,-0.969009399414062,0.0337677001953125,0.00136673427142867,0.712654450854152,-0.176684226727999
1492618032.1,40.4644883110749,-79.9300113369521,3.38000011444092,0.2747802734375,-0.941787719726562,0.069427490234375,-0.0704376813553968,0.668446775707164,-0.167709373854432
1492618032.3,40.4644859285231,-79.9299998416831,3.15000009536743,0.199554443359375,-1.01188659667969,0.117584228515625,-0.0275512004251967,0.607551999485848,-0.0668890192028662
1492618032.5,40.4644859285231,-79.9299998416831,3.15000009536743,0.0681610107421875,-0.975341796875,0.165573120117188,-0.0317520707286877,0.45014692852115,-0.0793203888552471
1492618032.7,40.4644859285231,-79.9299998416831,3.15000009536743,0.081329345703125,-0.870376586914062,0.225875854492188,-0.0523154027696256,0.334341499047927,-0.0408483637479624
1492618032.9,40.4644859285231,-79.9299998416831,3.15000009536743,0.080718994140625,-0.90924072265625,0.267578125,-0.00541527176056712,0.299993911520848,-0.0626700394039627
1492618033.1,40.4644859285231,-79.9299998416831,3.15000009536743,0.04730224609375,-0.929092407226562,0.32550048828125,-0.0289011567817579,0.161864267893926,-0.0561567463259559
1492618033.3,40.4645735677709,-79.9299511034786,3.16000008583069,0.07958984375,-0.999465942382812,0.376419067382812,0.00807363916068422,0.102066181409505,0.0104814031022249
1492618033.5,40.4645735677709,-79.9299511034786,3.16000008583069,-0.0579986572265625,-0.914077758789062,0.389938354492188,-0.0217841250846302,0.0533255397710926,-0.0131552168366644
1492618033.7,40.4645735677709,-79.9299511034786,3.16000008583069,-0.104721069335938,-0.995315551757812,0.44769287109375,-0.00617320740680367,-0.0584595817205474,0.0299416538196519
1492618033.9,40.4645735677709,-79.9299511034786,3.16000008583069,-0.030548095703125,-0.900390625,0.372421264648438,-0.016468455548832,0.00541953281831125,-0.0385663010098735
1492618034.1,40.4646105738734,-79.9299410451948,4.71000003814697,-0.034027099609375,-0.949996948242188,0.399322509765625,-0.0788580640900093,-0.026081668135691,-0.0103359945067065
1492618034.3,40.4646105738734,-79.9299410451948,4.71000003814697,0.06610107421875,-0.939407348632812,0.4281005859375,-0.0679548162711159,-0.11761850954335,0.0763751990057284
1492618036.1,40.4646592727308,-79.9299209286272,6.36999988555908,0.0153656005859375,-0.91339111328125,0.395401000976562,0.0161454141086054,-0.00223465847068549,-0.0136897132674433
1492618036.3,40.4647219693665,-79.9298905861377,7.96000003814697,-0.050079345703125,-0.9410400390625,0.374618530273438,-0.137416449086999,0.0285410974023792,-0.0590561298047251
1492618036.5,40.4647219693665,-79.9298905861377,7.96000003814697,-0.010223388671875,-1.01683044433594,0.362258911132812,-0.0450218034922256,0.0236877526318188,-0.0431706402185115
1492618036.7,40.4647219693665,-79.9298905861377,7.96000003814697,-0.17266845703125,-0.939315795898438,0.41326904296875,0.00275983383764911,0.0871948235663933,-0.0758979605383862
1492618036.9,40.4647219693665,-79.9298905861377,7.96000003814697,0.107284545898438,-0.9525146484375,0.321136474609375,-0.0772585695393077,-0.0771488473023964,0.000474308990143112
1492618037.1,40.4647219693665,-79.9298905861377,7.96000003814697,0.06915283203125,-0.9439697265625,0.349212646484375,-0.00887711486156112,-0.161612599170914,0.0930868011620846
1492618037.3,40.4647980351378,-79.9298474193364,9.80000019073486,0.118194580078125,-0.869338989257812,0.340072631835938,-0.0308910707482651,-0.0497856660501593,0.0509904801273111
1492618037.5,40.4647980351378,-79.9298474193364,9.80000019073486,0.040313720703125,-0.972549438476562,0.269439697265625,-0.0228941306269752,0.00439794422415685,-0.0364970248428819
1492618037.7,40.4647980351378,-79.9298474193364,9.80000019073486,0.0263824462890625,-0.887481689453125,0.282028198242188,0.0169864403808524,0.00308154369733069,0.00549703080603256
1492618037.9,40.4647980351378,-79.9298474193364,9.80000019073486,0.0400543212890625,-0.9630126953125,0.281875610351562,0.00460061078311188,-0.0553396885035195,0.0225804102505638
1492618038.1,40.4647980351378,-79.9298474193364,9.80000019073486,-0.08648681640625,-0.93194580078125,0.296356201171875,-0.0970162953504966,-0.0642476960337256,0.0503507888334741
1492618038.3,40.4648837820072,-79.9297977146506,10.8599996566772,0.0720672607421875,-0.965408325195312,0.266830444335938,-0.0121874240965296,-0.0573610277708897,0.00322189228677786
1492618038.5,40.4648837820072,-79.9297977146506,10.8599996566772,0.162506103515625,-0.963119506835938,0.1954345703125,-0.101673098832609,0.0857473955139353,-0.0716323754204063
1492618038.7,40.4648837820072,-79.9297977146506,10.8599996566772,0.009552001953125,-0.929595947265625,0.207550048828125,0.00819561193860985,-0.0468572541155082,-0.00192759599699935
1492618038.9,40.4648837820072,-79.9297977146506,10.8599996566772,0.069244384765625,-0.952590942382812,0.216354370117188,0.0505252258848743,-0.0524485608241295,0.0145134289926048
1492618039.1,40.4648837820072,-79.9297977146506,10.8599996566772,0.0557403564453125,-0.89544677734375,0.259490966796875,-0.0671561342602011,0.0440414938949674,-0.0487808553708724
1492618039.3,40.4649745161091,-79.9297422264516,11.3599996566772,0.0800323486328125,-0.912185668945312,0.2647705078125,-0.0512796994216937,0.045003161364595,-0.0411572904344116
1492618039.5,40.4649745161091,-79.9297422264516,11.3599996566772,0.0935211181640625,-0.988616943359375,0.268798828125,0.00555135929227017,0.036130840192996,0.00316223747836009
1492618039.7,40.4649745161091,-79.9297422264516,11.3599996566772,0.08172607421875,-0.994461059570312,0.267852783203125,-0.015394402681203,0.078815453512568,0.000705205056652982
1492618039.9,40.4649745161091,-79.9297422264516,11.3599996566772,0.0995941162109375,-0.979690551757812,0.194076538085938,-0.0589091233125527,-0.0187614372473902,0.0143722814548306
1492618040.1,40.4649745161091,-79.9297422264516,11.3599996566772,0.0902099609375,-1.0062255859375,0.167709350585938,-0.0308671022984544,-0.02319080677241,0.0637166617123638
1492618040.3,40.4650714947288,-79.9296841398626,11.8000001907349,0.0562896728515625,-0.963790893554688,0.2418212890625,-0.0732308047066719,0.0260049690962967,-0.00401551429162148
1492618040.5,40.4650714947288,-79.9296841398626,11.8000001907349,0.08941650390625,-0.985702514648438,0.230056762695312,0.0599538814081908,-0.00145754806460037,-0.0239053328928783
1492618040.7,40.4650714947288,-79.9296841398626,11.8000001907349,-0.0110321044921875,-0.929397583007812,0.26995849609375,-0.0101090931818318,-0.0850206188524527,0.0694198211867685
1492618040.9,40.4650714947288,-79.9296841398626,11.8000001907349,0.048614501953125,-0.985015869140625,0.163330078125,-0.00642247928483509,0.0436460144730906,-0.051356664777197
1492618041.1,40.4650714947288,-79.9296841398626,11.8000001907349,0.146484375,-0.958343505859375,0.160995483398438,-0.0442042130375712,0.124735008608259,-0.0476878940595039
1492618041.3,40.4651698563625,-79.9296266400068,12.039999961853,0.0801849365234375,-1.00845336914062,0.245391845703125,0.0487978996018489,0.00500381337214988,0.0164799071415193
1492618041.5,40.4651698563625,-79.9296266400068,12.039999961853,-0.014129638671875,-0.92169189453125,0.308425903320312,0.0105900600747001,0.00205942247095827,0.00543418020430669
1492618041.7,40.4651698563625,-79.9296266400068,12.039999961853,-0.0110015869140625,-0.940170288085938,0.183059692382812,-0.0332556914801465,-0.0231846815019028,0.00505041869122627
1492618041.9,40.4651698563625,-79.9296266400068,12.039999961853,-0.017333984375,-0.989059448242188,0.248779296875,0.00610156837348054,-0.0883202754430608,0.0504024541586216
1492618042.1,40.4651698563625,-79.9296266400068,12.039999961853,-0.0594024658203125,-0.927474975585938,0.246368408203125,-0.0166167936215494,-0.0488197375227876,0.0202139253059194
1492618042.3,40.4652707744767,-79.929568972513,12.3299999237061,-0.006011962890625,-1.00381469726562,0.206069946289062,-0.0584577175077843,0.0120808976529264,-0.00169590098216246
1492618042.5,40.4652707744767,-79.929568972513,12.3299999237061,-0.0016632080078125,-1.02162170410156,0.19610595703125,0.0152625762072441,-0.0437072671781624,0.0279906220050598
1492618042.7,40.4652707744767,-79.929568972513,12.3299999237061,-0.0240020751953125,-0.93792724609375,0.195449829101562,0.019055450231735,-0.0862789624675151,0.0388014581341275
1492618042.9,40.4652707744767,-79.929568972513,12.3299999237061,-0.024810791015625,-0.987991333007812,0.211959838867188,0.0439890296214928,-0.0311280920852822,0.0367819830795204
1492618043.1,40.4652707744767,-79.929568972513,12.3299999237061,0.0140838623046875,-1.07020568847656,0.209625244140625,0.0104830009988789,-0.114945494757237,0.0270593145718591
1492618043.3,40.4653750034426,-79.9295113050192,12.6800003051758,0.0143890380859375,-0.87030029296875,0.14935302734375,-0.0422928623232214,-0.0688637531511599,0.0178703435466497
1492618043.5,40.4653750034426,-79.9295113050192,12.6800003051758,-0.07415771484375,-1.00076293945312,0.177871704101562,0.0166663284178249,-0.103281381814908,0.0484168012498586
1492618043.7,40.4653750034426,-79.9295113050192,12.6800003051758,-0.0530242919921875,-0.905609130859375,0.175704956054688,-0.041070205066766,-0.113541209914438,0.0595805062233617
1492618043.9,40.4653750034426,-79.9295113050192,12.6800003051758,0.0042572021484375,-1.03767395019531,0.178939819335938,-0.0408334500458579,0.0396185159565638,-0.029308087796322
1492618044.1,40.4653750034426,-79.9295113050192,12.6800003051758,0.0676727294921875,-0.908096313476562,0.181716918945312,-0.0597802433051177,0.0844192770783128,-0.0210879747756834
1492618044.3,40.465502461048,-79.9295016225713,12.75,0.027557373046875,-0.95111083984375,0.20806884765625,-0.0456023726098628,0.0205068730258282,-0.00265224212960991
1492618044.5,40.465502461048,-79.9295016225713,12.75,0.0824737548828125,-0.907958984375,0.172744750976562,-0.0877162705078309,0.0197113868082215,-0.0382664290711306
1492618044.7,40.465502461048,-79.9295016225713,12.75,0.03167724609375,-1.08612060546875,0.180313110351562,0.0716233206727,0.0122966137012229,-0.0131592115782995
1492618044.9,40.465502461048,-79.9295016225713,12.75,0.03387451171875,-0.95538330078125,0.16998291015625,0.013812218677587,-0.023493341872243,-0.0104600978135042
1492618045.1,40.465502461048,-79.9295016225713,12.75,0.0533599853515625,-0.943328857421875,0.130966186523438,-0.0603213976386218,-0.0591730425765796,0.0176607527688605
1492618045.3,40.4656015468212,-79.929441481416,12.75,0.0381011962890625,-0.987869262695312,0.21295166015625,0.0244542103935436,-0.0203710518102341,-0.00822677092336377
1492618045.5,40.4656015468212,-79.929441481416,12.75,0.106063842773438,-1.10545349121094,0.161102294921875,-0.0623944022311394,0.0355065952334814,-0.0124588002116087
1492618045.7,40.4656015468212,-79.929441481416,12.75,-0.104446411132812,-0.943069458007812,0.1990966796875,0.0699332786449358,0.0825140516344701,-0.0069604378250311
1492618045.9,40.4656015468212,-79.929441481416,12.75,-0.032470703125,-1.03729248046875,0.232406616210938,0.0490604872853307,-0.134335438021886,0.0765501686893466
1492618046.1,40.4656015468212,-79.929441481416,12.75,0.056243896484375,-0.906234741210938,0.205093383789062,-0.0431245675316531,-0.0475848297253178,0.0124758444425852
1492618046.3,40.4657091050613,-79.9293758165332,12.7600002288818,-0.0663909912109375,-0.947921752929688,0.251312255859375,0.00100933805314003,0.0446617441128468,-0.0491507684462844
1492618046.5,40.4657091050613,-79.9293758165332,12.7600002288818,-0.012298583984375,-0.980758666992188,0.206863403320312,0.0750207152753141,-0.0536717507128029,0.0137011648601307
1492618046.7,40.4657091050613,-79.9293758165332,12.7600002288818,0.032745361328125,-1.01034545898438,0.158340454101562,-0.0163789733362053,-0.0828536046734552,0.0618865374112613
1492618046.9,40.4657091050613,-79.9293758165332,12.7600002288818,-0.068695068359375,-1.02923583984375,0.213241577148438,-0.0225053091078236,0.052262405863933,-0.0387489938606529
1492618047.1,40.4657091050613,-79.9293758165332,12.7600002288818,-0.0849151611328125,-1.03341674804688,0.246063232421875,0.065875420091982,0.017645572750647,-0.0569466399052734
1492618047.3,40.465812338234,-79.929312613669,12.7399997711182,0.0197296142578125,-0.953079223632812,0.197021484375,-0.0707932133609223,0.10150372178728,-0.0628271659082773
1492618047.5,40.465812338234,-79.929312613669,12.7399997711182,0.0381011962890625,-0.991836547851562,0.230453491210938,-0.000931041117091702,0.0659483907058502,-0.0513579963577421
1492618047.7,40.465812338234,-79.929312613669,12.7399997711182,0.00811767578125,-0.958251953125,0.185562133789062,-0.0825529337863852,-0.0420089693510189,0.0173888440215634
1492618047.9,40.465812338234,-79.929312613669,12.7399997711182,0.03753662109375,-0.995071411132812,0.250106811523438,-0.00382270142869974,-0.0212440360155621,0.0341345346398726
1492618048.1,40.465812338234,-79.929312613669,12.7399997711182,-0.00128173828125,-0.97100830078125,0.2364501953125,0.0471744366013366,0.029476133261106,-0.00705657794038296
1492618048.3,40.4659157547532,-79.9292492985538,12.8000001907349,-0.169281005859375,-0.787216186523438,0.220260620117188,0.0734433249616602,-0.0419535756003453,0.0573695498863779
1492618048.5,40.4659157547532,-79.9292492985538,12.8000001907349,-0.220245361328125,-0.804443359375,0.05877685546875,-0.058042530693841,-0.227247003184243,0.0703623138965475
1492618048.7,40.4659157547532,-79.9292492985538,12.8000001907349,-0.0034942626953125,-0.992111206054688,0.196640014648438,-0.0846845279228847,0.0175659442340536,-0.0275677120239552
1492618048.9,40.4659157547532,-79.9292492985538,12.8000001907349,0.10662841796875,-1.04348754882812,0.208892822265625,0.0031055121471414,0.0733714196122281,-0.0310777583406797
1492618049.1,40.4659157547532,-79.9292492985538,12.8000001907349,0.0188140869140625,-0.94122314453125,0.2744140625,-0.03996046584053,0.0374874544522824,-0.0164990819013679
1492618049.3,40.4660218624974,-79.9291843357791,12.789999961853,0.173431396484375,-0.914581298828125,0.186691284179688,0.022618759770261,-0.184152263056799,0.113725500661872
1492618049.5,40.4660218624974,-79.9291843357791,12.789999961853,0.1588134765625,-0.97296142578125,0.172698974609375,-0.00475853623575358,0.0766063613883473,-0.0770138250351294
1492618049.7,40.4660218624974,-79.9291843357791,12.789999961853,0.062774658203125,-0.924835205078125,0.202713012695312,-0.0378847980869222,-0.0880427740574746,-0.00335931139902595
1492618049.9,40.4660218624974,-79.9291843357791,12.789999961853,0.059906005859375,-0.9818115234375,0.196701049804688,0.0682461660943706,-0.0738356085902289,0.0307432653077657
1492618050.1,40.4660218624974,-79.9291843357791,12.789999961853,0.057952880859375,-0.904586791992188,0.1475830078125,-0.0291544234014244,-0.0689409848227722,0.0691833324819694
1492618050.3,40.4661228841969,-79.929122486854,12.6499996185303,0.0448455810546875,-0.963241577148438,0.170883178710938,-0.00838735953709555,0.044733116830061,0.0147256829314841
1492618050.5,40.4661228841969,-79.929122486854,12.6499996185303,0.0021209716796875,-0.952728271484375,0.16265869140625,-0.0832940915177543,-0.0164764450321022,0.00771943873570368
1492618050.7,40.4661228841969,-79.929122486854,12.6499996185303,0.0127716064453125,-1.04400634765625,0.202804565429688,-0.0780644420851657,0.0015630092437675,-0.0530477720693974
1492618050.9,40.4661228841969,-79.929122486854,12.6499996185303,-0.0109405517578125,-0.92510986328125,0.121856689453125,0.0128665301744998,0.0775611046391407,-0.0416507741844033
1492618051.1,40.4661228841969,-79.929122486854,12.6499996185303,0.124282836914062,-1.05491638183594,0.117172241210938,-0.0771136935760074,0.0813316081104749,-0.0788330303757626
1492618051.3,40.4662259562188,-79.9290593826519,12.5100002288818,0.0699005126953125,-1.02410888671875,0.26446533203125,0.0214349846657208,0.0179313299356125,-0.0776604405478007
1492618051.5,40.4662259562188,-79.9290593826519,12.5100002288818,-0.0618133544921875,-1.02243041992188,0.118804931640625,-0.0077202376840307,0.0574867289743414,-0.0268827469915869
1492618051.7,40.4662259562188,-79.9290593826519,12.5100002288818,-0.02117919921875,-0.9072265625,0.202285766601562,-0.158543838646815,-0.0127996848311388,-0.0165171913967804
1492618051.9,40.4662259562188,-79.9290593826519,12.5100002288818,-0.0057525634765625,-1.07717895507812,0.187255859375,0.0870874981744632,0.107932592658731,-0.00151933340189021
1492618052.1,40.4662259562188,-79.9290593826519,12.5100002288818,0.0828094482421875,-0.843902587890625,0.140533447265625,-0.0524211302649017,0.12584874257613,-0.0690991765915229
1492618052.3,40.4663294248284,-79.9289960356452,12.4099998474121,0.0198822021484375,-1.04681396484375,0.155532836914062,0.0112784872164856,0.0254507652734512,-0.0319366277922302
1492618052.5,40.4663294248284,-79.9289960356452,12.4099998474121,0.0493927001953125,-0.94219970703125,0.090240478515625,-0.0241266415794638,0.017173660605485,-0.0173507608179752
1492618052.7,40.4663294248284,-79.9289960356452,12.4099998474121,0.0345306396484375,-0.970291137695312,0.20416259765625,-0.0383657649797905,0.0534280714730607,-0.0463778851192939
1492618052.9,40.4663294248284,-79.9289960356452,12.4099998474121,0.102584838867188,-0.9952392578125,0.182479858398438,-0.0194762296839675,0.0341598346702284,-0.0365388364719962
1492618053.1,40.4663294248284,-79.9289960356452,12.4099998474121,0.02606201171875,-0.904327392578125,0.175918579101562,-0.0562648706662131,-0.0549418122366617,0.034750790116117
1492618053.3,40.4664287310383,-79.9289352370014,12.1899995803833,0.0301055908203125,-0.996231079101562,0.188186645507812,-0.0212147412435712,-0.000926780059347575,-0.00661209635444873
1492618053.5,40.4664287310383,-79.9289352370014,12.1899995803833,-0.014892578125,-0.936065673828125,0.214828491210938,-0.0402502177671306,0.0938623136715157,-0.0422366696242207
1492618053.7,40.4664287310383,-79.9289352370014,12.1899995803833,0.11370849609375,-1.01589965820312,0.179794311523438,0.00774207560496935,-0.00643659403861251,-0.0244270461504248
1492618053.9,40.4664287310383,-79.9289352370014,12.1899995803833,-0.0161895751953125,-0.971221923828125,0.14447021484375,0.0449938403007797,-0.0800692697537773,0.0145280763786003
1492618054.1,40.4664287310383,-79.9289352370014,12.1899995803833,-0.0006561279296875,-0.970748901367188,0.183303833007812,-0.0237476737563456,-0.0136713374559218,0.0157853547292267
1492618054.3,40.4665302317516,-79.9288730948078,11.9200000762939,-0.00439453125,-0.934326171875,0.153366088867188,-0.0814109703109593,-0.0239324971359971,0.0216187427809362
1492618054.5,40.4665302317516,-79.9288730948078,11.9200000762939,0.0715484619140625,-0.891098022460938,0.143157958984375,-0.0735823419705623,0.0143094308531048,0.0152029213988263
1492618054.7,40.4665302317516,-79.9288730948078,11.9200000762939,0.077789306640625,-0.893905639648438,0.157608032226562,-0.129896747433051,0.0880648782945222,-0.0314111861091576
1492618054.9,40.4665302317516,-79.9288730948078,11.9200000762939,0.033843994140625,-0.754989624023438,0.327590942382812,-0.0305914651256312,-0.0508549252278261,0.0286058122168681
1492618055.1,40.4665302317516,-79.9288730948078,11.9200000762939,0.0883331298828125,-0.922607421875,0.131439208984375,-0.0141190148351641,-0.084997449350969,0.051253067810793
1492618055.3,40.4666206166197,-79.9288177581133,11.6400003433228,0.00738525390625,-0.983200073242188,0.183380126953125,-0.0761653419118302,0.0196381498782443,-0.0264196232780221
1492618055.5,40.4666206166197,-79.9288177581133,11.6400003433228,0.0136566162109375,-1.01416015625,0.170989990234375,0.0340181545002362,0.00828988784119865,0.00885660852116751
1492618055.7,40.4666206166197,-79.9288177581133,11.6400003433228,0.065399169921875,-0.89190673828125,0.179107666015625,0.0115890117995888,-0.0724006973948942,0.0472189113915409
1492618055.9,40.4666206166197,-79.9288177581133,11.6400003433228,-0.0647735595703125,-1.05296325683594,0.159469604492188,0.006889864056144,-0.0457821359834432,0.0161818994155395
1492618056.1,40.4666206166197,-79.9288177581133,11.6400003433228,0.0071258544921875,-1.0509033203125,0.181793212890625,0.0107120328526257,-0.0415466445857812,0.0503289509125355
1492618056.3,40.4667141174235,-79.9287606117788,11.4099998474121,0.117965698242188,-0.944549560546875,0.116622924804688,0.0261447850535259,0.00833356368307595,-0.0381375320743707
1492618056.5,40.4667141174235,-79.9287606117788,11.4099998474121,0.123260498046875,-1.00114440917969,0.0228118896484375,-0.0114199010703688,0.0968652941166891,-0.046214100712254
1492618056.7,40.4667141174235,-79.9287606117788,11.4099998474121,0.106307983398438,-0.914093017578125,0.079193115234375,-0.0862800277319511,0.0399101320959275,-0.0542970609367535
1492618056.9,40.4667141174235,-79.9287606117788,11.4099998474121,0.012939453125,-0.897369384765625,0.057037353515625,-0.0578723547001849,-0.00493829960933393,0.0239431497803574
1492618057.1,40.4667141174235,-79.9287606117788,11.4099998474121,-0.00457763671875,-1.02239990234375,0.072296142578125,0.000652474467069413,0.0010519486305813,-0.0469094520728737
1492618057.3,40.4668066309082,-79.9287040876852,10.6599998474121,0.0271453857421875,-1.08648681640625,0.100570678710938,-0.0229953307483982,0.0182293376615924,-0.0216067585560309
1492618057.5,40.4668066309082,-79.9287040876852,10.6599998474121,0.024658203125,-0.924911499023438,-0.006011962890625,0.0746630527409165,-0.000487092163375493,-0.00883024322637573
1492618057.7,40.4668066309082,-79.9287040876852,10.6599998474121,0.0780029296875,-0.997756958007812,0.111709594726562,0.0103463808349578,-0.00112758240553955,0.0214331204529577
1492618057.9,40.4668066309082,-79.9287040876852,10.6599998474121,0.019622802734375,-0.998123168945312,0.119461059570312,0.042013230408763,0.0316354242729423,-0.0177771329084969
1492618058.1,40.4668066309082,-79.9287040876852,10.6599998474121,0.073486328125,-1.01811218261719,0.1424560546875,0.0279147219139926,0.0306662999522624,0.000206661300590149
1492618058.3,40.4668872976271,-79.9286548017547,9.53999996185303,-0.026641845703125,-1.00227355957031,0.1043701171875,-0.0335925813580415,-0.046582415891012,0.0168357054631539
1492618058.5,40.4668872976271,-79.9286548017547,9.53999996185303,-0.0399932861328125,-0.935287475585938,0.109573364257812,-0.0165283766733588,0.0149949285176912,-0.0289956990004557
1492618058.7,40.4668872976271,-79.9286548017547,9.53999996185303,-0.005706787109375,-0.984390258789062,0.122482299804688,-0.0405969613410589,0.00345704941103186,0.0113037872468413
1492618058.9,40.4668872976271,-79.9286548017547,9.53999996185303,0.03033447265625,-0.990890502929688,0.084869384765625,0.0639638030615231,0.0219231420935323,0.00699559155142014
1492618059.1,40.4668872976271,-79.9286548017547,9.53999996185303,0.0328216552734375,-0.995681762695312,0.118179321289062,-0.0555631277189772,-0.0219764053153339,0.00162026720720421
1492618059.3,40.4669609019961,-79.9286098307944,8.40999984741211,-0.01806640625,-1.00492858886719,0.101638793945312,-0.000590689129779575,0.0319126593424195,-0.0171478279429112
1492618059.5,40.4669609019961,-79.9286098307944,8.40999984741211,0.0701751708984375,-0.960189819335938,0.05072021484375,0.0114910074714739,-0.0256036307200218,0.00231615120004191
1492618059.7,40.4669609019961,-79.9286098307944,8.40999984741211,0.0357666015625,-1.01325988769531,0.0673065185546875,-0.0610412500812702,-0.0230027875994504,0.0122289694095349
1492618059.9,40.4669609019961,-79.9286098307944,8.40999984741211,0.0757293701171875,-0.955276489257812,0.0966949462890625,0.000904143190081901,0.0521103393656895,-0.037442713345969
1492618060.1,40.4669609019961,-79.9286098307944,8.40999984741211,0.0843048095703125,-1.04925537109375,0.109573364257812,-0.025039573201143,0.0139863894128781,-0.030146450907479
1492618060.3,40.4670225421464,-79.928572169759,7.17999982833862,0.0433197021484375,-0.995040893554688,0.014801025390625,-0.00188578436788511,0.0266047129737826,-0.00328660710126679
1492618060.5,40.4670225421464,-79.928572169759,7.17999982833862,-0.03497314453125,-0.953750610351562,0.114700317382812,0.00150761549309386,-0.0223425899652198,0.0331257292189506
1492618060.7,40.4670225421464,-79.928572169759,7.17999982833862,-0.022186279296875,-1.01373291015625,0.076416015625,-0.0163850986067125,-0.0296753377106439,0.0137696081001457
1492618060.9,40.4670225421464,-79.928572169759,7.17999982833862,0.07708740234375,-0.961883544921875,0.0569610595703125,-0.0138601555772084,0.00540941280616895,0.00410899124588326
1492618061.1,40.4670225421464,-79.928572169759,7.17999982833862,0.04547119140625,-0.968582153320312,0.0521240234375,-0.0402853714935196,-0.00186767487247257,-0.0142684181723175
1492618061.3,40.4670389197688,-79.928562163323,5.92999982833862,0.0551300048828125,-0.962066650390625,0.0348358154296875,0.00835273844292452,0.028670527031357,0.0277330943276492
1492618061.5,40.4670389197688,-79.928562163323,5.92999982833862,0.0626983642578125,-0.993804931640625,0.05511474609375,-0.00935621754166638,0.0106963202021943,-0.0107855360987119
1492618061.7,40.4670389197688,-79.928562163323,5.92999982833862,-0.0086212158203125,-1.02352905273438,0.050018310546875,0.0242291732814319,-0.00547359498843986,0.0162554026616257
1492618061.9,40.4670389197688,-79.928562163323,5.92999982833862,0.01806640625,-0.99981689453125,0.0757293701171875,-0.0242957523086839,-0.00729093611630993,-0.0183555714972621
1492618062.1,40.4670389197688,-79.928562163323,5.92999982833862,0.0498199462890625,-0.981842041015625,-0.001922607421875,-0.035660792260597,-0.042314433928051,0.0146710881291375
1492618062.3,40.4670411225877,-79.9285608174398,4.8899998664856,-0.0155181884765625,-1.03964233398438,0.115325927734375,-0.000645816564344215,-0.0372216709754925,0.0267447952471207
1492618062.5,40.4670411225877,-79.9285608174398,4.8899998664856,-0.0491180419921875,-0.974807739257812,0.10040283203125,-0.00800706013343224,-0.0307920011557142,0.0234541934042188
1492618062.7,40.4670411225877,-79.9285608174398,4.8899998664856,0.0394744873046875,-0.983535766601562,0.0544586181640625,-0.00666535957625032,-0.0329315847754838,0.00214917099969395
1492618062.9,40.4670411225877,-79.9285608174398,4.8899998664856,-0.0030517578125,-1.03016662597656,0.0753021240234375,-0.00330338501613429,-0.022317289934864,-0.00424108403595119
1492618063.1,40.4670411225877,-79.9285608174398,4.8899998664856,0.01702880859375,-1.00872802734375,0.0418701171875,-0.00659212264627314,0.0138748029632038,0.0222871962145461
1492618063.3,40.4670411225877,-79.9285608174398,3.09999990463257,0.01409912109375,-0.987197875976562,0.081787109375,0.00173797892738571,-0.0287296492075568,0.0128865038826754
1492618063.5,40.4670411225877,-79.9285608174398,3.09999990463257,0.034942626953125,-1.01203918457031,0.0507659912109375,-0.0256041633522398,0.00123091305583462,0.003999535325081
1492618063.7,40.4670411225877,-79.9285608174398,3.09999990463257,0.0224761962890625,-1.02630615234375,0.03863525390625,0.0171022878882709,-0.0107501160562139,-0.0104592988651772
1492618063.9,40.4670411225877,-79.9285608174398,3.09999990463257,0.0141754150390625,-1.00631713867188,0.0880279541015625,-0.013073724107308,-0.0296982408960186,0.00527385790668392
1492618064.1,40.4670411225877,-79.9285608174398,3.09999990463257,0.034088134765625,-0.98944091796875,0.0525054931640625,-0.00766750709444713,-0.0265429276364927,0.00105620968832543
1492618064.3,40.4670411225877,-79.9285608174398,1.88999998569489,0.016326904296875,-1.00332641601562,0.04736328125,-0.000763794600634725,0.0010652644360317,-0.0213348498087338
1492618064.5,40.4670411225877,-79.9285608174398,1.88999998569489,0.0092620849609375,-1.001953125,0.060028076171875,-0.0471065259935396,-0.0145840027614919,0.010217483838198
1492618064.7,40.4670411225877,-79.9285608174398,1.88999998569489,0.0245361328125,-1.01368713378906,0.072479248046875,-0.0125557392752876,0.00220669527923966,-0.0150612412288341
1492618064.9,40.4670411225877,-79.9285608174398,1.88999998569489,0.0326690673828125,-1.00283813476562,0.059814453125,-0.0155760302675464,-0.0286138017001384,0.0329670048179819
1492618065.1,40.4670411225877,-79.9285608174398,1.88999998569489,0.018096923828125,-0.99267578125,0.0776519775390625,-0.016233298424578,-0.00946567346246864,0.0137190080394342
1492618065.3,40.4670411225877,-79.9285608174398,0.699999988079071,0.0099639892578125,-0.979232788085938,0.0880126953125,-0.00856179658849574,-0.0116457371308075,-0.00325624706483988
1492618065.5,40.4670411225877,-79.9285608174398,0.699999988079071,0.008056640625,-0.993789672851562,0.130172729492188,-0.0285293794935828,0.00975728960183231,-0.0109794142260697
1492618065.7,40.4670411225877,-79.9285608174398,0.699999988079071,0.033966064453125,-0.965744018554688,0.185699462890625,-0.00442670636392971,-0.0106073706217856,0.00637933607517581
1492618065.9,40.4670411225877,-79.9285608174398,0.699999988079071,0.02923583984375,-0.959152221679688,0.232696533203125,-0.0117040603586802,0.00113983294655391,-0.000122771726252653
1492618066.1,40.4670411225877,-79.9285608174398,0.699999988079071,0.0202789306640625,-0.955764770507812,0.20904541015625,-0.0149661663779183,-0.00202959506674939,0.00305065102868577
1492618066.3,40.4670411225877,-79.9285608174398,0.0,0.01898193359375,-0.955474853515625,0.225326538085938,-0.0201553357619377,0.00225782797216918,-0.00447704010853221
1492618066.5,40.4670411225877,-79.9285608174398,0.0,0.0240325927734375,-0.967742919921875,0.221115112304688,-0.0159962770875609,-0.00521473573048416,-0.0012165319859482
1492618066.7,40.4670411225877,-79.9285608174398,0.0,0.01495361328125,-0.961334228515625,0.195236206054688,-0.0182096302695258,-0.010518421041377,0.00197313605163971
1492618066.9,40.4670411225877,-79.9285608174398,0.0,0.0238189697265625,-0.974258422851562,0.184295654296875,-0.0171222615964464,-0.00946194503694252,0.000915328466660234
1492618067.1,40.4670411225877,-79.9285608174398,0.0,0.0194549560546875,-0.9776611328125,0.176071166992188,-0.0170836457606403,-0.00627121173491859,-0.000158724400968723
1492618067.3,40.4670411225877,-79.9285608174398,0.230000004172325,0.01324462890625,-0.964019775390625,0.175430297851562,-0.0203444201993333,-0.00731304035335759,0.00407543541614826
1492618067.5,40.4670411225877,-79.9285608174398,0.230000004172325,0.0184783935546875,-0.957794189453125,0.211883544921875,-0.0138961082519245,-0.00522805153593455,0.000937432703707892
1492618067.7,40.4670411225877,-79.9285608174398,0.230000004172325,0.0196990966796875,-0.9677734375,0.212677001953125,-0.0182402566220617,-0.0126454878040232,0.00304452575817859
1492618067.9,40.4670411225877,-79.9285608174398,0.230000004172325,0.010345458984375,-0.965606689453125,0.222366333007812,-0.0150753559826115,-0.0126657278283078,0.005209409408304
1492618068.1,40.4670411225877,-79.9285608174398,0.230000004172325,0.005523681640625,-0.949676513671875,0.248825073242188,-0.0192743620733395,-0.0105114968225428,0.00196221709117038
1492618068.3,40.4671869633108,-79.9284729093626,0.280000001192093,0.0114898681640625,-0.9561767578125,0.248214721679688,-0.013007145080056,-0.0169337097912688,0.0073740267423204
1492618068.5,40.4671869633108,-79.9284729093626,0.280000001192093,0.018890380859375,-0.944931030273438,0.303298950195312,-0.00627653805709875,0.00323094703448413,-0.0064698835522385
1492618068.7,40.4671869633108,-79.9284729093626,0.280000001192093,0.022735595703125,-0.9398193359375,0.335708618164062,-0.0170823141800953,-0.00414361234005429,0.000902012661209838
1492618068.9,40.4671869633108,-79.9284729093626,0.280000001192093,0.0179290771484375,-0.937103271484375,0.344573974609375,-0.0137909133888663,-0.000974716958969001,-0.00440353686244602
1492618069.1,40.4671869633108,-79.9284729093626,0.280000001192093,0.0350799560546875,-0.935699462890625,0.374786376953125,-0.00891067069129612,-0.0190860765842709,0.0180836627499651
1492618069.3,40.4671907222988,-79.9284706437365,1.01999998092651,0.038177490234375,-0.9139404296875,0.382049560546875,-0.0142902560932562,-0.0264971212657434,0.018047710075249
1492618069.5,40.4671907222988,-79.9284706437365,1.01999998092651,0.02471923828125,-0.948013305664062,0.418136596679688,-0.00889202856366557,-0.012703544715787,0.020199810552142
1492618069.7,40.4671907222988,-79.9284706437365,1.01999998092651,-0.001434326171875,-0.970916748046875,0.427230834960938,0.000738494570278973,-0.0414896529384535,0.00118084562734113
1492618069.9,40.4671907222988,-79.9284706437365,1.01999998092651,-0.0774993896484375,-0.987762451171875,0.40948486328125,0.0783941414281175,-0.076023395425729,0.0660378729184768
1492618070.1,40.4671907222988,-79.9284706437365,1.01999998092651,-0.0904693603515625,-0.908187866210938,0.476425170898438,0.0281227147951277,-0.113991017822553,0.0613563020382266
1492618070.3,40.4672102507116,-79.9284588735256,2.92000007629395,0.017120361328125,-0.91070556640625,0.419082641601562,0.0564206655899827,0.0581304150098136,-0.0443533500586157
1492618070.5,40.4672102507116,-79.9284588735256,2.92000007629395,0.02337646484375,-0.921783447265625,0.466873168945312,-0.0265650318735404,0.00336357245677008,-0.0024130902637208
1492618070.7,40.4672102507116,-79.9284588735256,2.92000007629395,0.078338623046875,-0.923492431640625,0.45855712890625,0.00796578113653601,0.0233460690639616,-0.024501614660947
1492618070.9,40.4672102507116,-79.9284588735256,2.92000007629395,0.002197265625,-0.953414916992188,0.364395141601562,-0.0402334398522631,-0.000804807281421946,-0.0174692714864838
1492618071.1,40.4672102507116,-79.9284588735256,2.92000007629395,0.02508544921875,-0.932907104492188,0.362640380859375,-0.0396494086252087,-0.00824967410873846,0.013476127748019
1492618071.3,40.4672451054804,-79.9284378657773,5.05000019073486,0.0565643310546875,-0.873260498046875,0.41839599609375,-0.0294955743370636,0.0150814812531187,-0.0152679025294243
1492618071.5,40.4672451054804,-79.9284378657773,5.05000019073486,-0.0150299072265625,-0.940597534179688,0.451095581054688,0.0711820348800739,-0.0419373303176958,0.0669422824246678
1492618071.7,40.4672451054804,-79.9284378657773,5.05000019073486,0.0556488037109375,-0.880996704101562,0.452972412109375,-0.104151969175255,0.0496104300504321,0.0116001970761671
1492618071.9,40.4672451054804,-79.9284378657773,5.05000019073486,0.0115509033203125,-0.932830810546875,0.385574340820312,0.0119490711789675,-0.0192290883348081,-0.0275496025285427
1492618072.1,40.4672451054804,-79.9284378657773,5.05000019073486,0.0440521240234375,-0.742019653320312,0.303237915039062,-0.138186901590359,0.0189683648640894,-0.0856946649243517
1492618072.3,40.4672961741927,-79.928407235744,6.96999979019165,0.105667114257812,-1.04627990722656,0.383712768554688,0.059521117731053,0.00918843839299139,0.0133802539487761
1492618072.5,40.4672961741927,-79.928407235744,6.96999979019165,-0.239349365234375,-0.741546630859375,0.5006103515625,-0.0664069870455618,-0.248445765461274,0.202541923016014
1492618072.7,40.4672961741927,-79.928407235744,6.96999979019165,-0.0289459228515625,-0.909835815429688,0.197021484375,0.152413241817453,-0.0477882952325999,0.0421999180011776
1492618072.9,40.4672961741927,-79.928407235744,6.96999979019165,-0.05072021484375,-1.00372314453125,0.350936889648438,0.0423983235023885,-0.0523878407512757,0.0634759119498206
1492618073.1,40.4672961741927,-79.928407235744,6.96999979019165,0.0580902099609375,-0.893646240234375,0.390884399414062,-0.0572465118440163,0.0237732401028103,-0.00597853033111888
1492618073.3,40.4673658872999,-79.928365450467,8.6899995803833,0.051849365234375,-0.99066162109375,0.293838500976562,-0.0529471045801924,0.0811782100316863,-0.0551284998290763
1492618073.5,40.4673658872999,-79.928365450467,8.6899995803833,0.026947021484375,-0.937332153320312,0.295318603515625,-0.0802170751942767,-0.0398989468193491,0.00354653162365852
1492618073.7,40.4673658872999,-79.928365450467,8.6899995803833,-0.011932373046875,-0.97607421875,0.261795043945312,-0.0264364011928896,-0.0647102871150724,0.0286841091529164
1492618073.9,40.4673658872999,-79.928365450467,8.6899995803833,0.053375244140625,-1.01240539550781,0.245391845703125,-0.076058815468227,0.00261522419045781,-0.0434340268503203
1492618074.1,40.4673658872999,-79.928365450467,8.6899995803833,0.064849853515625,-0.954681396484375,0.239593505859375,-0.0347752911981457,-0.00828855626065361,-0.0312548585531699
1492618074.3,40.4674431919795,-79.9283191148842,9.73999977111816,0.0194091796875,-0.9134521484375,0.20458984375,0.0954724608665776,-0.0548587216106512,0.0746878201390542
1492618074.5,40.4674431919795,-79.9283191148842,9.73999977111816,0.162490844726562,-1.11701965332031,0.315460205078125,-0.0140313968353005,0.0171020215721618,-0.0545647086263065
1492618074.7,40.4674431919795,-79.9283191148842,9.73999977111816,0.0070343017578125,-0.91107177734375,0.1947021484375,0.0686184760147636,-0.16212632294519,0.0331073534074291
1492618074.9,40.4674431919795,-79.9283191148842,9.73999977111816,-0.0703125,-0.958648681640625,0.168746948242188,0.0582555835810473,-0.145028828746881,0.0990624020160044
1492618075.1,40.4674431919795,-79.9283191148842,9.73999977111816,-0.112152099609375,-0.9644775390625,0.114334106445312,-0.0158924138050479,0.00861292928142527,-0.00125115308011923
1492618075.3,40.4675220201062,-79.9282718661638,9.81999969482422,0.018890380859375,-0.975341796875,0.162673950195312,-0.0336045655829469,-0.0540288806149825,0.0136561574377083
1492618075.5,40.4675220201062,-79.9282718661638,9.81999969482422,0.058441162109375,-0.983200073242188,0.0720977783203125,0.0133933034381175,0.0371391129817,-0.0244816409527714
1492618075.7,40.4675220201062,-79.9282718661638,9.81999969482422,-0.0080413818359375,-1.01167297363281,0.0868072509765625,0.0334256011576935,-0.0725490354676116,0.00799294537965482
1492618075.9,40.4675220201062,-79.9282718661638,9.81999969482422,0.0164642333984375,-0.968338012695312,0.0850677490234375,-0.0223353994302766,0.00333640821365127,-0.00023728765312606
1492618076.1,40.4675220201062,-79.9282718661638,9.81999969482422,0.0493621826171875,-0.973388671875,0.0559539794921875,-0.0043928842180857,0.059591158867722,-0.0353838235072288
1492618076.3,40.4676007526177,-79.9282246747541,9.51000022888184,-0.01971435546875,-0.888137817382812,0.128631591796875,-0.0110976585784692,0.0500517158430582,-0.0951358373047916
1492618076.5,40.4676007526177,-79.9282246747541,9.51000022888184,0.121307373046875,-1.01307678222656,0.159423828125,-0.0506392091795297,0.0620125049308221,-0.078512119464408
1492618076.7,40.4676007526177,-79.9282246747541,9.51000022888184,-0.090850830078125,-1.11083984375,0.112060546875,0.121639350157151,-0.144383811130864,0.0591935489169732
1492618076.9,40.4676007526177,-79.9282246747541,9.51000022888184,-0.044464111328125,-0.947967529296875,0.0429229736328125,0.00974157695140085,0.0946016071901217,-0.0374618881058176
1492618077.1,40.4676007526177,-79.9282246747541,9.51000022888184,-0.1085205078125,-1.01690673828125,0.156402587890625,0.086476569020399,-0.139899580487388,0.0630868241145601
1492618077.3,40.4676756191205,-79.9281786301315,8.98999977111816,-0.041656494140625,-0.94158935546875,0.116744995117188,-0.0246885685694706,0.0203753128679782,0.0252837850731033
1492618077.5,40.4676756191205,-79.9281786301315,8.98999977111816,0.05584716796875,-0.985061645507812,0.133926391601562,-0.044836713796465,0.050279682432369,-0.0421711558614047
1492618077.7,40.4676756191205,-79.9281786301315,8.98999977111816,0.075927734375,-1.00312805175781,0.200897216796875,-0.0683793241488745,0.0366046165509211,-0.0413106885132001
1492618077.9,40.4676756191205,-79.9281786301315,8.98999977111816,0.0239410400390625,-0.887420654296875,0.17767333984375,-0.0194147106627867,-0.0987928901136884,0.0416385236433889
1492618078.1,40.4676756191205,-79.9281786301315,8.98999977111816,-0.04278564453125,-0.971908569335938,0.147003173828125,-0.0267999226816854,-0.0370445707630022,0.0701913389545644
1492618078.3,40.4677458258032,-79.9281345859997,8.57999992370605,0.024505615234375,-0.962020874023438,0.119705200195312,0.0147118344938157,-0.111793643607128,-0.0464742915507548
1492618078.5,40.4677458258032,-79.9281345859997,8.57999992370605,0.0319366455078125,-0.927886962890625,0.1036376953125,-0.0857838808208694,0.0207649333354568,-0.0233223669302599
1492618078.7,40.4677458258032,-79.9281345859997,8.57999992370605,0.0299224853515625,-0.947174072265625,0.0904388427734375,-0.0303784122384249,-0.0849007766033991,-0.00542299492772835
1492618078.9,40.4677458258032,-79.9281345859997,8.57999992370605,0.123275756835938,-0.968643188476562,0.1163330078125,0.0339025733089267,-0.161893030033699,0.0796647355841943
1492618079.1,40.4677458258032,-79.9281345859997,8.57999992370605,0.030487060546875,-0.6981201171875,0.133193969726562,-0.171673755453124,0.00534975799775117,-0.136114429630059
1492618079.3,40.4678141862529,-79.9280934810281,8.07999992370605,0.278564453125,-0.8751220703125,0.017059326171875,0.061069479588825,-0.0929283430772249,0.0776324773563548
1492618079.5,40.4678141862529,-79.9280934810281,8.07999992370605,0.056427001953125,-1.0908203125,0.28619384765625,0.125229557622687,0.0247218580830966,0.0449331202279259
1492618079.7,40.4678141862529,-79.9280934810281,8.07999992370605,0.269134521484375,-0.953475952148438,0.237457275390625,-0.000644484983799176,-0.0701998610700527,0.00870427570681498
1492618079.9,40.4678141862529,-79.9280934810281,8.07999992370605,0.10302734375,-1.00282287597656,0.248428344726562,-0.0310250277510961,-0.00192413388758225,0.00928324692779821
1492618080.1,40.4678141862529,-79.9280934810281,8.07999992370605,0.082855224609375,-1.00225830078125,0.123672485351562,0.0117280288084909,0.00205116667157903,0.000114782242982415
1492618080.3,40.4678767388542,-79.9280566744573,7.28000020980835,0.07568359375,-0.963882446289062,0.199417114257812,0.0125562719075056,0.0382057089982768,-0.0404861738397116
1492618080.5,40.4678767388542,-79.9280566744573,7.28000020980835,0.025115966796875,-1.01484680175781,0.154220581054688,-0.0163278406432758,-0.0201020725401361,0.0148117030346937
1492618080.7,40.4678767388542,-79.9280566744573,7.28000020980835,0.065155029296875,-0.943466186523438,0.037841796875,-0.0592281700111442,0.0142100949444448,-0.0219673505676276
1492618080.9,40.4678767388542,-79.9280566744573,7.28000020980835,0.0121307373046875,-0.993392944335938,0.004180908203125,-0.0388336823833174,-0.0316559306133359,0.0188759531742636
1492618081.1,40.4678767388542,-79.9280566744573,7.28000020980835,-0.0035247802734375,-1.01548767089844,-0.0236663818359375,-0.0144114299228548,-0.0328777889214642,0.0233940059635831
1492618081.3,40.4679334996977,-79.9280232758142,6.65999984741211,0.0395050048828125,-1.03260803222656,-0.0349578857421875,0.00202160558347915,-0.00852238180436257,0.00324133336273544
1492618081.5,40.4679334996977,-79.9280232758142,6.65999984741211,0.0534210205078125,-1.001953125,0.007049560546875,-0.0435168511602218,-0.00291003612312958,-0.012166385123918
1492618081.7,40.4679334996977,-79.9280232758142,6.65999984741211,0.02850341796875,-1.00953674316406,0.0274810791015625,-0.0298164852484181,-0.00618892005723514,-0.00348794207967678
1492618081.9,40.4679334996977,-79.9280232758142,6.65999984741211,0.052703857421875,-0.97833251953125,0.079498291015625,-0.0231058519336365,-0.00623632432463855,-0.0268758227727526
1492618082.1,40.4679334996977,-79.9280232758142,6.65999984741211,0.0701446533203125,-0.956832885742188,0.175125122070312,0.00928031745059912,-0.026652117241186,0.00762729336198694
1492618082.3,40.4679781366245,-79.9279970110039,4.59000015258789,0.0407257080078125,-0.9683837890625,0.21905517578125,-0.00551806977864418,-0.00634471498100478,0.010622018007781
1492618082.5,40.4679781366245,-79.9279970110039,4.59000015258789,0.009246826171875,-0.9886474609375,0.190582275390625,-0.00458649602933446,-0.0201787715795304,0.0127996848311388
1492618082.7,40.4679781366245,-79.9279970110039,4.59000015258789,0.056671142578125,-0.9967041015625,0.207717895507812,-0.0411690083432079,0.0183483809623189,-0.0164620639622158
1492618082.9,40.4679781366245,-79.9279970110039,4.59000015258789,0.113784790039062,-0.99176025390625,0.29376220703125,0.0295001017109167,0.0434156510387988,-0.0307302158184243
1492618083.1,40.4679781366245,-79.9279970110039,4.59000015258789,-0.0445709228515625,-0.915603637695312,0.368789672851562,-0.0114177705414967,0.00219843947986041,-0.0203806391901584
1492618083.3,40.4680144951994,-79.9279756172579,4.44999980926514,0.07763671875,-0.891159057617188,0.4456787109375,-0.0583751595139919,0.0269727618364315,0.00039894153129387
1492618083.5,40.4680144951994,-79.9279756172579,4.44999980926514,0.0229949951171875,-0.890762329101562,0.384429931640625,-0.0430100516047797,-0.0284382993843021,0.0145600343116812
1492618083.7,40.4680144951994,-79.9279756172579,4.44999980926514,0.01422119140625,-0.950241088867188,0.334747314453125,0.0114390758302174,-0.00326263865145607,0.018251175582531
1492618083.9,40.4680144951994,-79.9279756172579,4.44999980926514,0.058013916015625,-0.894943237304688,0.357620239257812,-0.00276808963702836,0.0138425787140139,-0.0235207724314708
1492618084.1,40.4680144951994,-79.9279756172579,4.44999980926514,0.0271148681640625,-0.954910278320312,0.432144165039062,-0.0449943729329977,0.0279549356464528,0.034652253155784
1492618084.3,40.4680597022691,-79.9279490169698,6.1100001335144,0.0537261962890625,-0.90582275390625,0.326553344726562,-0.0310157066872808,0.024670991706276,0.0230754918972096
1492618084.5,40.4680597022691,-79.9279490169698,6.1100001335144,0.0296630859375,-0.87664794921875,0.362762451171875,-0.00136833216808271,0.00639531504171628,0.0255586232975995
1492618084.7,40.4680597022691,-79.9279490169698,6.1100001335144,-0.0096588134765625,-0.945419311523438,0.365371704101562,0.0150095759036866,-0.0500855379889022,0.0429314883526224
1492618084.9,40.4680597022691,-79.9279490169698,6.1100001335144,-0.054107666015625,-0.938766479492188,0.350387573242188,-0.0247205265025515,-0.030687072608765,-0.000173904419182174
1492618085.1,40.4680597022691,-79.9279490169698,6.1100001335144,0.0511474609375,-0.946975708007812,0.263137817382812,-0.035491681531377,-0.0295517670360643,0.00930881327426297
1492618085.3,40.4681164982171,-79.9279155976709,7.6399998664856,-0.0050201416015625,-0.90692138671875,0.301300048828125,0.0232216994410549,-0.0427011249183305,-0.00818176350094144
1492618085.5,40.4681164982171,-79.9279155976709,7.6399998664856,0.01470947265625,-1.05360412597656,0.32427978515625,-0.0173233302587474,-0.0264792780864399,0.0062882559658951
1492618085.7,40.4681164982171,-79.9279155976709,7.6399998664856,-0.03326416015625,-0.943649291992188,0.2598876953125,-0.0226451250650528,0.0277972765099201,-0.0418859313086573
1492618085.9,40.4681164982171,-79.9279155976709,7.6399998664856,-0.125930786132812,-0.876663208007812,0.168746948242188,-0.0103035039414076,-0.161611533906478,0.0418939207919275
1492618086.1,40.4681164982171,-79.9279155976709,7.6399998664856,-0.0366973876953125,-0.988327026367188,0.320663452148438,0.0591549330811671,-0.0493145528533243,0.00819641088693687
1492618086.3,40.4681540614843,-79.927893495072,8.35000038146973,-0.009429931640625,-0.915878295898438,0.281234741210938,-0.0677801129036067,0.0461680280253957,-0.0797129387999247
1492618086.5,40.4681540614843,-79.927893495072,8.35000038146973,-0.124282836914062,-0.855682373046875,0.305374145507812,-0.0272382789971124,-0.01472142187374,-0.0407570173225727
1492618086.7,40.4681540614843,-79.927893495072,8.35000038146973,-0.0331268310546875,-1.040771484375,0.220367431640625,-0.0443951616877299,-0.0209913020281136,-0.0355854248017478
1492618086.9,40.4681540614843,-79.927893495072,8.35000038146973,0.022674560546875,-0.953964233398438,0.252532958984375,-0.00742036574528778,-0.0573855288529184,0.0437868956947558
1492618087.1,40.4681540614843,-79.927893495072,8.35000038146973,0.0180816650390625,-0.976058959960938,0.289794921875,-0.000812264132474168,-0.0574310689075588,0.027861458692191
1492618087.3,40.4682577782577,-79.927835261775,9.03999996185303,0.0434417724609375,-0.983627319335938,0.230026245117188,-0.0120835608140165,-0.0669372224185966,-0.00954689987571605
1492618087.5,40.4682577782577,-79.927835261775,9.03999996185303,0.0111541748046875,-0.93353271484375,0.23065185546875,0.000988032764419397,0.0574278731142507,-0.0406542193044956
1492618087.7,40.4682577782577,-79.927835261775,9.03999996185303,-0.0047149658203125,-1.1046142578125,0.265182495117188,-0.0513689153182114,0.0779829493558093,-0.0167203905879535
1492618087.9,40.4682577782577,-79.927835261775,9.03999996185303,0.159317016601562,-0.8804931640625,0.2635498046875,-0.0129514850132734,0.116016884463776,-0.0793318404479344
1492618088.1,40.4682577782577,-79.927835261775,9.03999996185303,0.11309814453125,-0.8934326171875,0.204177856445312,-0.0737543821769815,0.0993926339911743,-0.0809776740016034
1492618088.3,40.4683343253305,-79.92779236993,9.4399995803833,-0.051025390625,-1.01022338867188,0.191650390625,0.00546427392462458,-0.0606620159420429,0.0343313422444295
1492618088.5,40.4683343253305,-79.92779236993,9.4399995803833,-0.00482177734375,-0.987655639648438,0.195220947265625,-0.0808796696734884,0.0409503628177124,0.0182580998013652
1492618088.7,40.4683343253305,-79.92779236993,9.4399995803833,0.0858154296875,-0.975906372070312,0.279556274414062,-0.0550406155131037,0.103531452641266,-0.0456116936736781
1492618088.9,40.4683343253305,-79.92779236993,9.4399995803833,0.0650482177734375,-1.00018310546875,0.20465087890625,-0.0616425918554101,-0.00811092341594533,-0.0134047550308048
1492618089.1,40.4683343253305,-79.92779236993,9.4399995803833,0.162948608398438,-0.883270263671875,0.22308349609375,-0.0273107169787626,-0.00619717585661439,0.046649793866591
1492618089.3,40.4684148860626,-79.9277472290995,9.76000022888184,-0.03448486328125,-0.983856201171875,0.279434204101562,-0.0896686339029679,0.0335515686772543,-0.0436532050080338
1492618089.5,40.4684148860626,-79.9277472290995,9.76000022888184,0.159652709960938,-0.985763549804688,0.246383666992188,0.0495680857890998,0.0698698954109919,-0.081771296006447
1492618089.7,40.4684148860626,-79.9277472290995,9.76000022888184,-0.0096588134765625,-0.975357055664062,0.217254638671875,-0.0278990092635611,0.12036982126551,-0.0741650416170717
1492618089.9,40.4684148860626,-79.9277472290995,9.76000022888184,0.0551910400390625,-0.881256103515625,0.226715087890625,-0.0547061224801897,-0.0145328700685624,0.0208016849584999
1492618090.1,40.4684148860626,-79.9277472290995,9.76000022888184,0.0261383056640625,-0.971054077148438,0.136688232421875,0.052600094690155,-0.0343766159829608,0.0283488171716755
1492618090.3,40.4684965224953,-79.9277018655477,10.0500001907349,0.102523803710938,-0.89398193359375,0.261688232421875,-0.088492581965589,-0.00367835809761744,0.00550075923155867
1492618090.5,40.4684965224953,-79.9277018655477,10.0500001907349,0.00286865234375,-1.03886413574219,0.244735717773438,0.000611195470173185,0.0521156656878696,-0.0161214456587947
1492618090.7,40.4684965224953,-79.9277018655477,10.0500001907349,0.112548828125,-0.981857299804688,0.171127319335938,0.00520168624114277,0.0552733757923766,-0.0384730903717207
1492618090.9,40.4684965224953,-79.9277018655477,10.0500001907349,0.010406494140625,-0.944931030273438,0.269073486328125,-0.0452159479356923,-0.108196511922758,0.0541931976542404
1492618091.1,40.4684965224953,-79.9277018655477,10.0500001907349,0.0491485595703125,-0.859695434570312,0.235763549804688,0.0710339631234655,0.0814426619279312,-0.0101450458565479
1492618091.3,40.4685806155716,-79.9276563498229,10.210000038147,0.135452270507812,-0.96588134765625,0.23504638671875,-0.0700826819820892,0.132353779854758,-0.0202509432450715
1492618091.5,40.4685806155716,-79.9276563498229,10.210000038147,0.0975799560546875,-0.995880126953125,0.31793212890625,0.00554736455063505,0.0531519016680195,0.0127141973601473
1492618091.7,40.4685806155716,-79.9276563498229,10.210000038147,0.1353759765625,-1.00827026367188,0.244720458984375,0.0158822937929056,0.0849902588160257,-0.0245796452808863
1492618091.9,40.4685806155716,-79.9276563498229,10.210000038147,0.081298828125,-0.920516967773438,0.223251342773438,-0.0317901539322759,-0.00298646884641486,-0.0131123399431141
1492618092.1,40.4685806155716,-79.9276563498229,10.210000038147,0.0627288818359375,-0.986968994140625,0.223983764648438,-0.00798389063194855,0.0574915226643036,-0.00769360607312991
1492618092.3,40.4686679832357,-79.9276090617139,10.3199996948242,0.0377197265625,-0.981399536132812,0.275558471679688,-0.013981329406807,-0.000971254849551898,0.00945528713421733
1492618092.5,40.4686679832357,-79.9276090617139,10.3199996948242,-0.0070343017578125,-0.955596923828125,0.238143920898438,-0.0229785528335307,-0.0413319938019208,0.0222618961841904
1492618092.7,40.4686679832357,-79.9276090617139,10.3199996948242,-0.0107421875,-0.9600830078125,0.232437133789062,-0.0673385607948715,0.0217047628841458,-0.047658865603622
1492618092.9,40.4686679832357,-79.9276090617139,10.3199996948242,0.0676422119140625,-0.9544677734375,0.21728515625,-0.0396435496708105,0.0757789172376597,-0.0187270824693282
1492618093.1,40.4686679832357,-79.9276090617139,10.3199996948242,-1.52587890625e-05,-0.977706909179688,0.240264892578125,0.0140758716255048,0.0116076539272194,-0.0105479821294768
1492618093.3,40.4687547251889,-79.9275621122736,10.4899997711182,0.117691040039062,-0.930465698242188,0.222274780273438,-0.0721535560457348,0.0972607735385658,-0.0436382913059294
1492618093.5,40.4687547251889,-79.9275621122736,10.4899997711182,0.1309814453125,-0.94561767578125,0.222320556640625,-0.00128657312261728,0.0712739139376816,-0.0225876007855071
1492618093.7,40.4687547251889,-79.9275621122736,10.4899997711182,0.0982208251953125,-0.951385498046875,0.195693969726562,-0.0228408674051736,0.0309922708696881,-0.0259029700265467
1492618093.9,40.4687547251889,-79.9275621122736,10.4899997711182,0.0671234130859375,-0.935195922851562,0.218948364257812,0.0368381757785211,-0.0161917531115728,0.0228094421043107
1492618094.1,40.4687547251889,-79.9275621122736,10.4899997711182,0.037811279296875,-0.997787475585938,0.245529174804688,-0.0794753848306897,0.0451925121180996,-0.00412896495405885
1492618094.3,40.4688400885531,-79.9275211857171,10.5600004196167,0.104263305664062,-0.99676513671875,0.158233642578125,-0.0213601498390895,0.138410340805816,-0.0752108649771458
1492618094.5,40.4688400885531,-79.9275211857171,10.5600004196167,-0.0104522705078125,-1.00782775878906,0.229736328125,0.0341933904999634,-0.0555295718892422,0.0388770919090857
1492618094.7,40.4688400885531,-79.9275211857171,10.5600004196167,0.0937652587890625,-0.911209106445312,0.248855590820312,-0.0435735764914405,0.0513329626434953,-0.0560217240586888
1492618094.9,40.4688400885531,-79.9275211857171,10.5600004196167,-0.0359649658203125,-0.994537353515625,0.200180053710938,0.0720515569759848,-0.03344264538867,0.00828749099621758
1492618095.1,40.4688400885531,-79.9275211857171,10.5600004196167,-0.04290771484375,-1.05752563476562,0.234405517578125,-0.190850645830566,-0.0455634904579477,-0.00823369514219798
1492618095.3,40.4689289979941,-79.9274799026554,10.5600004196167,0.0564422607421875,-0.916122436523438,0.247344970703125,-0.0394616557683581,0.0225974544815404,0.0165970862294828
1492618095.5,40.4689289979941,-79.9274799026554,10.5600004196167,0.010040283203125,-0.900711059570312,0.246658325195312,-0.0417823343422532,0.0257937804218535,-0.0452753364280011
1492618095.7,40.4689289979941,-79.9274799026554,10.5600004196167,-0.00018310546875,-0.918777465820312,0.215545654296875,-0.153372512442099,-0.0617544446211934,0.0455025040689849
1492618095.9,40.4689289979941,-79.9274799026554,10.5600004196167,0.043365478515625,-0.994293212890625,0.231063842773438,-0.00981774335857711,0.0500533137397123,-0.0332823230910473
1492618096.1,40.4690204315523,-79.9274374475778,11.0,0.0020599365234375,-0.935256958007812,0.241668701171875,0.0128215227520775,-0.0851764137762223,0.0280726473666343
1492618096.3,40.4690204315523,-79.9274374475778,11.0,-0.112075805664062,-0.992080688476562,0.283355712890625,-0.00129855734752264,0.0287216597242866,-0.044868405413437
1492618096.5,40.4690204315523,-79.9274374475778,11.0,-0.0158843994140625,-0.959793090820312,0.220169067382812,0.0952093405508778,-0.037845383302789,0.0255953749206425
1492618096.7,40.4690204315523,-79.9274374475778,11.0,-0.122207641601562,-0.96990966796875,0.236846923828125,-0.0306633704750633,-0.0370240644226086,0.0413639517350017
1492618096.9,40.4690204315523,-79.9274374475778,11.0,0.0158538818359375,-1.03239440917969,0.195098876953125,-0.0543279536053984,-0.00709306324731704,-0.00267035162502245
1492618097.1,40.4690204315523,-79.9274374475778,11.0,0.0116424560546875,-0.932632446289062,0.209701538085938,0.0151272876238681,-0.00967526424025787,-0.0211444337907931
1492618097.3,40.4691183294171,-79.9273919909475,11.5100002288818,0.039215087890625,-0.9986572265625,0.195755004882812,-0.037842986457808,0.0183252114608352,-0.0260238775400363
1492618097.5,40.4691183294171,-79.9273919909475,11.5100002288818,0.010986328125,-0.937911987304688,0.23828125,-0.0210189989034504,-0.027525634078732,-0.0353292287048822
1492618097.7,40.4691183294171,-79.9273919909475,11.5100002288818,0.00531005859375,-0.968048095703125,0.222213745117188,0.00980762334643481,-0.0149597747913021,-0.0243839029407655
1492618097.9,40.4691183294171,-79.9273919909475,11.5100002288818,0.0311126708984375,-0.978729248046875,0.220260620117188,-0.0372602868112986,-0.0380549740805783,-0.0216075575043579
1492618098.1,40.4691183294171,-79.9273919909475,11.5100002288818,0.015716552734375,-1.00338745117188,0.235061645507812,-0.0636450226790407,0.0589083243642257,-0.0637102701257476
1492618098.3,40.4692169106395,-79.9273462170157,11.7600002288818,-0.0083160400390625,-0.856460571289062,0.217941284179688,0.00456199494730574,0.0116811571733056,0.0618569763231615
1492618098.5,40.4692169106395,-79.9273462170157,11.7600002288818,0.077178955078125,-0.959335327148438,0.187744140625,-0.0929997157944391,-0.0419309387310796,0.0801883130545039
1492618098.7,40.4692169106395,-79.9273462170157,11.7600002288818,-0.0053253173828125,-0.909942626953125,0.160842895507812,-0.0585661081641505,-0.0719458294807086,0.0379697529256957
1492618098.9,40.4692169106395,-79.9273462170157,11.7600002288818,-0.0297698974609375,-1.29168701171875,0.16192626953125,0.110381901913277,-0.10390349624555,-0.0295219396318554
1492618099.1,40.4692169106395,-79.9273462170157,11.7600002288818,-0.112442016601562,-1.02719116210938,0.13427734375,0.0159880212881817,0.0945502081810832,-0.10456928651807
1492618099.3,40.4693167554397,-79.9272998563706,11.75,0.13055419921875,-0.974044799804688,0.21173095703125,-0.056734385966394,-0.0166484852385213,0.0122566662848717
1492618099.5,40.4693167554397,-79.9272998563706,11.75,0.082000732421875,-0.960296630859375,0.178237915039062,-0.0682080828907824,0.01321007795512,0.0109959258248282
1492618099.7,40.4693167554397,-79.9272998563706,11.75,-0.021026611328125,-1.04449462890625,0.208999633789062,0.0975744939149772,-0.0708416828927618,-0.00948032084846407
1492618099.9,40.4693167554397,-79.9272998563706,11.75,0.0287628173828125,-0.996185302734375,0.20947265625,-0.0194820886383657,-0.0147629671867452,0.0147656303478353
1492618100.1,40.4693167554397,-79.9272998563706,11.75,0.066162109375,-0.9371337890625,0.201736450195312,-0.0132489601070352,0.0224192890046141,-0.0311137110153957
1492618100.3,40.4694200637167,-79.9272518875394,11.5500001907349,0.0232391357421875,-0.926055908203125,0.224151611328125,-0.00529223371820546,-0.0595269766854511,0.0427479965535159
1492618100.5,40.4694200637167,-79.9272518875394,11.5500001907349,0.0297698974609375,-0.949691772460938,0.165771484375,0.0213447035047671,-0.0533175502878224,0.045137118367426
1492618100.7,40.4694200637167,-79.9272518875394,11.5500001907349,0.0321044921875,-1.00639343261719,0.196578979492188,-0.0276896848018809,-0.0104579672846322,-0.00558757828309525
1492618100.9,40.4694200637167,-79.9272518875394,11.5500001907349,-0.025421142578125,-0.935089111328125,0.219268798828125,-0.035156123234027,-0.0316854917014358,-0.0162713816281661
1492618101.1,40.4694200637167,-79.9272518875394,11.5500001907349,0.0166015625,-0.95269775390625,0.185958862304688,-0.0145107658315147,8.97485287356703e-05,-0.028936576824256
1492618101.3,40.4695126802962,-79.9272088831529,11.4899997711182,0.0983123779296875,-0.951766967773438,0.17620849609375,-0.0411330556684918,0.0172839154746143,-0.0196575909542019
1492618101.5,40.4695126802962,-79.9272088831529,11.4899997711182,0.0513458251953125,-0.969314575195312,0.210159301757812,-0.0144561710291681,0.0171097447393231,-0.0236488704799036
1492618101.7,40.4695126802962,-79.9272088831529,11.4899997711182,0.054901123046875,-0.990631103515625,0.195297241210938,-0.00889069698312053,-0.0105759453209227,0.0212605476143206
1492618101.9,40.4695126802962,-79.9272088831529,11.4899997711182,0.0149993896484375,-0.955276489257812,0.233734130859375,0.0238004043459291,-0.0352525296654879,0.0312548585531699
1492618102.1,40.4695126802962,-79.9272088831529,11.4899997711182,0.044036865234375,-0.990798950195312,0.1937255859375,0.042752523927369,-0.024735173888547,0.0527460359178914
1492618102.3,40.4696122202298,-79.9271626640655,11.5600004196167,0.015380859375,-0.927139282226562,0.1610107421875,-0.0275791636166426,0.0023057648717906,-0.00668559960053492
1492618102.5,40.4696122202298,-79.9271626640655,11.5600004196167,0.15802001953125,-1.00114440917969,0.180328369140625,-0.0798690000398034,0.0994416361552317,-0.0234648460485792
1492618102.7,40.4696122202298,-79.9271626640655,11.5600004196167,0.055816650390625,-1.07754516601562,0.214385986328125,0.00883556954855589,-0.035154525337373,0.0353662466440343
1492618102.9,40.4696122202298,-79.9271626640655,11.5600004196167,-0.069915771484375,-0.986053466796875,0.225799560546875,0.0159784339082574,-0.0862603203398845,0.0302401941778498
1492618103.1,40.4696122202298,-79.9271626640655,11.5600004196167,0.0601043701171875,-0.972518920898438,0.185394287109375,-0.0437493451233857,0.0630380882666116,-0.0368618779122228
1492618103.3,40.4697103901772,-79.9271170810999,11.4300003051758,0.0637054443359375,-0.906661987304688,0.184768676757812,-0.0171302510797167,-0.0105256115763202,0.000917991627750313
1492618103.5,40.4697103901772,-79.9271170810999,11.4300003051758,0.0633544921875,-0.999420166015625,0.140335083007812,0.00309432687056307,0.00423629034598904,0.00961667469627613
1492618103.7,40.4697103901772,-79.9271170810999,11.4300003051758,0.0677490234375,-0.986648559570312,0.151687622070312,0.00964969789379311,0.0648165472425665,-0.0469818900545239
1492618103.9,40.4697103901772,-79.9271170810999,11.4300003051758,0.056976318359375,-1.00502014160156,0.156280517578125,-0.0525428367267183,0.0322479513236605,-0.0336738077712889
1492618104.1,40.4697103901772,-79.9271170810999,11.4300003051758,0.13507080078125,-0.961044311523438,0.144119262695312,-0.0428385440305786,0.102382564947006,-0.0817350770156219
1492618104.3,40.4697702302132,-79.9270892957504,11.1599998474121,-0.0526275634765625,-0.91064453125,0.2359619140625,0.0159565959873188,-0.137310455275613,0.0815499873198614
1492618104.5,40.4697702302132,-79.9270892957504,11.1599998474121,-0.149749755859375,-0.895523071289062,0.156753540039062,-0.046819703544138,0.0502908677089473,-0.0528536276259306
1492618104.7,40.4697702302132,-79.9270892957504,11.1599998474121,-0.0209197998046875,-0.90289306640625,0.196884155273438,-0.0484471612862855,0.0566784595835024,-0.08593940942853
1492618104.9,40.4697702302132,-79.9270892957504,11.1599998474121,0.0359649658203125,-0.909011840820312,0.218658447265625,-0.0777560480309345,-0.0133235286175574,-0.00609277994188328
1492618105.1,40.4697702302132,-79.9270892957504,11.1599998474121,-0.0159912109375,-0.993820190429688,0.185028076171875,-0.0818946003649176,0.0781773601153851,-0.0426225616661732
1492618105.3,40.4699029346317,-79.9270305939768,11.0,0.0331573486328125,-0.938583374023438,0.229812622070312,0.0206725216456311,0.0913357727453575,-0.0597320400893872
1492618105.5,40.4699029346317,-79.9270305939768,11.0,0.124740600585938,-0.970367431640625,0.213790893554688,0.0110739564447675,0.0892707576361101,-0.059824984411431
1492618105.7,40.4699029346317,-79.9270305939768,11.0,0.04754638671875,-0.938827514648438,0.178573608398438,0.00905048664852528,0.0318492761084756,-0.0213138108361222
1492618105.9,40.4699029346317,-79.9270305939768,11.0,0.1253662109375,-0.946990966796875,0.213851928710938,-0.0394544652334149,0.0853497855631865,-0.0272795579940087
1492618106.1,40.4699029346317,-79.9270305939768,11.0,0.048553466796875,-0.960769653320312,0.202987670898438,-0.04739095159796,0.00349353471796594,-0.0367454977725863
1492618106.3,40.4699966395979,-79.9269893005151,11.0799999237061,0.0245208740234375,-0.944900512695312,0.18682861328125,0.0438790410684726,-0.00347941996418852,-0.0176674106715857
1492618106.5,40.4699966395979,-79.9269893005151,11.0799999237061,-0.0117340087890625,-1.00534057617188,0.237945556640625,0.00959989678140863,-0.0309131749853128,-0.017947575218262
1492618106.7,40.4699966395979,-79.9269893005151,11.0799999237061,-0.012298583984375,-0.924667358398438,0.2308349609375,0.0123626600962568,-0.0298622916191675,0.0140644200328175
1492618106.9,40.4699966395979,-79.9269893005151,11.0799999237061,0.0868988037109375,-0.983779907226562,0.171539306640625,-0.0346714279156326,0.0289429684108722,-0.0185553085790181
1492618107.1,40.4699966395979,-79.9269893005151,11.0799999237061,0.0187225341796875,-0.948440551757812,0.20245361328125,0.0186178928646349,-0.032029039482056,0.0226637671926833
1492618107.3,40.4700980701628,-79.9269446025731,11.1700000762939,-0.020751953125,-1.00660705566406,0.21649169921875,0.0351689064072594,-0.0576624976062867,0.0442236541135288
1492618107.5,40.4700980701628,-79.9269446025731,11.1700000762939,-0.08197021484375,-0.997787475585938,0.223236083984375,0.0299363274974717,0.0221439181478999,0.00344799466332559
1492618107.7,40.4700980701628,-79.9269446025731,11.1700000762939,0.057952880859375,-0.907562255859375,0.199630737304688,-0.0541255533625524,0.0120518691970446,-0.00698254206207875
1492618107.9,40.4700980701628,-79.9269446025731,11.1700000762939,-0.04595947265625,-0.942611694335938,0.179824829101562,-0.068159347042834,-0.077202376840307,0.0357526713182048
1492618108.1,40.4700980701628,-79.9269446025731,11.1700000762939,0.019073486328125,-1.01107788085938,0.185821533203125,-0.0754734526606276,0.00899988658781378,-0.00506080501947758
1492618108.3,40.4701921589908,-79.9269031399531,11.25,0.0234375,-0.974411010742188,0.206268310546875,-0.00821691722733048,-0.010588195861937,-0.0277783680661805
1492618108.5,40.4701921589908,-79.9269031399531,11.25,0.0838623046875,-0.998123168945312,0.166366577148438,-0.00754233852321341,-0.00207753196637081,0.00525921052068848
1492618108.7,40.4701921589908,-79.9269031399531,11.25,-0.0333709716796875,-0.986495971679688,0.157073974609375,0.0092190647455273,-0.00750239110686222,0.0225042438433876
1492618108.9,40.4701921589908,-79.9269031399531,11.25,0.01031494140625,-0.946487426757812,0.186447143554688,-0.0319472804365905,0.00339925881537714,0.00179656847136745
1492618109.1,40.4701921589908,-79.9269031399531,11.25,0.0529327392578125,-0.971969604492188,0.163833618164062,-0.0101373226893866,0.0426124416540309,-0.0140745400449598
1492618109.3,40.4702869528235,-79.9268613666549,11.039999961853,0.068084716796875,-1.01095581054688,0.129867553710938,-0.0165249145639417,-0.0307366074050405,0.0233668417204642
1492618109.5,40.4702869528235,-79.9268613666549,11.039999961853,0.006195068359375,-0.954299926757812,0.0895538330078125,-0.00763022283918603,-0.0137778638995249,0.00528850529267935
1492618109.7,40.4702869528235,-79.9268613666549,11.039999961853,0.0129852294921875,-0.923583984375,0.139480590820312,0.0393950767411061,-0.000256196096865623,0.00040400153736502
1492618109.9,40.4702869528235,-79.9268613666549,11.039999961853,-0.0344390869140625,-1.00526428222656,0.151901245117188,-0.0218499051635551,-0.0679353751951583,0.00315025325345473
1492618110.1,40.4702869528235,-79.9268613666549,11.039999961853,0.0052642822265625,-1.02517700195312,0.1259765625,0.00336543666953313,-0.0234153112523037,0.0523393712194363
1492618110.3,40.4703774901535,-79.9268214690922,10.5100002288818,0.0029754638671875,-0.99432373046875,0.101348876953125,-0.0164250460230637,-0.0583975300671485,0.0010487528372732
1492618110.5,40.4703774901535,-79.9268214690922,10.5100002288818,0.099212646484375,-0.966766357421875,0.115631103515625,-0.0621054492528659,0.0759261900459411,-0.011493936948673
1492618110.7,40.4703774901535,-79.9268214690922,10.5100002288818,0.0632781982421875,-0.973907470703125,0.121597290039062,0.0291360475899029,-0.0395426158654965,0.0281219158468007
1492618110.9,40.4703774901535,-79.9268214690922,10.5100002288818,-0.0147247314453125,-0.977645874023438,0.154464721679688,-0.0483749896207443,-0.0358496103818836,0.0134580182526064
1492618111.1,40.4703774901535,-79.9268214690922,10.5100002288818,0.0411834716796875,-1.00334167480469,0.156753540039062,0.00180588953518273,-0.0255394485377509,0.00968032424632902
1492618111.3,40.4704590201289,-79.9267855408479,9.75,0.0283966064453125,-0.975662231445312,0.168777465820312,0.0279320324610781,-0.000184557063542491,-0.0178391845618958
1492618111.5,40.4704590201289,-79.9267855408479,9.75,0.0770721435546875,-0.97967529296875,0.112716674804688,-0.0464013209368866,-0.0507539914225121,0.0167153305818823
1492618111.7,40.4704590201289,-79.9267855408479,9.75,0.033203125,-0.988540649414062,0.140518188476562,-0.0049574743691825,0.0351337526808704,-0.00760492280883027
1492618111.9,40.4704590201289,-79.9267855408479,9.75,0.0038604736328125,-0.914276123046875,0.110366821289062,-0.0133147401859602,-0.0286300469827878,0.0233942722796921
1492618112.1,40.4704590201289,-79.9267855408479,9.75,-0.00567626953125,-1.08905029296875,0.0755157470703125,-0.0113770241768185,-0.0307680327059035,0.0362141971351155
1492618112.3,40.4705388973854,-79.9267503409161,9.19999980926514,-0.041259765625,-0.84722900390625,0.124893188476562,-0.0499885989252233,0.0322263797188308,-0.0645678079967531
1492618112.5,40.4705388973854,-79.9267503409161,9.19999980926514,0.0396728515625,-0.960891723632812,0.132247924804688,-0.107345631954478,0.0783416771546429,-0.050347060407948
1492618112.7,40.4705388973854,-79.9267503409161,9.19999980926514,0.084259033203125,-1.05419921875,0.085845947265625,0.024804948709107,0.0764170106348427,-0.0585850166078901
1492618112.9,40.4705388973854,-79.9267503409161,9.19999980926514,0.08038330078125,-0.934494018554688,0.203125,0.00954663355960705,0.00100214751819682,0.00329379763621
1492618113.1,40.4705388973854,-79.9267503409161,9.19999980926514,0.05499267578125,-0.972076416015625,0.179306030273438,-0.0601642711343071,-0.0538568404085634,0.00911892988854032
1492618113.3,40.4706134735379,-79.9267174770496,8.28999996185303,0.02978515625,-0.981536865234375,0.196746826171875,0.00687787983123864,-0.0532286007074137,0.0130023513900939
1492618113.5,40.4706134735379,-79.9267174770496,8.28999996185303,-0.0057525634765625,-0.976181030273438,0.214523315429688,0.0143563024882901,-0.0362565413964478,0.0204986172264489
1492618113.7,40.4706134735379,-79.9267174770496,8.28999996185303,-0.0200653076171875,-0.972732543945312,0.212646484375,-0.00670930173423662,-0.0563346454867732,-0.00738680991555278
1492618113.9,40.4706134735379,-79.9267174770496,8.28999996185303,0.0246124267578125,-0.931793212890625,0.256484985351562,-0.00778601776295566,-0.0403703263322932,0.00215689416685517
1492618114.1,40.4706134735379,-79.9267174770496,8.28999996185303,0.0338897705078125,-0.996063232421875,0.234573364257812,-0.026418558013586,-0.0200429503639363,-0.0258078951756309
1492618114.3,40.4706705965272,-79.9266923043607,8.17000007629395,-0.0271759033203125,-0.895858764648438,0.212600708007812,-0.00108337393144423,-0.0180775374794579,-0.00849415229680773
1492618114.5,40.4706705965272,-79.9266923043607,8.17000007629395,0.0373077392578125,-0.981842041015625,0.247802734375,-0.019122561891205,-0.025407622063792,-0.0171896395720255
1492618114.7,40.4706705965272,-79.9266923043607,8.17000007629395,-0.001861572265625,-0.989532470703125,0.2020263671875,-0.07743780028067,0.015393603732876,-0.0136271289818265
1492618114.9,40.4706705965272,-79.9266923043607,8.17000007629395,0.0512542724609375,-1.00247192382812,0.221435546875,-0.0258704794612477,-0.00301949204393184,0.0210672021191808
1492618115.1,40.4706705965272,-79.9266923043607,8.17000007629395,0.0660858154296875,-1.02679443359375,0.264999389648438,-0.0613656231020418,0.0716699259917764,0.00984890234333104
1492618115.3,40.4707556326086,-79.9266552259574,8.30000019073486,-0.0100250244140625,-0.973587036132812,0.195877075195312,-0.0253626146413696,0.0639789830797366,-0.05693412304815
1492618115.5,40.4707556326086,-79.9266552259574,8.30000019073486,0.102127075195312,-0.994232177734375,0.0343780517578125,-0.0305994546089014,-0.0285147321075874,0.0413426464462811
1492618115.7,40.4707556326086,-79.9266552259574,8.30000019073486,-0.008392333984375,-0.971115112304688,-0.102569580078125,-0.00921107526225706,0.020267987476048,-0.0161398214703162
1492618115.9,40.4707556326086,-79.9266552259574,8.30000019073486,0.066162109375,-1.0386962890625,-0.09271240234375,-0.0407767247146393,-0.0146244828100611,0.0145472511384488
1492618116.1,40.4707556326086,-79.9266552259574,8.30000019073486,0.0524444580078125,-1.01504516601562,-0.0989990234375,-0.0153017246752683,-0.0232997300609942,0.015896674862792
1492618116.3,40.4708221606422,-79.9266262206683,7.19000005722046,0.0089263916015625,-0.993728637695312,-0.0922393798828125,-0.0280745115793973,-0.028535771080199,0.0125807729895343
1492618116.5,40.4708221606422,-79.9266262206683,7.19000005722046,0.054443359375,-1.01130676269531,-0.060394287109375,0.00168871044721924,-0.0255373180088788,0.0182088313211988
1492618116.7,40.4708221606422,-79.9266262206683,7.19000005722046,0.0263671875,-1.02178955078125,0.027496337890625,-0.00273666433616543,-0.0340170892358001,0.0256489044585531
1492618116.9,40.4708221606422,-79.9266262206683,7.19000005722046,0.0308837890625,-0.996185302734375,0.0107269287109375,-0.025911758458144,-0.0338692837953007,0.00728560979412977
1492618117.1,40.4708221606422,-79.9266262206683,7.19000005722046,0.027496337890625,-1.03443908691406,-0.0121612548828125,-0.0190613091861331,0.00225037112111696,-0.00659824791678032
1492618117.3,40.4708698484039,-79.9266054294734,4.80999994277954,0.002044677734375,-0.9947509765625,0.011016845703125,-0.0250840479913473,-0.0381271457461194,0.0222320687799815
1492618117.5,40.4708698484039,-79.9266054294734,4.80999994277954,0.0347900390625,-0.988632202148438,0.0651092529296875,-0.0157272978174629,0.00329086815901091,-0.0161627246556909
1492618117.7,40.4708698484039,-79.9266054294734,4.80999994277954,0.0124969482421875,-0.9990234375,0.082550048828125,0.000703873476107943,-0.0148937283962681,0.0181712807498287
1492618117.9,40.4708698484039,-79.9266054294734,4.80999994277954,0.0355377197265625,-0.995346069335938,0.08233642578125,-0.00304638997094164,0.013847638720085,-0.00326556812865516
1492618118.1,40.4708698484039,-79.9266054294734,4.80999994277954,0.03509521484375,-0.990585327148438,0.0187530517578125,-0.0108656972475233,-0.0212030233347749,0.00420832715454321
1492618118.3,40.4708980378748,-79.9265931392596,3.0,0.0182037353515625,-1.0030517578125,0.0406341552734375,-0.0213971677782416,0.000140348589447176,0.00724406448112454
1492618118.5,40.4708980378748,-79.9265931392596,3.0,0.0357513427734375,-1.00595092773438,0.0479736328125,0.00825553306313663,-0.0213268603254635,0.00760305859606722
1492618118.7,40.4708980378748,-79.9265931392596,3.0,0.0197296142578125,-1.00584411621094,0.029510498046875,-0.0149248873810221,-0.00628559280480502,-0.00226901324874751
1492618118.9,40.4708980378748,-79.9265931392596,3.0,0.0283203125,-1.01138305664062,0.02679443359375,-0.0107844708342759,-0.0201406883759423,-0.00112465292834046
1492618119.1,40.4708980378748,-79.9265931392596,3.0,0.03070068359375,-1.0068359375,0.017059326171875,-0.0266502530284229,-0.00408156068665544,-0.000262321367372805
1492618119.3,40.470915602709,-79.9265854812384,1.32000005245209,0.02508544921875,-1.00106811523438,0.046875,-0.0136883816868983,0.0107253486580761,-0.00549889501879561
1492618119.5,40.470915602709,-79.9265854812384,1.32000005245209,0.0305938720703125,-0.996139526367188,0.060638427734375,-0.0213186045260843,-0.00305251524144882,-0.00021038972611626
1492618119.7,40.470915602709,-79.9265854812384,1.32000005245209,0.022247314453125,-0.985641479492188,0.0978851318359375,-0.0212280570490216,0.00120108565162574,-0.00448529590791145
1492618119.9,40.470915602709,-79.9265854812384,1.32000005245209,0.0304718017578125,-0.990097045898438,0.135726928710938,-0.0161334298837,-0.0137227364649603,0.00413509022456603
1492618120.1,40.470915602709,-79.9265854812384,1.32000005245209,0.036865234375,-0.958694458007812,0.231231689453125,-0.00322482176397695,-0.00210629410614367,0.0010386328251309
1492618120.3,40.4709160443234,-79.9265852887007,0.0,0.029693603515625,-0.972412109375,0.200607299804688,-0.0138042291943167,0.00115314875200431,-0.00227673641590874
1492618120.5,40.4709160443234,-79.9265852887007,0.0,0.0307769775390625,-0.953994750976562,0.201126098632812,-0.0213585519424355,-0.00837084793833706,-0.000197073920665864
1492618120.7,40.4709160443234,-79.9265852887007,0.0,0.0277099609375,-0.962997436523438,0.2073974609375,-0.0160189139568266,-0.0062781359537528,-0.000147805440499398
1492618120.9,40.4709160443234,-79.9265852887007,0.0,0.0287017822265625,-0.971450805664062,0.203659057617188,-0.0170769878579151,-0.00733514459040525,-0.00122212462423736
1492618121.1,40.4709160443234,-79.9265852887007,0.0,0.03271484375,-0.962936401367188,0.20751953125,-0.0192277567542631,-0.00625709698114117,0.000885501062451347
1492618121.3,40.4709241433749,-79.926581757628,0.150000005960464,0.0268707275390625,-0.968215942382812,0.203323364257812,-0.0181563670477242,-0.00732795405546203,-0.000166980200347968
1492618121.5,40.4709241433749,-79.926581757628,0.150000005960464,0.0323028564453125,-0.964462280273438,0.202529907226562,-0.018148377564454,-0.00626428751608438,-0.000169643361438047
1492618121.7,40.4709241433749,-79.926581757628,0.150000005960464,0.0252838134765625,-0.9700927734375,0.208572387695312,-0.0181257406951883,-0.00520088729281574,-0.00123836990688685
1492618121.9,40.4709241433749,-79.926581757628,0.150000005960464,0.0323638916015625,-0.965728759765625,0.2020263671875,-0.0149608400557381,-0.00522112731710035,0.000926513743238567
1492618122.1,40.4709241433749,-79.926581757628,0.150000005960464,0.0268707275390625,-0.9659423828125,0.204498291015625,-0.0202631937860859,-0.00625070539452498,-0.00125754466673542
1492618122.3,40.4709247954631,-79.9265814733266,0.0,0.0319366455078125,-0.962158203125,0.20703125,-0.0160109244735564,-0.00521446941437515,-0.000150468601589477
1492618122.5,40.4709247954631,-79.9265814733266,0.0,0.0269622802734375,-0.971572875976562,0.20166015625,-0.0192357462375333,-0.00732076352051882,0.000888164223541426
1492618122.7,40.4709247954631,-79.9265814733266,0.0,0.03082275390625,-0.96630859375,0.203903198242188,-0.0138974398324695,-0.00735565093079886,-0.000123304358470669
1492618122.9,40.4709247954631,-79.9265814733266,0.0,0.0255584716796875,-0.96417236328125,0.207061767578125,-0.0138827924464741,-0.00735591724690786,-0.00118936774282939
1492618123.1,40.4709247954631,-79.9265814733266,0.0,0.0316314697265625,-0.97015380859375,0.200469970703125,-0.0159882876042907,-0.00415106919110651,-0.00121919514703828
1492618123.3,40.4709237624949,-79.9265819236863,0.0,0.0279541015625,-0.963546752929688,0.206497192382812,-0.0138734713826588,-0.00416465131266591,-0.000131293841740906
1492618123.5,40.4709237624949,-79.9265819236863,0.0,0.0299072265625,-0.970977783203125,0.2015380859375,-0.013881460865929,-0.00522831785204356,-0.000128630680650827
1492618123.7,40.4709237624949,-79.9265819236863,0.0,0.0260772705078125,-0.9661865234375,0.200958251953125,-0.0191984619822722,-0.00625762961335919,-0.00124662570626609
1492618123.9,40.4709237624949,-79.9265819236863,0.0,0.02984619140625,-0.966751098632812,0.202377319335938,-0.0202938201386218,-0.00837777215717127,-0.000186154960196539
1492618124.1,40.4709237624949,-79.9265819236863,0.0,0.026702880859375,-0.964950561523438,0.202011108398438,-0.0160042665708312,-0.0062784022698618,-0.00121386882485812
1492618124.3,40.470923773758,-79.9265819187757,0.0,0.0286102294921875,-0.962814331054688,0.205276489257812,-0.0191984619822722,-0.00625762961335919,-0.00124662570626609
1492618124.5,40.470923773758,-79.9265819187757,0.0,0.02886962890625,-0.969741821289062,0.205734252929688,-0.0160189139568266,-0.0062781359537528,-0.000147805440499398
1492618124.7,40.470923773758,-79.9265819187757,0.0,0.0274658203125,-0.96484375,0.204177856445312,-0.0202844990748065,-0.00518650622292932,0.000871918940891943
1492618124.9,40.470923773758,-79.9265819187757,0.0,0.0293121337890625,-0.9710693359375,0.204437255859375,-0.0160189139568266,-0.0062781359537528,-0.000147805440499398
1492618125.1,40.470923773758,-79.9265819187757,0.0,0.02679443359375,-0.968475341796875,0.203338623046875,-0.0160109244735564,-0.00521446941437515,-0.000150468601589477
1492618125.3,40.4709237850185,-79.9265819138663,0.0,0.0291595458984375,-0.969482421875,0.201324462890625,-0.0192277567542631,-0.00625709698114117,0.000885501062451347
1492618125.5,40.4709237850185,-79.9265819138663,0.0,0.0273895263671875,-0.967742919921875,0.20166015625,-0.0192277567542631,-0.00625709698114117,0.000885501062451347
1492618125.7,40.4709237850185,-79.9265819138663,0.0,0.029571533203125,-0.967666625976562,0.201614379882812,-0.018148377564454,-0.00626428751608438,-0.000169643361438047
1492618125.9,40.4709237850185,-79.9265819138663,0.0,0.0285491943359375,-0.966583251953125,0.202239990234375,-0.0160109244735564,-0.00521446941437515,-0.000150468601589477
1492618126.1,40.4709237850185,-79.9265819138663,0.0,0.028564453125,-0.967376708984375,0.204208374023438,-0.0138827924464741,-0.00735591724690786,-0.00118936774282939
1492618126.3,40.4709237962721,-79.9265819089599,0.0,0.0283355712890625,-0.966018676757812,0.20587158203125,-0.0170543509886494,-0.00627174436713661,-0.00229085116968616
1492618126.5,40.4709237962721,-79.9265819089599,0.0,0.02923583984375,-0.967391967773438,0.20172119140625,-0.0181710144337196,-0.00732768773935302,0.000899083184010751
1492618126.7,40.4709237962721,-79.9265819089599,0.0,0.0286865234375,-0.963455200195312,0.203353881835938,-0.0160122560541014,-0.00734206880923945,-0.00121120566376804
1492618126.9,40.4709237962721,-79.9265819089599,0.0,0.02850341796875,-0.969039916992188,0.200149536132812,-0.0192290883348081,-0.00838469637600547,-0.000175235999727214
1492618127.1,40.4709237962721,-79.9265819089599,0.0,0.02899169921875,-0.964675903320312,0.209686279296875,-0.0192051198849974,-0.00519369675787253,-0.000183225482997452
1492618127.3,40.4709238075264,-79.9265819040532,0.0,0.0294342041015625,-0.965866088867188,0.202804565429688,-0.0138894503491993,-0.00629198439142121,-0.000125967519560748
1492618127.5,40.4709238075264,-79.9265819040532,0.0,0.0280914306640625,-0.967117309570312,0.203094482421875,-0.0170836457606403,-0.00627121173491859,-0.000158724400968723
1492618127.7,40.4709238075264,-79.9265819040532,0.0,0.030303955078125,-0.967483520507812,0.204055786132812,-0.0170689983746449,-0.0062714780510276,-0.00122478778532744
1492618127.9,40.4709238075264,-79.9265819040532,0.0,0.0274658203125,-0.964447021484375,0.203887939453125,-0.020300478041347,-0.00731383930168461,0.000877245263072101
1492618128.1,40.4709238075264,-79.9265819040532,0.0,0.0284576416015625,-0.969696044921875,0.206512451171875,-0.0160335613428221,-0.00627786963764379,0.000918257943859321
1492618128.3,40.4709238187804,-79.9265818991466,0.0,0.02996826171875,-0.966110229492188,0.203033447265625,-0.0192650410095242,-0.0073202308883008,0.00302029099225886
1492618128.5,40.4709238187804,-79.9265818991466,0.0,0.0280303955078125,-0.96392822265625,0.206268310546875,-0.0181563670477242,-0.00732795405546203,-0.000166980200347968
1492618128.7,40.4709238187804,-79.9265818991466,0.0,0.02740478515625,-0.966934204101562,0.204910278320312,-0.0170756562773701,-0.00520754519554094,-0.000161387562058802
1492618128.9,40.4709238187804,-79.9265818991466,0.0,0.0294952392578125,-0.969024658203125,0.202072143554688,-0.0149461926697427,-0.00522139363320935,-0.000139549641120152
1492618129.1,40.4709238187804,-79.9265818991466,0.0,0.028228759765625,-0.965301513671875,0.202865600585938,-0.0192517252040738,-0.00944809659927411,0.000893490545721584
1492618129.3,40.4709238300416,-79.9265818942369,0.0,0.02716064453125,-0.966354370117188,0.202239990234375,-0.0149395347670175,-0.00628532648869601,-0.00120294986438879
1492618129.5,40.4709238300416,-79.9265818942369,0.0,0.019683837890625,-0.95941162109375,0.21893310546875,-0.0117906130941078,-0.00843289959173591,0.000967260107916779
1492618129.7,40.4709238300416,-79.9265818942369,0.0,0.0330963134765625,-0.964859008789062,0.252288818359375,-0.00834608054019933,0.00537132960258082,-0.00969523794843347
1492618129.9,40.4709238300416,-79.9265818942369,0.0,0.040069580078125,-0.956100463867188,0.24114990234375,-0.0224765469680508,-0.0115543907054178,0.00193212337085249
1492618130.1,40.4709238300416,-79.9265818942369,0.0,0.0204620361328125,-0.960861206054688,0.246673583984375,-0.0160948140478939,-0.0105320031629364,0.00306103735693708
1492618130.3,40.4709238353624,-79.9265818919171,0.0,0.03009033203125,-0.96502685546875,0.234588623046875,-0.0127474868737733,8.25579937924564e-05,-0.00226315429434934
1492618130.5,40.4709238353624,-79.9265818919171,0.0,0.0234832763671875,-0.962249755859375,0.2442626953125,-0.019190472499002,-0.00519396307398154,-0.00124928886735617
1492618130.7,40.4709238353624,-79.9265818919171,0.0,0.0239105224609375,-0.95361328125,0.2391357421875,-0.0233189048208428,0.00440566739131808,-0.00558118669647906
1492618130.9,40.4709238353624,-79.9265818919171,0.0,0.02923583984375,-0.9586181640625,0.238571166992188,-0.0149768190222786,-0.00734846039585564,0.000931840065418725
1492618131.1,40.4709238353624,-79.9265818919171,0.0,0.0223236083984375,-0.95672607421875,0.238250732421875,-0.0246126684784033,-0.0104766094122627,0.00297368567318248
1492618131.3,40.4709335862529,-79.9265776406656,0.560000002384186,0.035614013671875,-0.951751708984375,0.288818359375,-0.0116814234894146,0.00220323316982255,-0.00119149827170145
1492618131.5,40.4709335862529,-79.9265776406656,0.560000002384186,0.039886474609375,-0.933456420898438,0.291656494140625,-0.0235812261882156,-0.0168657991834718,0.00193452021583356
1492618131.7,40.4709335862529,-79.9265776406656,0.560000002384186,0.0370025634765625,-0.947494506835938,0.302108764648438,-0.0213838519727912,-0.0136894469513343,-0.00124982149957419
1492618131.9,40.4709335862529,-79.9265776406656,0.560000002384186,0.0272979736328125,-0.942428588867188,0.289535522460938,-0.0180884564399272,-0.00413775338565611,-0.00337315983669436
1492618132.1,40.4709335862529,-79.9265776406656,0.560000002384186,0.0290069580078125,-0.941619873046875,0.321090698242188,-0.0160042665708312,-0.0062784022698618,-0.00121386882485812
1492618132.3,40.4709403996437,-79.9265746701228,1.21000003814697,0.0296630859375,-0.937393188476562,0.337554931640625,-0.0159962770875609,-0.00521473573048416,-0.0012165319859482
1492618132.5,40.4709403996437,-79.9265746701228,1.21000003814697,0.0310211181640625,-0.94842529296875,0.323699951171875,-0.00230656382011763,-0.013812484993696,0.00534310009502598
1492618132.7,40.4709403996437,-79.9265746701228,1.21000003814697,0.02490234375,-0.93853759765625,0.318572998046875,-0.0170330456999288,-0.00733594353873227,-0.00442031477731352
1492618132.9,40.4709403996437,-79.9265746701228,1.21000003814697,0.0337677001953125,-0.943756103515625,0.314224243164062,-0.0182389250415167,-0.0105178884091589,0.00410526282035715
1492618133.1,40.4709403996437,-79.9265746701228,1.21000003814697,0.0210113525390625,-0.948196411132812,0.32391357421875,-0.0180977775037425,-0.00732901931989806,-0.00443123373778284
1492618133.3,40.4709562593518,-79.9265677555127,2.32999992370605,0.0243072509765625,-0.944595336914062,0.343582153320312,-0.0107178918070239,-0.00737615727119247,0.000975515907296025
1492618133.5,40.4709562593518,-79.9265677555127,2.32999992370605,0.02203369140625,-0.933853149414062,0.328170776367188,-0.00262614315092714,-0.0329552869091855,0.018183797606952
1492618133.7,40.4709562593518,-79.9265677555127,2.32999992370605,-0.00421142578125,-0.924301147460938,0.346817016601562,-0.0101991080266765,-0.0371598856382026,0.0245143978341794
1492618133.9,40.4709562593518,-79.9265677555127,2.32999992370605,0.02349853515625,-0.948348999023438,0.330963134765625,-0.0148583083537701,0.00647893829994477,-0.000168844413111024
1492618134.1,40.4709562593518,-79.9265677555127,2.32999992370605,0.027740478515625,-0.950271606445312,0.312973022460938,-0.0159376875435792,-0.00521580099492019,-0.00548078552338307
1492618134.3,40.4709857219131,-79.9265549102494,3.49000000953674,0.023529052734375,-0.925155639648438,0.318572998046875,-0.0298551010842243,-0.00937965335925908,-0.00241388921204782
1492618134.5,40.4709857219131,-79.9265549102494,3.49000000953674,0.05377197265625,-0.953414916992188,0.271438598632812,-0.0124398917678691,0.0234808250151196,-0.0119163142975596
1492618134.7,40.4709857219131,-79.9265549102494,3.49000000953674,0.031036376953125,-0.93701171875,0.258819580078125,-0.0371111497902542,0.00130335103748478,-0.0110454606211036
1492618134.9,40.4709857219131,-79.9265549102494,3.49000000953674,-0.0060882568359375,-0.952560424804688,0.195770263671875,-0.0259570321966753,-0.035996084241838,0.00942306288502737
1492618135.1,40.4709857219131,-79.9265549102494,3.49000000953674,0.0561370849609375,-0.99078369140625,0.182235717773438,-0.0301254119348673,-0.0200128566436185,0.0114715663955163
1492618135.3,40.4710166544897,-79.9265414240801,4.40000009536743,0.01043701171875,-0.997177124023438,0.183456420898438,-0.0126143288192693,0.0139096903734839,-0.0044299021572378
1492618135.5,40.4710166544897,-79.9265414240801,4.40000009536743,0.02496337890625,-1.001220703125,0.130157470703125,-0.0202618622055409,-0.00412310599966068,-0.000196807604556856
1492618135.7,40.4710166544897,-79.9265414240801,4.40000009536743,0.0265655517578125,-0.977218627929688,0.111434936523438,-0.00976767593008362,-0.0265296118310423,-0.00109775500133066
1492618135.9,40.4710166544897,-79.9265414240801,4.40000009536743,0.0073394775390625,-0.96600341796875,0.0989227294921875,-0.0278774376587314,-0.0179012362152946,0.00402563430376378
1492618136.1,40.4710166544897,-79.9265414240801,4.40000009536743,0.04888916015625,-0.999862670898438,0.082244873046875,-0.0392033291426204,0.014082263212121,-0.00683500293768837
1492618136.3,40.4710515757397,-79.9265261989051,3.95000004768372,0.028839111328125,-0.986358642578125,0.11553955078125,1.7310547085515e-05,0.0042549324736196,0.0010554107399984
1492618136.5,40.4710515757397,-79.9265261989051,3.95000004768372,0.0300445556640625,-0.99542236328125,0.13739013671875,-0.00126846362720474,-0.00956367779058355,0.00960761994856986
1492618136.7,40.4710515757397,-79.9265261989051,3.95000004768372,0.0306396484375,-0.956878662109375,0.195816040039062,0.00207753196637081,-0.0127786458585272,-0.00314439429905656
1492618136.9,40.4710515757397,-79.9265261989051,3.95000004768372,0.047393798828125,-0.971923828125,0.211654663085938,-0.0244315735242779,0.00973252220369458,0.000790958843753534
1492618137.1,40.4710515757397,-79.9265261989051,3.95000004768372,0.02081298828125,-0.96832275390625,0.1405029296875,-0.0289155378516443,-0.022150043418407,-0.000238885549780108
1492618137.3,40.4710817594336,-79.9265130321546,3.1800000667572,0.0295562744140625,-0.975540161132812,0.114349365234375,-0.0319006751175142,-0.00404827117302945,-0.00564723309151302
1492618137.5,40.4710817594336,-79.9265130321546,3.1800000667572,0.028839111328125,-0.99078369140625,0.10809326171875,-0.0300428539410749,-0.0285248521197297,0.000832237840649762
1492618137.7,40.4710817594336,-79.9265130321546,3.1800000667572,0.0341339111328125,-0.997222900390625,0.11041259765625,-0.0106846022933979,-0.0126958215486257,-0.00434148520904717
1492618137.9,40.4710817594336,-79.9265130321546,3.1800000667572,0.036468505859375,-0.984344482421875,0.0802764892578125,-0.0256560949934964,0.000168045464784,0.00720038863924724
1492618138.1,40.4710817594336,-79.9265130321546,3.1800000667572,0.0295867919921875,-1.00376892089844,0.077484130859375,-0.0192410725597135,-0.00412923127016786,0.00301230150898863
1492618138.3,40.4711058077458,-79.9265024027666,2.41000008583069,0.0229339599609375,-1.00393676757812,0.0564117431640625,-0.0171528879489824,-0.0115890117995888,0.00198671817319911
1492618138.5,40.4711058077458,-79.9265024027666,2.41000008583069,0.023529052734375,-0.997879028320312,0.0481719970703125,-0.0160189139568266,-0.0062781359537528,-0.000147805440499398
1492618138.7,40.4711058077458,-79.9265024027666,2.41000008583069,0.027862548828125,-0.999267578125,0.0576629638671875,-0.0169824456392173,-0.00840067534254595,-0.00868190515365832
1492618138.9,40.4711058077458,-79.9265024027666,2.41000008583069,0.0161895751953125,-1.01420593261719,0.0502166748046875,-0.0193023252647853,-0.00838336479546043,0.00515508092206638
1492618139.1,40.4711058077458,-79.9265024027666,2.41000008583069,0.02734375,-0.999038696289062,0.0428924560546875,-0.022316757302646,-0.001982989747673,-0.00448822538511054
1492618139.3,40.4711200668124,-79.926496100239,1.0,0.023284912109375,-1.001220703125,0.046356201171875,-0.0150833454658818,-0.0137293943676855,0.00521207256939408
1492618139.5,40.4711200668124,-79.926496100239,1.0,0.0181427001953125,-0.990127563476562,0.17364501953125,-0.0160588613731778,-0.011596468650641,-0.000134489635049002
1492618139.7,40.4711200668124,-79.926496100239,1.0,0.0235443115234375,-0.947174072265625,0.250595092773438,-0.00530768005252792,0.00216195417292633,-5.99211245267829e-05
1492618139.9,40.4711200668124,-79.926496100239,1.0,0.0240478515625,-0.978515625,0.194015502929688,-0.0224618995820553,-0.0115546570215268,0.000866059986493768
1492618140.1,40.4711200668124,-79.926496100239,1.0,0.0363006591796875,-0.959426879882812,0.217666625976562,-0.017006414089028,0.00011025486912928,-0.00230683013622664
1492618140.3,40.4711195807568,-79.9264963150762,0.0,0.02630615234375,-0.967208862304688,0.19775390625,-0.0170370404415639,-0.00201681189351701,-0.00123544042968776
1492618140.5,40.4711195807568,-79.9264963150762,0.0,0.02862548828125,-0.964096069335938,0.212570190429688,-0.0192210988515379,-0.00732102983662783,-0.000177899160817293
1492618140.7,40.4711195807568,-79.9264963150762,0.0,0.022491455078125,-0.96624755859375,0.212295532226562,-0.0170836457606403,-0.00627121173491859,-0.000158724400968723
1492618140.9,40.4711195807568,-79.9264963150762,0.0,0.027587890625,-0.965316772460938,0.199630737304688,-0.019258383106799,-0.00838416374378746,0.00195689076899022
1492618141.1,40.4711195807568,-79.9264963150762,0.0,0.0025177001953125,-0.976669311523438,0.215499877929688,0.0136564237538173,-0.0149800148155867,0.00550954766315593
1492618141.3,40.4711196004371,-79.9264963063775,0.0,0.0591583251953125,-0.963821411132812,0.24749755859375,-0.011022823751838,-0.026519225502791,0.0127501500348634
1492618141.5,40.4711196004371,-79.9264963063775,0.0,0.01031494140625,-0.9615478515625,0.245773315429688,-0.0182935198438633,-0.0158359547899382,0.00518464201016626
1492618141.7,40.4711196004371,-79.9264963063775,0.0,0.0264129638671875,-0.95770263671875,0.24755859375,-0.0170636720524647,-0.00946301030137856,-0.00334892507077464
1492618141.9,40.4711196004371,-79.9264963063775,0.0,0.020721435546875,-0.961669921875,0.236923217773438,-0.0148476557094098,9.58737992428526e-05,-0.00441711898400542
1492618142.1,40.4711196004371,-79.9264963063775,0.0,0.028167724609375,-0.961807250976562,0.244903564453125,-0.0224299416489744,-0.0072999908640162,0.000855407342133451
1492618142.3,40.4711246998545,-79.9264940524278,0.159999996423721,0.0328521728515625,-0.957687377929688,0.228408813476562,-0.0117519972583017,-0.00524216628971197,-0.000106792759712177
1492618142.5,40.4711246998545,-79.9264940524278,0.159999996423721,0.0266876220703125,-0.962615966796875,0.254898071289062,-0.0138921135102893,-0.0105471831811498,-0.00224744164391787
1492618142.7,40.4711246998545,-79.9264940524278,0.159999996423721,0.03143310546875,-0.959136962890625,0.250946044921875,-0.0215636153463716,-0.0200690493426191,0.00836072792619476
1492618142.9,40.4711246998545,-79.9264940524278,0.159999996423721,0.022247314453125,-0.945419311523438,0.297622680664062,-0.00864035984065308,-0.0084528732999115,0.00419820714240091
1492618143.1,40.4711246998545,-79.9264940524278,0.159999996423721,0.018707275390625,-0.938934326171875,0.29962158203125,-0.0181949828835304,-0.010518687357486,0.000907072667280989
1492618143.3,40.4711292944356,-79.9264920216165,0.490000009536743,0.0331878662109375,-0.935958862304688,0.302291870117188,-0.0151525876542238,-0.0190471944323557,0.00735751514356191
1492618143.5,40.4711292944356,-79.9264920216165,0.490000009536743,0.021820068359375,-0.946502685546875,0.3206787109375,-0.0128353711897459,-0.0116177739393617,-0.00223385952235847
1492618143.7,40.4711292944356,-79.9264920216165,0.490000009536743,0.02362060546875,-0.93890380859375,0.337982177734375,-0.0159270348992189,0.000103064334186067,-0.00336197456011603
1492618143.9,40.4711292944356,-79.9264920216165,0.490000009536743,0.0272369384765625,-0.921905517578125,0.358352661132812,-0.0096291915533995,-0.00419208187189373,0.000978445384495112
1492618144.1,40.4711292944356,-79.9264920216165,0.490000009536743,0.0189208984375,-0.9339599609375,0.360488891601562,-0.0182708829745976,-0.0147725545666695,0.00411591546471746
1492618144.3,40.4711419633992,-79.9264864219167,1.54999995231628,0.025970458984375,-0.923675537109375,0.355880737304688,-0.026822026918733,-0.0210994263683708,0.00297847936314462
1492618144.5,40.4711419633992,-79.9264864219167,1.54999995231628,-6.103515625e-05,-0.925277709960938,0.36553955078125,-0.0182482461053319,-0.0137091543434009,0.00304718891926866
1492618144.7,40.4711419633992,-79.9264864219167,1.54999995231628,-0.00634765625,-0.948760986328125,0.358963012695312,-0.00566587521914358,-0.0201715810445872,0.0138548292550282
1492618144.9,40.4711419633992,-79.9264864219167,1.54999995231628,0.024017333984375,-0.948883056640625,0.345443725585938,-0.00898736973069041,0.0266467909190058,-0.0289485610491613
1492618145.1,40.4711419633992,-79.9264864219167,1.54999995231628,0.00396728515625,-0.916824340820312,0.351806640625,-0.00862571245465764,-0.00845313961602051,0.00313214375804219
1492618145.3,40.4711619792137,-79.9264775748984,3.04999995231628,0.027191162109375,-0.966018676757812,0.345474243164062,-0.0308971960187723,0.00339260091265194,0.0028735508161955
1492618145.5,40.4711619792137,-79.9264775748984,3.04999995231628,0.0404205322265625,-0.9439697265625,0.315628051757812,-0.0212453675961071,0.00864808300781431,0.000826378886251588
1492618145.7,40.4711619792137,-79.9264775748984,3.04999995231628,0.008026123046875,-0.977676391601562,0.328948974609375,-0.0770915893389597,0.0653864637158435,-0.0116201707843427
1492618145.9,40.4711619792137,-79.9264775748984,3.04999995231628,-0.0590057373046875,-0.959976196289062,0.3795166015625,0.0439450874635065,-0.0662330826263797,0.0208789166301122
1492618146.1,40.4711619792137,-79.9264775748984,3.04999995231628,0.037384033203125,-0.9412841796875,0.334793090820312,-0.0280239115186858,-0.0296005028840127,0.00831918261318952
1492618146.3,40.4711972000822,-79.9264620072247,4.34999990463257,0.071624755859375,-0.946731567382812,0.252304077148438,-0.0212147412435712,-0.000926780059347575,-0.00661209635444873
1492618146.5,40.4711972000822,-79.9264620072247,4.34999990463257,0.03350830078125,-0.973968505859375,0.24517822265625,-0.033843717448836,0.00128124680043712,-0.0163430206614893
1492618146.7,40.4711972000822,-79.9264620072247,4.34999990463257,0.0151824951171875,-0.983108520507812,0.214324951171875,-0.0267248215389452,-0.0062078285009747,0.00400725849224223
1492618146.9,40.4711972000822,-79.9264620072247,4.34999990463257,0.0648040771484375,-0.915695190429688,0.256820678710938,0.027930168248315,-0.0544264905657314,0.0302804079103099
1492618147.1,40.4711972000822,-79.9264620072247,4.34999990463257,0.0606842041015625,-0.952667236328125,0.227035522460938,-0.0183347988407595,-0.0232818868816907,0.0041372207534381
1492618147.3,40.4712330288038,-79.9264461708791,4.96000003814697,0.0101165771484375,-0.968887329101562,0.245834350585938,-0.015493472273754,-0.0254238673464414,0.0286947617972768
1492618147.5,40.4712330288038,-79.9264461708791,4.96000003814697,0.0136566162109375,-0.923233032226562,0.263214111328125,-0.0274878171912529,-0.0551292987774033,0.0329134752800713
1492618147.7,40.4712330288038,-79.9264461708791,4.96000003814697,-0.0117645263671875,-0.926040649414062,0.330612182617188,-0.0434108573488366,-0.0720472959182407,0.0199995408381681
1492618147.9,40.4712330288038,-79.9264461708791,4.96000003814697,-0.015899658203125,-0.942520141601562,0.348602294921875,-0.0373934448658026,-0.0518821064602697,-0.0194408096414694
1492618148.1,40.4712330288038,-79.9264461708791,4.96000003814697,-0.031524658203125,-0.92578125,0.297317504882812,-0.0302239488952003,-0.048733983735687,0.00301496467007871
1492618148.3,40.4712816885146,-79.9264246632182,5.65999984741211,-0.081146240234375,-0.947891235351562,0.323822021484375,-0.0076563218178688,0.0308902717999381,-0.0460053088827918
1492618148.5,40.4712816885146,-79.9264246632182,5.65999984741211,0.0664215087890625,-0.949935913085938,0.30450439453125,-0.0659209601466224,0.0238190464735597,-0.0721727308055834
1492618148.7,40.4712816885146,-79.9264246632182,5.65999984741211,-0.0381317138671875,-0.983612060546875,0.359664916992188,0.0386115747484048,-0.168311780893008,0.0434782353244156
1492618148.9,40.4712816885146,-79.9264246632182,5.65999984741211,0.106613159179688,-0.870742797851562,0.32647705078125,-0.0813830071195134,-0.0143586993332712,0.0247929644842017
1492618149.1,40.4712816885146,-79.9264246632182,5.65999984741211,0.010162353515625,-0.97705078125,0.283615112304688,-0.050482348991324,-0.0868866958282712,0.0615477833206033
1492618149.3,40.471335091422,-79.9264010590576,6.92999982833862,-0.08343505859375,-0.9532470703125,0.305618286132812,0.0105362642206805,-0.0883511681117057,0.0376533693881943
1492618149.5,40.471335091422,-79.9264010590576,6.92999982833862,0.0321502685546875,-0.966278076171875,0.246994018554688,-0.0367167356328134,-0.102932507712108,0.0585314870699795
1492618149.7,40.471335091422,-79.9264010590576,6.92999982833862,-0.014739990234375,-1.04107666015625,0.216537475585938,-0.0399769774392884,-0.0401580723934138,0.0199524028868737
1492618149.9,40.471335091422,-79.9264010590576,6.92999982833862,0.103759765625,-0.981658935546875,0.180618286132812,0.0708251712940033,-0.0738451959701532,0.0755506843322399
1492618150.1,40.471335091422,-79.9264010590576,6.92999982833862,0.0121612548828125,-0.963821411132812,0.241470336914062,0.00673140597128428,-0.0298220778867073,0.0363971563020039
1492618150.3,40.4713904041172,-79.9263766107682,7.25,0.101165771484375,-0.995101928710938,0.217926025390625,-0.0044834316951484,0.0553375579746475,-0.0311089173254336
1492618150.5,40.4713904041172,-79.9263766107682,7.25,0.03778076171875,-0.925674438476562,0.289474487304688,-0.0198970091362,0.0171464963623662,-0.0151749582073805
1492618150.7,40.4713904041172,-79.9263766107682,7.25,0.007720947265625,-0.96636962890625,0.324996948242188,-0.00810240130045707,0.0670679836281195,0.00614124947372272
1492618150.9,40.4713904041172,-79.9263766107682,7.25,-0.0042724609375,-0.934860229492188,0.351211547851562,-0.0468468677872569,0.00243226502356937,0.000580302801528266
1492618151.1,40.4713904041172,-79.9263766107682,7.25,0.122955322265625,-0.932342529296875,0.341354370117188,0.021074126338015,0.0615541749072194,-0.0276646510876341
1492618151.3,40.4714548662533,-79.9263481184129,7.67999982833862,0.116378784179688,-0.895156860351562,0.259979248046875,-0.0155296912645791,0.101145526620664,-0.0547969362733614
1492618151.5,40.4714548662533,-79.9263481184129,7.67999982833862,0.107498168945312,-1.01699829101562,0.280441284179688,0.0146790776124078,0.0743615829055195,-0.02029967909302
1492618151.7,40.4714548662533,-79.9263481184129,7.67999982833862,0.0847015380859375,-1.02827453613281,0.3087158203125,0.00441924951287749,0.0733599680195407,-0.0491899169143086
1492618151.9,40.4714548662533,-79.9263481184129,7.67999982833862,0.174942016601562,-0.987228393554688,0.37091064453125,-0.0468742983464847,0.150290169796442,0.00552952137133152
1492618152.1,40.4714548662533,-79.9263481184129,7.67999982833862,0.128662109375,-0.939010620117188,0.366119384765625,-0.00486772584044683,0.171287597095062,-0.0175512968480582
1492618152.3,40.4714548662533,-79.9263481184129,7.67999982833862,0.126983642578125,-0.854705810546875,0.325210571289062,-0.0810349319650401,0.12498188364131,-0.00221841318803601
1492618152.5,40.4715238168236,-79.9263176421634,8.3100004196167,0.148880004882812,-0.935867309570312,0.262054443359375,-0.109316104845028,0.184721380581749,-0.0815619715447667
1492618152.7,40.4715238168236,-79.9263176421634,8.3100004196167,0.108642578125,-0.894454956054688,0.282623291015625,-0.0193212337085249,0.122440961645265,-0.0772812064085734
1492618152.9,40.4715238168236,-79.9263176421634,8.3100004196167,-0.0330657958984375,-0.873291015625,0.2611083984375,-0.111717743516061,0.0613504430838284,-0.0514141890567427
1492618153.1,40.4715238168236,-79.9263176421634,8.3100004196167,0.0952606201171875,-0.937774658203125,0.344619750976562,-0.198566356140744,0.0587184409785031,-0.0874816460157949
1492618153.3,40.4715238168236,-79.9263176421634,8.3100004196167,0.135208129882812,-1.06230163574219,0.201873779296875,0.0686592223794418,0.143137185424598,-0.113751333324445
1492618153.5,40.4715238168236,-79.9263176421634,8.3100004196167,0.002593994140625,-0.776504516601562,0.328659057617188,0.197218263996946,0.0987004784238627,-0.038751657021743
1492618153.7,40.471602876051,-79.9262827016811,9.22999954223633,0.470382690429688,-0.98138427734375,0.193145751953125,-0.131368410251429,0.482678772817013,-0.252084708774758
1492618153.9,40.471602876051,-79.9262827016811,9.22999954223633,0.00897216796875,-0.867172241210938,0.246139526367188,0.123602632512758,-0.255006196490575,0.166120531948091
1492618154.1,40.471602876051,-79.9262827016811,9.22999954223633,-0.04193115234375,-0.977325439453125,0.212020874023438,-0.0174708693831378,-0.154109142799615,0.102575377809928
1492618154.3,40.4716876791529,-79.926245224464,9.85999965667725,-0.0482177734375,-0.861862182617188,0.286300659179688,0.00368980969030478,-0.118088024843531,0.0547194382856401
1492618154.5,40.4716876791529,-79.926245224464,9.85999965667725,-0.039642333984375,-1.02288818359375,0.2015380859375,0.0631467452390868,0.0314998693734572,-0.00583205647116452
1492618154.7,40.4716876791529,-79.926245224464,9.85999965667725,0.098052978515625,-0.938186645507812,0.321044921875,-0.0331552903070505,0.106586098411587,-0.00914422991889607
1492618154.9,40.4716876791529,-79.926245224464,9.85999965667725,-0.1083984375,-0.922348022460938,0.230941772460938,0.00313773639633136,-0.0829846321990871,0.0364975574750999
1492618155.1,40.4717742252793,-79.9262069769484,10.1899995803833,-0.1348876953125,-1.02044677734375,0.305206298828125,0.00344133676060039,-0.0659691633623528,0.023662186285354
1492618155.3,40.4717742252793,-79.9262069769484,10.1899995803833,-0.108749389648438,-0.913894653320312,0.242416381835938,-0.0326178643990725,-0.0104305367254043,-0.0344258844631273
1492618155.5,40.4717742252793,-79.9262069769484,10.1899995803833,-0.0901947021484375,-0.904449462890625,0.25830078125,-0.0841622820331201,-0.0930551095451127,0.0292324540213638
1492618155.7,40.4717742252793,-79.9262069769484,10.1899995803833,-0.00933837890625,-0.966339111328125,0.204574584960938,-0.00184770116429698,-0.0691266071507508,0.0193513274288428
1492618155.9,40.4717742252793,-79.9262069769484,10.1899995803833,-0.0475006103515625,-0.971786499023438,0.23590087890625,-0.0438044725579503,0.00560568777850779,0.0133978308119706
1492618156.1,40.4717742252793,-79.9262069769484,10.1899995803833,-0.0406036376953125,-0.945053100585938,0.217666625976562,-0.0375172818564913,-0.0157102535864864,0.00925235425915329
1492618156.3,40.4718640490504,-79.9261672809363,10.3299999237061,-0.167312622070312,-1.03005981445312,0.271942138671875,0.0459400614360849,-0.0587978031789874,0.0347409364200837
1492618156.5,40.4718640490504,-79.9261672809363,10.3299999237061,-0.18341064453125,-0.944534301757812,0.365859985351562,-0.0650242738075927,-0.187846067488739,0.0573945836006247
1492618156.7,40.4718640490504,-79.9261672809363,10.3299999237061,-0.11529541015625,-0.970733642578125,0.283004760742188,-0.0619922649065375,0.0227335420132434,-0.0486729973467242
1492618156.9,40.4718640490504,-79.9261672809363,10.3299999237061,-0.17333984375,-0.901138305664062,0.309921264648438,0.0044432179626882,0.029743248318441,-0.0746662485342246
1492618157.1,40.4718640490504,-79.9261672809363,10.3299999237061,-0.120773315429688,-0.874740600585938,0.242019653320312,0.0744979367533316,-0.00686696087076932,-0.000285757184965502
1492618157.3,40.4719550616109,-79.9261270595599,10.8699998855591,-0.00592041015625,-1.00216674804688,0.17913818359375,0.0462769513139799,-0.0588039284494946,0.0102214785798331
1492618157.5,40.4719550616109,-79.9261270595599,10.8699998855591,-0.109405517578125,-1.005859375,0.261550903320312,0.0132103442712291,-0.0607158117960625,0.0130865072805404
1492618157.7,40.4719550616109,-79.9261270595599,10.8699998855591,-0.109344482421875,-0.934371948242188,0.247940063476562,-0.0119139174525785,0.00964170841052287,-0.0577224187308134
1492618157.9,40.4719550616109,-79.9261270595599,10.8699998855591,-0.21124267578125,-0.940841674804688,0.254837036132812,-0.0386049168456796,0.085334339228864,-0.0891112342868144
1492618158.1,40.4719550616109,-79.9261270595599,10.8699998855591,-0.0165252685546875,-1.04080200195312,0.233001708984375,-0.11706537098494,0.023088275070442,-0.0705620509783035
1492618158.3,40.4720485352286,-79.9260852257524,10.9700002670288,-0.012542724609375,-0.991775512695312,0.285934448242188,0.0492817959719163,0.0337054993882609,-0.0806146851450256
1492618158.5,40.4720485352286,-79.9260852257524,10.9700002670288,-0.08941650390625,-0.953414916992188,0.287582397460938,0.0524536208302007,-0.0694797423112953,0.0199081944127783
1492618158.7,40.4720485352286,-79.9260852257524,10.9700002670288,-0.0496368408203125,-0.793304443359375,0.3018798828125,-0.142622662701995,-0.0384216913626822,0.05088342105149
1492618158.9,40.4720485352286,-79.9260852257524,10.9700002670288,0.077301025390625,-0.932037353515625,0.336837768554688,0.104758903587684,0.121627365932246,-0.117591078984122
1492618159.1,40.4720485352286,-79.9260852257524,10.9700002670288,0.0486907958984375,-0.983840942382812,0.240097045898438,-0.0488873818144756,0.106673183779233,-0.104198574494331
1492618159.3,40.4721382240443,-79.9260447567494,11.1099996566772,0.118133544921875,-0.935882568359375,0.26153564453125,-0.0139333925071856,0.0171126742165222,0.0158063937018383
1492618159.5,40.4721382240443,-79.9260447567494,11.1099996566772,-0.006439208984375,-0.882339477539062,0.291900634765625,-0.0437072671781624,-0.00290657401371248,0.00169243887274536
1492618159.7,40.4721382240443,-79.9260447567494,11.1099996566772,-0.0037384033203125,-1.04281616210938,0.228668212890625,0.00121120566376804,-0.0117115172097325,-0.0170168004172793
1492618159.9,40.4721382240443,-79.9260447567494,11.1099996566772,0.073822021484375,-0.916854858398438,0.252655029296875,0.0742121795683661,0.0558906965330569,-0.0228411337212826
1492618160.1,40.4721382240443,-79.9260447567494,11.1099996566772,0.0554656982421875,-0.95184326171875,0.269851684570312,-0.0523183322468247,0.0120438797137743,0.0164926903147517
1492618160.3,40.4722360790322,-79.9260006030411,11.4499998092651,0.02947998046875,-0.923568725585938,0.34661865234375,0.0171009563077258,-0.00117578562126998,-0.00515295039319432
1492618160.5,40.4722360790322,-79.9260006030411,11.4499998092651,0.0774688720703125,-0.984756469726562,0.2432861328125,0.108007960117581,0.0365255206665458,-0.0128492196274143
1492618160.7,40.4722360790322,-79.9260006030411,11.4499998092651,-0.01177978515625,-0.955368041992188,0.178909301757812,-0.029073463304286,0.0225204891260371,-0.0419381292660228
1492618160.9,40.4722360790322,-79.9260006030411,11.4499998092651,0.0214691162109375,-0.883087158203125,0.280807495117188,-0.0167472885149633,-0.034987811453134,0.0372363183614879
1492618161.1,40.4722360790322,-79.9260006030411,11.4499998092651,0.0227508544921875,-1.00921630859375,0.246185302734375,0.059153068868404,-0.0684506968660887,0.0754172599616269
1492618161.3,40.4723381188928,-79.9259545610525,11.8199996948242,0.0823211669921875,-0.999542236328125,0.205429077148438,0.0675835716151588,-0.00468822878297549,0.039087747951311
1492618161.5,40.4723381188928,-79.9259545610525,11.8199996948242,0.04339599609375,-0.9691162109375,0.219253540039062,0.0434281678959221,0.00609064941301122,-0.0571466433031383
1492618161.7,40.4723381188928,-79.9259545610525,11.8199996948242,0.069580078125,-0.894424438476562,0.154251098632812,-0.0582060487847718,0.0163315690688019,-0.0176975043919036
1492618161.9,40.4723381188928,-79.9259545610525,11.8199996948242,-0.0258026123046875,-0.9366455078125,0.218276977539062,0.0213873140822083,-0.0320420889713974,0.0536123622204942
1492618162.1,40.4723381188928,-79.9259545610525,11.8199996948242,0.0312347412109375,-1.00570678710938,0.282638549804688,-0.0106819391323078,0.00326130707091104,0.00414707444947139
1492618162.3,40.4724382809858,-79.9259093663422,12.1199998855591,0.111602783203125,-0.964111328125,0.103302001953125,-0.0235404798235374,-0.120043850348085,0.0203268433361388
1492618162.5,40.4724382809858,-79.9259093663422,12.1199998855591,0.107666015625,-0.999282836914062,0.197921752929688,-0.0412547621303085,-0.0646149459480475,0.0221348634001936
1492618162.7,40.4724382809858,-79.9259093663422,12.1199998855591,0.114227294921875,-0.972152709960938,0.1065673828125,0.00906380245397568,0.0999329893763514,0.0147619019223092
1492618162.9,40.4724382809858,-79.9259093663422,12.1199998855591,0.0342559814453125,-1.01400756835938,0.240646362304688,-0.0154103816477435,0.02988040111458,-0.0247578107578126
1492618163.1,40.4724382809858,-79.9259093663422,12.1199998855591,0.128128051757812,-0.953369140625,0.1365966796875,-0.0493246728654666,0.0705239677747153,-0.0145477837706668
1492618163.3,40.4724801411361,-79.9258904783846,12.0299997329712,0.0097808837890625,-0.954483032226562,0.17388916015625,-0.0156119829422625,-0.0392512660422419,0.0297954462758065
1492618163.5,40.4724801411361,-79.9258904783846,12.0299997329712,0.0064849853515625,-0.983078002929688,0.140274047851562,-0.0395801664368666,-0.0146338038738764,0.00496359963968968
1492618163.7,40.4724801411361,-79.9258904783846,12.0299997329712,-0.010162353515625,-0.951873779296875,0.122512817382812,-0.036128975980233,-0.00189350753504634,-0.0067622986399292
