timestamp,latitude,longitude,speed,accelerometerX,accelerometerY,accelerometerZ,gyroX,gyroY,gyroZ
1492617046.4,40.4725228390102,-79.9258211721479,0.0,0.0391082763671875,-0.959579467773438,0.224334716796875,-0.0202552043028157,-0.00518703885514733,-0.0012602078278255
1492617046.6,40.4725228390102,-79.9258211721479,0.0,0.038330078125,-0.959075927734375,0.220184326171875,-0.0170903036633655,-0.00520727887943193,0.000904675822299917
1492617046.8,40.4725228390102,-79.9258211721479,0.0,-0.0106048583984375,-0.96649169921875,0.252166748046875,-0.0158524663886967,0.0139312619783135,-0.00126446888556962
1492617047.0,40.4725228390102,-79.9258211721479,0.0,0.02294921875,-0.952285766601562,0.250457763671875,-0.0111985923837832,-0.0382179595392911,0.0191758251130065
1492617047.2,40.4725851165508,-79.9258149695396,0.0,0.0329742431640625,-0.955810546875,0.271209716796875,-0.0118731710879003,-0.0116228339454328,0.00523950312862189
1492617047.4,40.4725851165508,-79.9258149695396,0.0,0.037872314453125,-0.950302124023438,0.31060791015625,-0.00416039025492179,0.00534496430778903,-0.00432124518476257
1492617047.6,40.4725851165508,-79.9258149695396,0.0,0.0432586669921875,-0.929367065429688,0.413406372070312,0.00646429091394933,0.00421232189617833,-0.00314332903462053
1492617047.8,40.4725851165508,-79.9258149695396,0.0,0.046905517578125,-0.90887451171875,0.425201416015625,-0.00528637476380729,0.00109775500133066,-0.00218938473215414
1492617048.0,40.4725851165508,-79.9258149695396,0.0,0.054534912109375,-0.886077880859375,0.459854125976562,-0.0190053828032415,0.00969603689676049,-0.00661689004441088
1492617048.2,40.4725834820796,-79.9258065038174,0.300000011920929,0.093475341796875,-0.814987182617188,0.525222778320312,-0.0839074175167995,0.0260747439168568,-0.00199257712759729
1492617048.4,40.4725834820796,-79.9258065038174,0.300000011920929,0.137908935546875,-0.8651123046875,0.595504760742188,-0.0414800655585292,0.0640855095233398,-0.0464372736116027
1492617048.6,40.4725834820796,-79.9258065038174,0.300000011920929,0.0817718505859375,-0.86187744140625,0.606582641601562,0.0188487889311448,0.0605059547021643,-0.0212874455413304
1492617048.8,40.4725834820796,-79.9258065038174,0.300000011920929,0.0325469970703125,-0.918258666992188,0.536056518554688,-0.0451222046653215,-0.000765658813397781,0.0283277781990639
1492617049.0,40.4725834820796,-79.9258065038174,0.300000011920929,0.029144287109375,-0.891021728515625,0.539535522460938,-0.00418302712418746,0.0276854237441367,0.00948165242900911
1492617049.2,40.4725834820796,-79.9258065038174,0.300000011920929,0.14239501953125,-0.914413452148438,0.544601440429688,0.003461843100994,0.0414630213275527,0.00312708375197104
1492617049.4,40.4725957615678,-79.9257967808097,2.44000005722046,0.124771118164062,-0.914779663085938,0.59283447265625,0.0472162482304508,0.100738329289991,-0.0488224006838776
1492617049.6,40.4725957615678,-79.9257967808097,2.44000005722046,0.006622314453125,-0.875946044921875,0.556549072265625,-0.0241759100596303,0.0320679216339711,-0.00566134784529044
1492617049.8,40.4725957615678,-79.9257967808097,2.44000005722046,0.0337066650390625,-0.888534545898438,0.586349487304688,-0.0418561039044484,-0.0380211519347343,0.00286822449401534
1492617050.0,40.4725957615678,-79.9257967808097,2.44000005722046,0.031219482421875,-0.827163696289062,0.5008544921875,-0.0630242398289432,-0.0112896724930639,0.00791358317917046
1492617050.2,40.4726244695862,-79.9257681147008,5.55999994277954,-0.021881103515625,-0.861541748046875,0.43133544921875,-0.0555077339683035,-0.0900489333066313,0.0380477835456351
1492617050.4,40.4726244695862,-79.9257681147008,5.55999994277954,0.0140380859375,-0.874679565429688,0.449569702148438,-0.00553324979685763,-0.0584587827722204,0.060868410926524
1492617050.6,40.4726244695862,-79.9257681147008,5.55999994277954,-0.08837890625,-0.891571044921875,0.40185546875,-0.0172652733469837,-0.0785946774582005,0.0512043319628445
1492617050.8,40.4726244695862,-79.9257681147008,5.55999994277954,-0.082061767578125,-0.934600830078125,0.369140625,-0.0101210774067371,-0.0924670835764232,0.0662402731613229
1492617051.0,40.4726244695862,-79.9257681147008,5.55999994277954,-0.0081329345703125,-0.900192260742188,0.46392822265625,0.0341361325365267,-0.06510283705975,0.0378349969745377
1492617051.2,40.4726777784903,-79.9257528596371,6.28999996185303,-0.0352630615234375,-0.9425048828125,0.391021728515625,-0.0202070010870852,-0.147713827757899,0.0726768671999354
1492617051.4,40.4726777784903,-79.9257528596371,6.28999996185303,0.018768310546875,-0.967819213867188,0.428634643554688,-0.086677371366591,0.00907924878829814,0.0353404139814605
1492617051.6,40.4726777784903,-79.9257528596371,6.28999996185303,0.081451416015625,-0.907638549804688,0.341033935546875,-0.00323627335666429,-0.00424614404202234,-0.0767895868713448
1492617051.8,40.4726777784903,-79.9257528596371,6.28999996185303,0.0582275390625,-0.85906982421875,0.384933471679688,-0.0873804458943719,-0.0611195470173185,0.0483089432257104
1492617052.0,40.4726777784903,-79.9257528596371,6.28999996185303,-0.0381622314453125,-0.907821655273438,0.344635009765625,-0.0183899262753242,-0.0807142873697945,0.0543969294776315
1492617052.2,40.4727838095654,-79.9257069268077,10.5299997329712,-0.0590362548828125,-0.88665771484375,0.396743774414062,-0.0632324990261874,-0.0559535471347828,0.0762644115043811
1492617052.4,40.4727838095654,-79.9257069268077,10.5299997329712,-0.042999267578125,-0.93048095703125,0.395584106445312,-0.0251026901189779,-0.0562116074444115,0.0137488354436431
1492617052.6,40.4727838095654,-79.9257069268077,10.5299997329712,0.007965087890625,-0.945480346679688,0.379501342773438,0.00597693243446483,-0.0606713370058582,-0.00298087620812569
1492617052.8,40.4727838095654,-79.9257069268077,10.5299997329712,0.086395263671875,-0.954193115234375,0.379592895507812,-0.0545026569729076,0.0737349411010239,-0.100972421149809
1492617053.0,40.4727838095654,-79.9257069268077,10.5299997329712,0.0552825927734375,-1.01124572753906,0.35809326171875,0.0165201208739795,0.0509366842732915,-0.0895242905718857
1492617053.2,40.4727838095654,-79.9257069268077,10.5299997329712,0.0699920654296875,-0.951889038085938,0.309982299804688,0.0784969394461946,0.0781901432886174,-0.0900262964373656
1492617053.4,40.4729044033691,-79.9256997673056,12.1099996566772,0.0362091064453125,-0.874618530273438,0.333541870117188,-0.107472664738475,0.0347401374717566,0.012670787834379
1492617053.6,40.4729044033691,-79.9256997673056,12.1099996566772,-0.06060791015625,-0.852035522460938,0.2757568359375,-0.134250749499221,-0.0214658773343657,-0.00665017955803687
1492617053.8,40.4729044033691,-79.9256997673056,12.1099996566772,0.04400634765625,-0.938705444335938,0.356475830078125,-0.00697428626269951,-0.0116497318724426,0.0362099360773714
1492617054.0,40.4729044033691,-79.9256997673056,12.1099996566772,0.0804595947265625,-0.91943359375,0.309799194335938,0.00881080215041815,0.0701508589059952,0.0169685972015489
1492617054.2,40.4730156120831,-79.9256505849714,13.3100004196167,-0.0565185546875,-0.967559814453125,0.287063598632812,0.0186951245362472,-0.0724552921972408,-0.00495268067922036
1492617054.4,40.4730156120831,-79.9256505849714,13.3100004196167,0.001861572265625,-0.940887451171875,0.20562744140625,-0.0592601279442252,0.00995542878693421,-0.0219566979232673
1492617054.6,40.4730156120831,-79.9256505849714,13.3100004196167,-0.0741729736328125,-0.970443725585938,0.206695556640625,0.0259844627559031,-0.0299483117223771,0.0301973172842995
1492617054.8,40.4730156120831,-79.9256505849714,13.3100004196167,0.05279541015625,-0.94873046875,0.229690551757812,0.028264927597338,0.0168303791409738,-0.0328066825203591
1492617055.0,40.4730156120831,-79.9256505849714,13.3100004196167,-0.0015869140625,-0.927017211914062,0.26910400390625,-0.0694166253934604,-0.00592899553484341,0.0110329437639803
1492617055.2,40.4730156120831,-79.9256505849714,13.3100004196167,0.0197601318359375,-0.965927124023438,0.277099609375,0.076731263643472,-0.00475507412633648,-0.00666562589235932
1492617055.4,40.4731393774041,-79.9255958494462,14.2799997329712,0.0566253662109375,-0.93719482421875,0.3072509765625,-0.0381844037095561,-0.0635696552201914,0.03175952757974
1492617055.6,40.4731393774041,-79.9255958494462,14.2799997329712,0.0954132080078125,-1.02230834960938,0.234298706054688,0.0428103145230238,-0.00985529392994723,-0.0208605408185907
1492617055.8,40.4731393774041,-79.9255958494462,14.2799997329712,-0.0703582763671875,-0.969757080078125,0.315765380859375,0.0601059479064344,-0.0716470228064017,0.0818325487115188
1492617056.0,40.4731393774041,-79.9255958494462,14.2799997329712,0.0677947998046875,-0.9510498046875,0.206451416015625,-0.0398374277981683,0.0747061959505758,-0.0826991413302306
1492617056.2,40.4731393774041,-79.9255958494462,14.2799997329712,0.0687713623046875,-0.952392578125,0.205078125,-0.0744486682731651,-0.019729229987525,-0.0177707413218807
1492617056.4,40.4732636206129,-79.9255409025738,14.6300001144409,0.014984130859375,-0.911544799804688,0.313247680664062,-0.0220927854549703,-0.109407184954308,0.07575734563283
1492617056.6,40.4732636206129,-79.9255409025738,14.6300001144409,-0.0234375,-0.938568115234375,0.341171264648438,0.00873090731771578,-0.0106973854666303,-0.021207284392519
1492617056.8,40.4732636206129,-79.9255409025738,14.6300001144409,0.018157958984375,-0.9853515625,0.19976806640625,-0.0558155953903167,0.000355798321634586,-0.0453533670479404
1492617057.0,40.4732636206129,-79.9255409025738,14.6300001144409,-0.0690155029296875,-0.86181640625,0.322097778320312,-0.114821657766548,-0.11199444595332,0.0801457024770626
1492617057.2,40.4732636206129,-79.9255409025738,14.6300001144409,-0.09735107421875,-0.891891479492188,0.252960205078125,-0.0731114950898363,-0.0335582265799795,0.0323906967580887
1492617057.4,40.473401598815,-79.9254788517856,15.2299995422363,-0.203903198242188,-0.985549926757812,0.324859619140625,0.0717732566420715,-0.0451395152124071,0.0221756097648718
1492617057.6,40.473401598815,-79.9254788517856,15.2299995422363,0.042449951171875,-0.898422241210938,0.303924560546875,-0.0443006194690321,-0.0220568327802543,-0.0430452053311687
1492617057.8,40.473401598815,-79.9254788517856,15.2299995422363,0.11859130859375,-0.66357421875,0.30426025390625,0.108997857094763,-0.190034653272566,0.101830491653033
1492617058.0,40.473401598815,-79.9254788517856,15.2299995422363,0.271575927734375,-1.09071350097656,0.245681762695312,0.0562528864413077,0.0240914878530748,-0.0506645092098854
1492617058.2,40.4735286282604,-79.9254225260589,15.6400003433228,0.239883422851562,-0.870986938476562,0.29400634765625,-0.0238736412759063,0.0352538612460329,-0.0259245416313763
1492617058.4,40.4735286282604,-79.9254225260589,15.6400003433228,0.114578247070312,-0.982192993164062,0.250961303710938,0.0757482908851238,0.106938168307696,-0.0293544267992894
1492617058.6,40.4735286282604,-79.9254225260589,15.6400003433228,0.0191802978515625,-0.958328247070312,0.28558349609375,0.0134798561735451,0.0233079858603735,-0.0383058438552637
1492617058.8,40.4735286282604,-79.9254225260589,15.6400003433228,0.075408935546875,-1.1649169921875,0.239700317382812,0.240332977832566,0.102681637937422,0.00326183970312905
1492617059.0,40.4735286282604,-79.9254225260589,15.6400003433228,-0.1279296875,-0.8533935546875,0.302597045898438,-0.102265119542934,-0.175889805774828,0.139080924768298
1492617059.2,40.473663865662,-79.9253625608681,16.3400001525879,0.047637939453125,-1.03877258300781,0.210693359375,-0.00102318649080844,-0.129754001998623,0.0813566418247216
1492617059.4,40.473663865662,-79.9253625608681,16.3400001525879,0.0031280517578125,-0.86627197265625,0.243911743164062,-0.0651816666280164,-0.0208496218581213,0.00471752355496636
1492617059.6,40.473663865662,-79.9253625608681,16.3400001525879,0.0573272705078125,-0.947250366210938,0.260040283203125,-0.0382938596303584,0.0512991404976513,-0.0527689391032661
1492617059.8,40.473663865662,-79.9253625608681,16.3400001525879,0.05316162109375,-0.957321166992188,0.2845458984375,-0.00053742590797799,0.0234011964985263,-0.0256550297290603
1492617060.0,40.473663865662,-79.9253625608681,16.3400001525879,0.113967895507812,-0.960494995117188,0.279922485351562,-0.013982394671243,-0.105199923064201,0.107815946202986
1492617060.2,40.4738062971246,-79.9252994057813,16.9300003051758,-0.0323638916015625,-0.9954833984375,0.3077392578125,0.0519122001805876,-0.0758652036569783,-0.0216632175711406
1492617060.4,40.4738062971246,-79.9252994057813,16.9300003051758,-0.082000732421875,-0.91802978515625,0.285614013671875,0.0509982032944724,-0.124771493915193,0.0957371790789315
1492617060.6,40.4738062971246,-79.9252994057813,16.9300003051758,0.099822998046875,-1.02940368652344,0.247390747070312,-0.0819971320668857,0.0313715050089154,-0.0606284601123079
1492617060.8,40.4738062971246,-79.9252994057813,16.9300003051758,-0.071136474609375,-1.0657958984375,0.210372924804688,-0.0140263368292293,0.209626996780061,-0.105173557769409
1492617061.0,40.4738062971246,-79.9252994057813,16.9300003051758,-0.0626068115234375,-0.966094970703125,0.318222045898438,-0.0264553096366291,0.0895178989852695,-0.0410180071094004
1492617061.2,40.4739537400407,-79.9252340285818,17.4799995422363,0.0369415283203125,-0.9407958984375,0.15411376953125,-0.0177441097109799,-0.0903003357135347,0.00218379209386498
1492617061.4,40.4739537400407,-79.9252340285818,17.4799995422363,0.0512847900390625,-0.960800170898438,0.253280639648438,-0.0651164191813094,-0.021914619978044,-0.000610130205737154
1492617061.6,40.4739537400407,-79.9252340285818,17.4799995422363,0.0080413818359375,-0.936599731445312,0.238677978515625,0.00878683370060744,0.0201521399686296,-0.00849175545182666
1492617061.8,40.4739537400407,-79.9252340285818,17.4799995422363,-0.0305938720703125,-0.933929443359375,0.16461181640625,-0.0121434819385433,-0.0456598968894085,0.00639078766786315
1492617062.0,40.4739537400407,-79.9252340285818,17.4799995422363,0.04736328125,-1.00057983398438,0.172775268554688,0.0296873219355493,0.0104465156919448,0.0152039866632624
1492617062.2,40.4739537400407,-79.9252340285818,17.4799995422363,-0.046844482421875,-1.01811218261719,0.155960083007812,-0.173615199887792,-0.0424864741344701,-0.0208597418702637
1492617062.4,40.474103758118,-79.9251673718528,17.5900001525879,-0.1439208984375,-0.824798583984375,0.216567993164062,0.0459267456306345,0.293261972917346,-0.160218700656366
1492617062.6,40.474103758118,-79.9251673718528,17.5900001525879,0.005645751953125,-0.955795288085938,-0.002166748046875,-0.157340888782426,0.216949358197234,-0.0565476983739795
1492617062.8,40.474103758118,-79.9251673718528,17.5900001525879,-0.291168212890625,-0.967361450195312,0.1595458984375,0.0605336515775011,-0.146096756344003,0.165193751888743
1492617063.0,40.474103758118,-79.9251673718528,17.5900001525879,-0.177688598632812,-1.02001953125,0.181411743164062,-0.0719804505748797,0.0227907999766801,-0.0967550392475598
1492617063.2,40.4742201084114,-79.9251155237509,17.1000003814697,-0.063812255859375,-0.894805908203125,0.219558715820312,0.0419370640015868,-0.046046321563579,-0.209495969254429
1492617063.4,40.4742201084114,-79.9251155237509,17.1000003814697,0.241043090820312,-1.09403991699219,0.110397338867188,0.160994745798015,0.156382150789998,-0.00621874746144403
1492617063.6,40.4742201084114,-79.9251155237509,17.1000003814697,-0.117507934570312,-0.9193115234375,0.273635864257812,-0.0478159921079367,0.164111975853953,-0.0734156280863234
1492617063.8,40.4742201084114,-79.9251155237509,17.1000003814697,0.0228729248046875,-0.97259521484375,0.178878784179688,-0.0344969908642324,0.0268121732226998,-0.0324088062535013
1492617064.0,40.4742201084114,-79.9251155237509,17.1000003814697,-0.051055908203125,-0.907180786132812,0.144607543945312,-0.0601735921981224,-0.0453461765129972,0.0144279415216133
1492617064.2,40.4742201084114,-79.9251155237509,17.1000003814697,0.033843994140625,-0.984695434570312,0.169692993164062,-0.0398030730201063,-0.0827012718591026,0.0616463202809362
1492617064.4,40.4743901416536,-79.9250402660789,16.8199996948242,0.0129241943359375,-1.06271362304688,0.173126220703125,0.0683811883616376,0.0176373169512678,-0.00680890395900559
1492617064.6,40.4743901416536,-79.9250402660789,16.8199996948242,-0.0827484130859375,-0.908462524414062,0.160919189453125,-0.0474873580294209,-0.0379809382022741,0.0252009607632018
1492617064.8,40.4743901416536,-79.9250402660789,16.8199996948242,-0.0538787841796875,-1.02093505859375,0.211410522460938,-0.0844301960387821,0.0611776039290822,-0.0223465847068549
1492617065.0,40.4743901416536,-79.9250402660789,16.8199996948242,-0.01873779296875,-0.979537963867188,0.176177978515625,-0.0359398915428373,-0.00402456903932774,-0.0216818596987711
1492617065.2,40.4745323514662,-79.9249773284484,16.5499992370605,0.01654052734375,-1.01788330078125,0.25018310546875,-0.035491148899159,0.0225625670712603,-0.0398715162601213
1492617065.4,40.4745323514662,-79.9249773284484,16.5499992370605,0.0475006103515625,-1.00320434570312,0.208847045898438,0.00819880773191794,-0.00218965104826315,-0.055353536941188
1492617065.6,40.4745323514662,-79.9249773284484,16.5499992370605,0.0280914306640625,-0.952346801757812,0.168182373046875,0.00255903149145714,-0.0319235783028888,0.0288963630917958
1492617065.8,40.4745323514662,-79.9249773284484,16.5499992370605,0.061431884765625,-0.98565673828125,0.166717529296875,-0.0477811046976567,-0.01139273682725,-0.0164530092145095
1492617066.0,40.4745323514662,-79.9249773284484,16.5499992370605,-0.0633697509765625,-0.97161865234375,0.207199096679688,-0.0114151073804066,0.0181555680993972,-0.0118920795316398
1492617066.2,40.4746709793795,-79.9249159760548,16.2399997711182,-0.0552825927734375,-0.96966552734375,0.19097900390625,-0.0256667476378567,-0.0168527496941304,-0.00128550785818125
1492617066.4,40.4746709793795,-79.9249159760548,16.2399997711182,0.0345916748046875,-0.979385375976562,0.11004638671875,0.019763052133369,0.0307150358002109,-0.0265322749921324
1492617066.6,40.4746709793795,-79.9249159760548,16.2399997711182,0.017669677734375,-1.03489685058594,0.086578369140625,0.00892798123838164,-6.285060172587e-05,-0.0297624230782895
1492617066.8,40.4746709793795,-79.9249159760548,16.2399997711182,0.0299072265625,-0.93438720703125,0.078399658203125,0.0467962677265453,-0.0130694630495639,-0.00268579795934491
1492617067.0,40.4746709793795,-79.9249159760548,16.2399997711182,0.062042236328125,-0.96923828125,0.124832153320312,0.0185419927735677,-0.0596867663508559,0.0131384389217969
1492617067.2,40.4748092010527,-79.9248548034505,15.7799997329712,-0.0186614990234375,-0.946853637695312,0.116424560546875,0.0190839460553988,-0.00118697089784832,0.00552952137133152
1492617067.4,40.4748092010527,-79.9248548034505,15.7799997329712,0.000640869140625,-1.00341796875,0.111618041992188,-0.0379082339045149,0.0310921394105661,-0.0143291382451713
1492617067.6,40.4748092010527,-79.9248548034505,15.7799997329712,-0.0225067138671875,-0.937881469726562,0.223098754882812,0.046986151112268,-0.0651872592663055,0.032635707578376
1492617067.8,40.4748092010527,-79.9248548034505,15.7799997329712,0.0621490478515625,-1.01554870605469,0.122451782226562,-0.0493885887316285,0.050312705629886,-0.0208935640161077
1492617068.0,40.4748092010527,-79.9248548034505,15.7799997329712,0.065948486328125,-1.02182006835938,0.083221435546875,0.00151746918912715,0.0563668697359631,-0.00226235534602231
1492617068.2,40.4749402498824,-79.9247968053231,14.8699998855591,0.027618408203125,-0.947357177734375,0.014434814453125,-0.0811707531806341,0.0483899033228488,-0.0340085671203119
1492617068.4,40.4749402498824,-79.9247968053231,14.8699998855591,-0.032501220703125,-1.00965881347656,0.0508270263671875,-0.00172812523135242,0.0723333194193152,-0.0673758450501327
1492617068.6,40.4749402498824,-79.9247968053231,14.8699998855591,0.0834197998046875,-0.96673583984375,-0.014556884765625,-0.0202219147891897,0.0128971565270357,0.00615696212415419
1492617068.8,40.4749402498824,-79.9247968053231,14.8699998855591,0.0566253662109375,-1.03987121582031,-0.007659912109375,-0.0172282554078316,0.024569525268744,-0.0503518540979101
1492617069.0,40.4749402498824,-79.9247968053231,14.8699998855591,0.142974853515625,-1.033447265625,-0.04779052734375,-0.041003626039514,-0.0890747489798803,0.0680477605931597
1492617069.2,40.4750574000047,-79.9247449583304,13.289999961853,0.0348663330078125,-1.0059814453125,0.043701171875,-0.00936260912828257,-0.125446605251528,0.0705980036530195
1492617069.4,40.4750574000047,-79.9247449583304,13.289999961853,0.0369110107421875,-1.01919555664062,-0.0201568603515625,-0.0385567136299492,0.00131719947515319,0.0166612684117537
1492617069.6,40.4750574000047,-79.9247449583304,13.289999961853,0.083221435546875,-1.00050354003906,0.0278472900390625,-0.0464029188335406,0.0492194780024084,-0.0837668026112433
1492617069.8,40.4750574000047,-79.9247449583304,13.289999961853,0.146270751953125,-0.9915771484375,0.0230255126953125,0.131150829990369,0.0874163985690879,-0.119365010586224
1492617070.0,40.4750574000047,-79.9247449583304,13.289999961853,0.146697998046875,-0.964401245117188,-0.0416717529296875,-0.0855529847543595,0.125001857349485,-0.0609064941301122
1492617070.2,40.4751531871365,-79.9247025659314,11.0299997329712,0.065887451171875,-1.0289306640625,-0.0890960693359375,-0.0253663430668957,-0.0796106734140657,0.0202038052937771
1492617070.4,40.4751531871365,-79.9247025659314,11.0299997329712,0.115585327148438,-1.05978393554688,-0.0314178466796875,0.0388070507724166,0.0476135918650907,-0.00825526674702762
1492617070.6,40.4751531871365,-79.9247025659314,11.0299997329712,-0.0073089599609375,-1.021484375,-0.0395660400390625,-0.0189180311194869,-0.0658237547668345,0.0234328881154982
1492617070.8,40.4751531871365,-79.9247025659314,11.0299997329712,0.106552124023438,-0.993087768554688,-0.0899658203125,-0.0421730200741678,-0.0295048954008789,0.0305645671986214
1492617071.0,40.4751531871365,-79.9247025659314,11.0299997329712,-0.0039520263671875,-0.973587036132812,-0.062713623046875,-0.000239684498107131,-0.0319099961813294,7.98948327023771e-05
1492617071.2,40.4752340543897,-79.9246667766057,8.39000034332275,-0.01409912109375,-1.06008911132812,-0.0718994140625,0.0129919650618426,-0.0585842176595631,0.0301381951080997
1492617071.4,40.4752340543897,-79.9246667766057,8.39000034332275,0.0137481689453125,-1.04823303222656,-0.0401153564453125,-0.0152697667421873,-0.00734313407367548,0.0222531077525931
1492617071.6,40.4752340543897,-79.9246667766057,8.39000034332275,0.02911376953125,-1.02281188964844,-0.0532379150390625,-0.0121567977439937,-0.0201281715188189,0.0212517591827233
1492617071.8,40.4752340543897,-79.9246667766057,8.39000034332275,0.03021240234375,-1.01161193847656,-0.053375244140625,-0.0156980030454721,0.0266941951864092,-0.00556068035608545
1492617072.0,40.4752340543897,-79.9246667766057,8.39000034332275,0.014007568359375,-1.02665710449219,-0.029205322265625,-0.0354197761819449,-0.00827683835185726,0.0156519303586137
1492617072.2,40.4752891487085,-79.9246423935774,5.65000009536743,-0.009063720703125,-1.0234375,-0.0567169189453125,-0.010855044603163,-0.0275860878354768,-3.99474163511886e-05
1492617072.4,40.4752891487085,-79.9246423935774,5.65000009536743,0.0159759521484375,-1.008544921875,-0.0626983642578125,-0.0175696726595798,-0.0339214817526663,0.020165722090189
1492617072.6,40.4752891487085,-79.9246423935774,5.65000009536743,0.0042266845703125,-1.01145935058594,-0.0426025390625,-0.0226323418918204,-0.0264449233083778,0.00516759777918975
1492617072.8,40.4752891487085,-79.9246423935774,5.65000009536743,0.011016845703125,-1.02236938476562,-0.0320587158203125,-0.0141424506527568,-0.012670255202161,0.0148148988280018
1492617073.0,40.4752891487085,-79.9246423935774,5.65000009536743,0.0500030517578125,-1.01507568359375,-0.0206298828125,-0.0273607844072561,0.0235780303949075,-0.0110031163597714
1492617073.2,40.4753234969791,-79.9246271921034,2.94000005722046,0.016448974609375,-1.00279235839844,0.006103515625,-0.0181537038866341,-0.0147746850955416,-0.00441259161015229
1492617073.4,40.4753234969791,-79.9246271921034,2.94000005722046,-0.0033416748046875,-0.991607666015625,0.0880126953125,-0.0129791818886102,-0.00735991198854298,0.0105482484455858
1492617073.6,40.4753234969791,-79.9246271921034,2.94000005722046,0.0150146484375,-0.992874145507812,0.153640747070312,-0.00845127540325745,0.00111799502561526,-0.00435426838227955
1492617073.8,40.4753234969791,-79.9246271921034,2.94000005722046,0.023895263671875,-0.96002197265625,0.2066650390625,-0.00959723362031855,6.25842856168621e-05,0.000967792740134795
1492617074.0,40.4753234969791,-79.9246271921034,2.94000005722046,0.013519287109375,-0.94183349609375,0.297683715820312,-0.0106739496490376,0.00432497361028868,0.00414441128838131
1492617074.2,40.4753423170352,-79.9246188629332,1.72000002861023,0.0174407958984375,-0.924453735351562,0.377838134765625,0.00430819569542118,0.00848190175579337,0.00108843393751538
1492617074.4,40.4753423170352,-79.9246188629332,1.72000002861023,0.0055694580078125,-0.9100341796875,0.405426025390625,-0.01562876085713,0.00860813559146312,-0.0204402939985762
1492617074.6,40.4753423170352,-79.9246188629332,1.72000002861023,0.03240966796875,-0.870086669921875,0.500228881835938,-0.0328575488971796,0.0161691162423071,-0.0025105619596177
1492617074.8,40.4753423170352,-79.9246188629332,1.72000002861023,-0.0202789306640625,-0.867645263671875,0.421951293945312,0.0502003202318846,-0.0683998304892681,0.0294782637899781
1492617075.0,40.4753423170352,-79.9246188629332,1.72000002861023,0.103958129882812,-0.884689331054688,0.517105102539062,-0.015461514340673,-0.032871131018739,0.022317023618755
1492617075.2,40.4753648871176,-79.9246088741182,3.26999998092651,0.0889129638671875,-0.903717041015625,0.381423950195312,0.0371564235287855,0.0008234494090525,0.00890800753020604
1492617075.4,40.4753648871176,-79.9246088741182,3.26999998092651,0.054443359375,-0.96356201171875,0.394027709960938,0.00743714366015528,0.0212280570490216,0.0128159301137883
1492617075.6,40.4753648871176,-79.9246088741182,3.26999998092651,-0.0206298828125,-0.846145629882812,0.511886596679688,0.0114697021827533,-0.00113557188880979,0.0171797858759922
1492617075.8,40.4753648871176,-79.9246088741182,3.26999998092651,-0.050811767578125,-0.853836059570312,0.451858520507812,-0.0294103531821811,0.0225266143965442,-0.0174186714257723
1492617076.0,40.4753648871176,-79.9246088741182,3.26999998092651,0.085052490234375,-0.959747314453125,0.520797729492188,-0.0314652482792862,0.00126287098891557,-0.0344442602746488
1492617076.2,40.4754053195182,-79.9245909799979,5.80999994277954,0.0138092041015625,-0.895004272460938,0.402725219726562,0.0253125472128761,-0.0225018469984065,0.00564829835594906
1492617076.4,40.4754053195182,-79.9245909799979,5.80999994277954,-0.0852508544921875,-0.911941528320312,0.502090454101562,-0.0458487150106952,-0.033743049959631,-0.0142431181419618
1492617076.6,40.4754053195182,-79.9245909799979,5.80999994277954,0.01116943359375,-0.908966064453125,0.466567993164062,-0.0442726562775863,-0.0358868946371448,-0.0526051546962262
1492617076.8,40.4754053195182,-79.9245909799979,5.80999994277954,0.0460662841796875,-0.949951171875,0.45703125,-0.0901107186439211,-0.0175033599484368,-0.0392611197382752
1492617077.0,40.4754053195182,-79.9245909799979,5.80999994277954,0.0306854248046875,-0.931472778320312,0.372909545898438,-0.0439102000532265,-0.109271630054823,0.0360837022417016
1492617077.2,40.475447116635,-79.9245724818968,7.80000019073486,0.0309600830078125,-0.868118286132812,0.320770263671875,-0.12067049215258,0.0614013094606489,-0.0973531852283916
1492617077.4,40.475447116635,-79.9245724818968,7.80000019073486,0.0431976318359375,-0.977691650390625,0.420730590820312,-0.000989630661073445,0.0659494559702862,-0.0470937428203072
1492617077.6,40.475447116635,-79.9245724818968,7.80000019073486,-0.0523834228515625,-0.956802368164062,0.40765380859375,0.0302327373267975,-0.0586987335864365,0.0153880110945868
1492617077.8,40.475447116635,-79.9245724818968,7.80000019073486,0.031768798828125,-1.04350280761719,0.4212646484375,0.0169235897791265,0.110502809426767,-0.0864752374398539
1492617078.0,40.475447116635,-79.9245724818968,7.80000019073486,0.11309814453125,-0.892898559570312,0.365890502929688,-0.0756012843929514,0.00368315178757959,0.00134889109212513
1492617078.2,40.4755399932563,-79.9245315026348,9.6899995803833,0.13275146484375,-0.918701171875,0.327117919921875,0.0485195992679356,-0.0300969161112035,0.0176338548418507
1492617078.4,40.4755399932563,-79.9245315026348,9.6899995803833,0.097198486328125,-0.957489013671875,0.38555908203125,-0.0245972221440809,-0.0487616806110238,0.058515774419548
1492617078.6,40.4755399932563,-79.9245315026348,9.6899995803833,0.147216796875,-0.953414916992188,0.365097045898438,0.0350970010578273,-0.0672354964606855,0.0442476225633395
1492617078.8,40.4755399932563,-79.9245315026348,9.6899995803833,-0.031646728515625,-0.935775756835938,0.370315551757812,-0.0362416276943433,0.0683076851155514,-0.0378648243787466
1492617079.0,40.4755399932563,-79.9245315026348,9.6899995803833,-0.10113525390625,-0.99249267578125,0.350921630859375,-0.0152876099214909,-0.0988181901440442,0.0512767699444947
1492617079.2,40.4756374375804,-79.9244885115581,11.289999961853,0.0387115478515625,-0.8214111328125,0.433990478515625,0.0173837840154922,-0.292615623720783,0.125680164479128
1492617079.4,40.4756374375804,-79.9244885115581,11.289999961853,0.043792724609375,-0.8826904296875,0.363861083984375,-0.0189366732471174,-0.0839082164651266,0.0149496547791598
1492617079.6,40.4756374375804,-79.9244885115581,11.289999961853,-0.0081024169921875,-0.9744873046875,0.384521484375,-0.00800386434012414,0.0138756019115308,-0.0299717475399698
1492617079.8,40.4756374375804,-79.9244885115581,11.289999961853,0.0706024169921875,-0.840774536132812,0.389907836914062,-0.112335596888959,-0.00140321957836275,-0.0405964287088409
1492617080.0,40.4756374375804,-79.9244885115581,11.289999961853,-0.02252197265625,-0.89312744140625,0.326217651367188,0.0201785052634214,0.0626218361882322,-0.0394049304371394
1492617080.2,40.4757363013231,-79.9244448942536,12.5900001525879,0.0799560546875,-0.981048583984375,0.36358642578125,-0.0418901923664014,-0.00611861260445705,-0.0547900120545272
1492617080.4,40.4757363013231,-79.9244448942536,12.5900001525879,0.0225677490234375,-0.970977783203125,0.285537719726562,-0.0026048378622065,-0.0574233457403975,0.00332016293100179
1492617080.6,40.4757363013231,-79.9244448942536,12.5900001525879,0.121932983398438,-1.0045166015625,0.415451049804688,-0.146833653017628,-0.125627433889545,-0.00011291803021936
1492617080.8,40.4757363013231,-79.9244448942536,12.5900001525879,-0.012786865234375,-0.90386962890625,0.425491333007812,0.0391748333189566,-0.0874723249519796,0.0464740252346458
1492617081.0,40.4757363013231,-79.9244448942536,12.5900001525879,0.0264129638671875,-0.87579345703125,0.334121704101562,-0.0169792498459092,0.0830746470439318,-0.0366395039612012
1492617081.2,40.4758540934413,-79.9243929260139,13.6899995803833,0.126510620117188,-0.956207275390625,0.383392333984375,0.0445030197118781,-0.0056059540946168,0.0132646727574667
1492617081.4,40.4758540934413,-79.9243929260139,13.6899995803833,0.081878662109375,-0.882095336914062,0.314651489257812,-0.0688706773699941,0.0355497384431407,-0.00612793366827233
1492617081.6,40.4758540934413,-79.9243929260139,13.6899995803833,0.017364501953125,-0.94342041015625,0.295120239257812,-0.0152745604321495,0.0128569427945755,-0.0439043410988283
1492617081.8,40.4758540934413,-79.9243929260139,13.6899995803833,0.0404815673828125,-0.957321166992188,0.288955688476562,0.0151222276177969,-0.143690590299116,0.0612998430231169
1492617082.0,40.4758540934413,-79.9243929260139,13.6899995803833,0.0146331787109375,-0.926239013671875,0.31463623046875,-0.0228595095328041,-0.0104960504882203,-0.047120374431208
1492617082.2,40.4758540934413,-79.9243929260139,13.6899995803833,0.0527801513671875,-0.911346435546875,0.340316772460938,0.0416971131873706,-0.00983505390566263,0.060160276392672
1492617082.4,40.4759738054906,-79.9243401107274,14.460000038147,0.0215606689453125,-0.902099609375,0.370376586914062,-0.0951126678033079,-0.0695889319159885,-0.0135887794621293
1492617082.6,40.4759738054906,-79.9243401107274,14.460000038147,0.0299072265625,-0.967056274414062,0.254592895507812,-0.0561684642347522,-0.00176540948661353,-0.0208285828855097
1492617082.8,40.4759738054906,-79.9243401107274,14.460000038147,0.069671630859375,-0.956039428710938,0.34307861328125,-0.0177209402094963,0.0330889775959075,-0.00986275078099945
1492617083.0,40.4759738054906,-79.9243401107274,14.460000038147,0.0033721923828125,-0.848678588867188,0.244827270507812,-0.0961166795342678,-0.0589325591301454,0.0652732793695151
1492617083.2,40.4759738054906,-79.9243401107274,14.460000038147,0.0960235595703125,-1.00837707519531,0.2003173828125,0.0917813195957278,0.0259959143485905,-0.000193611811248761
1492617083.4,40.476099922765,-79.9242844695448,15.0100002288818,-0.0076751708984375,-0.912124633789062,0.294448852539062,-0.00823555935496104,0.0181350617590036,-0.0107932592658731
1492617083.6,40.476099922765,-79.9242844695448,15.0100002288818,0.0333709716796875,-0.894683837890625,0.244598388671875,-0.041105092477046,0.0385596431071483,-0.010116283716775
1492617083.8,40.476099922765,-79.9242844695448,15.0100002288818,0.109039306640625,-0.9652099609375,0.230117797851562,-0.0587235009845742,0.0833486863201009,-0.021074392654124
1492617084.0,40.476099922765,-79.9242844695448,15.0100002288818,0.107803344726562,-1.03591918945312,0.324020385742188,0.0098510328722031,-0.102180697336378,0.00249697983805829
1492617084.2,40.476099922765,-79.9242844695448,15.0100002288818,-0.010009765625,-0.900741577148438,0.264236450195312,-0.0445181997300916,-0.0348061838667906,0.0433488056954378
1492617084.4,40.4762315777887,-79.9242263851845,15.1400003433228,-0.15069580078125,-1.04621887207031,0.196441650390625,0.0710616599988023,-0.168516311664726,0.084327131704596
1492617084.6,40.4762315777887,-79.9242263851845,15.1400003433228,-0.1005859375,-0.962646484375,0.246231079101562,0.0161462130569324,-0.0990291125023785,0.0110830111924738
1492617084.8,40.4762315777887,-79.9242263851845,15.1400003433228,0.003082275390625,-0.94268798828125,0.27081298828125,-0.0168748539311781,0.125612786503549,-0.0985886256580794
1492617085.0,40.4762315777887,-79.9242263851845,15.1400003433228,0.0864105224609375,-0.936660766601562,0.223037719726562,-0.0198605238292659,0.0564944351521779,-0.0739179002679123
1492617085.2,40.4762315777887,-79.9242263851845,15.1400003433228,0.082794189453125,-0.90960693359375,0.165298461914062,-0.0279205808683907,-0.0912910316390442,0.0447307199850799
1492617085.4,40.4763479610641,-79.9241750385066,15.1800003051758,-0.0132904052734375,-0.842193603515625,0.298095703125,0.0735583735207516,0.0176053590181868,0.00390632468692823
1492617085.6,40.4763479610641,-79.9241750385066,15.1800003051758,0.181549072265625,-0.982101440429688,0.199508666992188,-0.0492455769810912,0.14284929771076,-0.058448396443969
1492617085.8,40.4763479610641,-79.9241750385066,15.1800003051758,0.04736328125,-0.914093017578125,0.233779907226562,-0.0852499170223085,0.0430952727596622,-0.0500298779221196
1492617086.0,40.4763479610641,-79.9241750385066,15.1800003051758,-0.0257568359375,-1.02166748046875,0.228683471679688,0.0222528414364841,0.00517558726245999,0.0108766162079926
1492617086.2,40.4763479610641,-79.9241750385066,15.1800003051758,0.0096588134765625,-0.909530639648438,0.199615478515625,-0.0207244532868876,-0.0806967105066,0.0692999789377149
1492617086.4,40.4764935436187,-79.9241091573851,15.1599998474121,-0.117843627929688,-0.942092895507812,0.2742919921875,0.063186692655438,0.0485201319001536,0.000521713257546523
1492617086.6,40.4764935436187,-79.9241091573851,15.1599998474121,0.195114135742188,-0.925460815429688,0.228591918945312,-0.0247602076027937,0.176719646770497,-0.116926886608256
1492617086.8,40.4764935436187,-79.9241091573851,15.1599998474121,0.11865234375,-1.03178405761719,0.168975830078125,-0.0104638262390303,0.114932711584005,-0.105958923974874
1492617087.0,40.4764935436187,-79.9241091573851,15.1599998474121,-0.0542449951171875,-0.956710815429688,0.273147583007812,-0.0589962086801983,-0.0804485038930046,0.0646426428233843
1492617087.2,40.4766207052171,-79.9240515974524,15.4499998092651,-0.0231781005859375,-0.98382568359375,0.134185791015625,-0.0667563937805802,-0.063385897104976,0.0186719550347636
1492617087.4,40.4766207052171,-79.9240515974524,15.4499998092651,0.0138397216796875,-0.976181030273438,0.278945922851562,-0.0216621523067045,-0.0487901764346877,-9.58737992428526e-05
1492617087.6,40.4766207052171,-79.9240515974524,15.4499998092651,0.0564117431640625,-0.978057861328125,0.217361450195312,0.0249189320037624,0.0200453472089174,-0.0200546682727327
1492617087.8,40.4766207052171,-79.9240515974524,15.4499998092651,0.036224365234375,-0.957244873046875,0.254165649414062,-0.0599645340525512,-0.00386131726450589,0.0217865219296112
1492617088.0,40.4766207052171,-79.9240515974524,15.4499998092651,0.01080322265625,-0.990737915039062,0.260421752929688,-0.0021273330787553,-0.0712491465395439,0.0385457946694799
1492617088.2,40.4767450866283,-79.9239952959765,15.3400001525879,0.0477752685546875,-0.920730590820312,0.270736694335938,-0.0486386425686622,0.0109629026273112,0.0581155013077091
1492617088.4,40.4767450866283,-79.9239952959765,15.3400001525879,0.142410278320312,-0.827285766601562,0.208511352539062,-0.0955683346658205,0.170815951266009,-0.0046179213301974
1492617088.6,40.4767450866283,-79.9239952959765,15.3400001525879,-0.257049560546875,-0.76739501953125,0.275100708007812,-0.0596665263265713,-0.172975508593955,0.14057575708816
1492617088.8,40.4767450866283,-79.9239952959765,15.3400001525879,-0.009918212890625,-1.01594543457031,0.1695556640625,-0.0292518950973213,0.00656655629980838,-0.0376339283122367
1492617089.0,40.4767450866283,-79.9239952959765,15.3400001525879,-0.006317138671875,-0.89495849609375,0.278533935546875,-0.0698427311678731,-0.0314527314221628,0.0281538737798817
1492617089.2,40.4768762451012,-79.9239359268512,15.2600002288818,0.06683349609375,-1.00022888183594,0.191162109375,0.060932593108795,0.0644809889452165,-0.0592505405643009
1492617089.4,40.4768762451012,-79.9239359268512,15.2600002288818,0.050537109375,-0.994110107421875,0.218582153320312,0.0042514703642025,0.0510229706926101,-0.0491339905314169
1492617089.6,40.4768762451012,-79.9239359268512,15.2600002288818,0.0088958740234375,-0.98876953125,0.191741943359375,-0.0110161658491128,-0.0275831583582777,0.0116867498115947
1492617089.8,40.4768762451012,-79.9239359268512,15.2600002288818,-0.0243988037109375,-0.973800659179688,0.173080444335938,-0.0104089651205747,-0.0169560803444255,-0.02671816363622
1492617090.0,40.4768762451012,-79.9239359268512,15.2600002288818,0.0045166015625,-0.930984497070312,0.289398193359375,-0.0381439236609869,-0.0061369884159786,-0.0174341177600947
1492617090.2,40.4768762451012,-79.9239359268512,15.2600002288818,0.056243896484375,-0.996795654296875,0.172637939453125,-0.0354298961940872,0.0151147707667447,-0.0483813812073605
1492617090.4,40.4770065661929,-79.923876936768,15.1499996185303,-0.0355072021484375,-0.9010009765625,0.21160888671875,-0.00792823056516589,-0.182893653125628,0.0899527931912794
1492617090.6,40.4770065661929,-79.923876936768,15.1499996185303,-0.01202392578125,-0.923782348632812,0.202346801757812,0.00417237447982714,0.00210150041618153,0.00750079321020817
1492617090.8,40.4770065661929,-79.923876936768,15.1499996185303,-0.0579376220703125,-1.01939392089844,0.2021484375,-0.102995358313833,-0.0142268728593123,-0.0298055662879488
1492617091.0,40.4770065661929,-79.923876936768,15.1499996185303,-0.031829833984375,-0.82257080078125,0.26361083984375,0.0455512399169333,-0.0832584051591472,0.0497270765061776
1492617091.2,40.4771326863559,-79.9238198482429,14.7399997711182,0.0750579833984375,-0.9945068359375,0.159164428710938,-0.06745440830229,0.0589402822973067,-0.0189683648640894
1492617091.4,40.4771326863559,-79.9238198482429,14.7399997711182,0.0074310302734375,-0.951614379882812,0.284255981445312,-0.00813409291742902,-0.0860954706684086,0.0801049561123844
1492617091.6,40.4771326863559,-79.9238198482429,14.7399997711182,0.0133056640625,-1.04031372070312,0.340805053710938,0.07965514820427,-0.0154090500671985,0.00725258659661279
1492617091.8,40.4771326863559,-79.9238198482429,14.7399997711182,0.00634765625,-0.9398193359375,0.290313720703125,-0.023391342802493,-0.0689835954002135,0.0372560257535545
1492617092.0,40.4771326863559,-79.9238198482429,14.7399997711182,0.0456695556640625,-0.921035766601562,0.169631958007812,-0.052262139547824,-0.152823102309216,0.0776929311130996
1492617092.2,40.4771326863559,-79.9238198482429,14.7399997711182,0.0051727294921875,-0.895431518554688,0.2596435546875,-0.0678765193350676,0.0163954849349638,-0.0113993947299752
1492617092.4,40.4772422615309,-79.9237702488373,14.6999998092651,0.0109405517578125,-0.701217651367188,0.355728149414062,0.104061421698192,-0.0304601712838903,0.00540888017395093
1492617092.6,40.4772422615309,-79.9237702488373,14.6999998092651,-0.134429931640625,-0.8470458984375,0.409011840820312,-0.07945381322586,-0.221799773490595,0.00402377009100072
1492617092.8,40.4772422615309,-79.9237702488373,14.6999998092651,0.130523681640625,-1.05683898925781,0.344863891601562,0.0442857057669277,0.0656485187671073,-0.0871455550862269
1492617093.0,40.4772422615309,-79.9237702488373,14.6999998092651,-0.114486694335938,-0.923797607421875,0.1600341796875,-0.145781970703156,0.0658147000191282,-0.12747566768606
1492617093.2,40.4772422615309,-79.9237702488373,14.6999998092651,0.049591064453125,-0.858810424804688,0.188018798828125,0.155972556614344,-0.105236674687244,0.139410091479032
1492617093.4,40.4773909822619,-79.9236832458732,15.0699996948242,0.106674194335938,-1.13818359375,0.240310668945312,-0.0626625825529104,-0.0580915328578984,0.0336272024522125
1492617093.6,40.4773909822619,-79.9236832458732,15.0699996948242,-0.05419921875,-1.01747131347656,0.235122680664062,0.0818120423711252,-0.0462615049796574,0.0659960612893626
1492617093.8,40.4773909822619,-79.9236832458732,15.0699996948242,-0.0218658447265625,-0.950485229492188,0.126632690429688,0.0275685109722823,-0.0895381390095541,-0.0400028101018622
1492617094.0,40.4773909822619,-79.9236832458732,15.0699996948242,0.155181884765625,-0.947113037109375,0.144805908203125,-0.0497036406885849,0.0662631763466976,-0.0667851559203531
1492617094.2,40.4775105504659,-79.9236127445669,15.2700004577637,0.0111846923828125,-0.99957275390625,0.17987060546875,0.0240954825947099,-0.083116991305264,0.061235394524737
1492617094.4,40.4775105504659,-79.9236127445669,15.2700004577637,-0.041473388671875,-0.893798828125,0.2454833984375,-0.0390448710577607,-0.0252816545442312,-0.0397844308924757
1492617094.6,40.4775105504659,-79.9236127445669,15.2700004577637,-0.024627685546875,-1.06666564941406,0.21630859375,0.00826751728804199,-0.0372842552611093,-0.00195156444681007
1492617094.8,40.4775105504659,-79.9236127445669,15.2700004577637,0.153121948242188,-0.982833862304688,0.123397827148438,-0.0462109049189459,0.0194541254469198,0.0410590197901876
1492617095.0,40.4775105504659,-79.9236127445669,15.2700004577637,0.0962982177734375,-0.926010131835938,0.232513427734375,-0.0643654077539071,0.0429642452340303,-0.0199617239506889
1492617095.2,40.4775105504659,-79.9236127445669,15.2700004577637,0.0394134521484375,-0.950958251953125,0.158370971679688,-0.0832075387823267,-0.0186056423236206,0.000262321367372805
1492617095.4,40.4776393656995,-79.9235367909109,15.1999998092651,0.055511474609375,-1.03102111816406,0.2451171875,0.0375545661117524,0.00507145766383789,-0.0177542297231222
1492617095.6,40.4776393656995,-79.9235367909109,15.1999998092651,0.006866455078125,-1.09638977050781,0.22998046875,0.027930168248315,-0.0427245607359232,0.0366474934444714
1492617095.8,40.4776393656995,-79.9235367909109,15.1999998092651,0.0408477783203125,-0.9814453125,0.242599487304688,0.00975515907296025,-0.0330311870002528,0.0470985365102693
1492617096.0,40.4776393656995,-79.9235367909109,15.1999998092651,0.0882110595703125,-0.977096557617188,0.241775512695312,-0.0150974602196592,0.0149813463961317,-0.0556363646489544
1492617096.2,40.4777636084835,-79.9234635333201,15.0699996948242,-0.043365478515625,-0.95831298828125,0.204559326171875,-0.0649638200508479,-0.0633936202721372,0.0432132507959527
1492617096.4,40.4777636084835,-79.9234635333201,15.0699996948242,-0.0449676513671875,-0.936721801757812,0.262954711914062,-0.0443339089826581,0.00666669115679536,-0.0249940331465027
1492617096.6,40.4777636084835,-79.9234635333201,15.0699996948242,-0.019287109375,-0.892974853515625,0.2041015625,0.0174839188724792,-0.0490418451577002,0.0184312052722204
1492617096.8,40.4777636084835,-79.9234635333201,15.0699996948242,0.03887939453125,-0.971054077148438,0.253692626953125,-0.0112047176542904,0.0383641670831365,-0.0162069331297862
1492617097.0,40.4777636084835,-79.9234635333201,15.0699996948242,0.10345458984375,-1.01664733886719,0.212112426757812,-0.00813835397517314,0.0447285894562078,-0.00339739460261408
1492617097.2,40.4777636084835,-79.9234635333201,15.0699996948242,0.012420654296875,-0.981002807617188,0.290435791015625,0.0338570332542864,-0.0268129721710268,0.0014820491466291
1492617097.4,40.4778905733463,-79.923388670703,15.0600004196167,-0.010711669921875,-0.9168701171875,0.269271850585938,0.0029073729620395,-0.0882995027865582,0.0503696972772137
1492617097.6,40.4778905733463,-79.923388670703,15.0600004196167,-0.01019287109375,-0.898086547851562,0.127120971679688,-0.0763855853339797,0.00263360000197936,0.0578529136242273
1492617097.8,40.4778905733463,-79.923388670703,15.0600004196167,0.08319091796875,-1.10931396484375,0.215805053710938,-0.0461219553385373,0.123681195764915,-0.0636980195847332
1492617098.0,40.4778905733463,-79.923388670703,15.0600004196167,-0.0456695556640625,-1.18460083007812,0.126953125,0.0466644412525864,0.0220387232848417,0.0260100291023679
1492617098.2,40.4778905733463,-79.923388670703,15.0600004196167,0.0568695068359375,-0.877655029296875,0.215530395507812,-0.0319787057374535,-0.00725072238384973,-0.0792085360894637
1492617098.4,40.4779994287895,-79.9233244859894,15.3400001525879,0.06903076171875,-0.898544311523438,0.208526611328125,0.00122851621085355,0.0276492047533117,0.00313986692520342
1492617098.6,40.4779994287895,-79.9233244859894,15.3400001525879,0.0528411865234375,-1.07994079589844,0.166519165039062,0.0086981504363078,0.0701404725777439,-0.0523364417422372
1492617098.8,40.4779994287895,-79.9233244859894,15.3400001525879,0.142547607421875,-0.997955322265625,0.276824951171875,0.0010487528372732,0.00956767253221867,0.00638333081681093
1492617099.0,40.4779994287895,-79.9233244859894,15.3400001525879,0.0687408447265625,-0.927520751953125,0.242462158203125,-0.0200088619019833,0.0256590244706954,-0.00240350288379651
1492617099.2,40.4779994287895,-79.9233244859894,15.3400001525879,0.144805908203125,-0.82696533203125,0.231124877929688,0.016501745062458,-0.0107391970957445,0.0332492998935303
1492617099.4,40.4781415865017,-79.9232384822314,15.6199998855591,0.125152587890625,-1.01834106445312,0.161178588867188,-0.0421698242808597,0.00346077783655797,-0.0292284592797286
1492617099.6,40.4781415865017,-79.9232384822314,15.6199998855591,0.02337646484375,-0.992706298828125,0.240371704101562,0.103174855371305,0.0876017545809575,-0.0983276358712516
1492617099.8,40.4781415865017,-79.9232384822314,15.6199998855591,0.105133056640625,-0.940704345703125,0.172012329101562,-0.137359990071889,-0.121407655142314,0.165236362466184
1492617100.0,40.4781415865017,-79.9232384822314,15.6199998855591,-0.0635833740234375,-0.962539672851562,0.175201416015625,0.106434564545562,-0.0740947341642936,-0.0360365642904072
1492617100.2,40.4782689738668,-79.9231614033506,15.4399995803833,-0.0768585205078125,-1.00636291503906,0.115646362304688,-0.14875246058303,0.0839162059483968,-0.133950078612151
1492617100.4,40.4782689738668,-79.9231614033506,15.4399995803833,-0.0296478271484375,-0.920059204101562,0.0902252197265625,-0.00992453611828929,-0.133946882818843,0.106865464009937
1492617100.6,40.4782689738668,-79.9231614033506,15.4399995803833,0.167266845703125,-1.07003784179688,0.098052978515625,0.011123757557152,0.173298550034181,-0.0952263847818543
1492617100.8,40.4782689738668,-79.9231614033506,15.4399995803833,0.107025146484375,-0.999404907226562,0.230712890625,0.0350943378967372,-0.0597887654206059,0.0484932339731438
1492617101.0,40.4782689738668,-79.9231614033506,15.4399995803833,0.11297607421875,-1.00839233398438,0.121536254882812,-0.0112539861344568,0.076662287771239,0.00821665091122147
1492617101.2,40.4783928083171,-79.9230864742488,15.1700000762939,-0.00555419921875,-0.9111328125,0.188507080078125,-0.0646469038811285,-0.118717596125225,-0.00995143404529909
1492617101.4,40.4783928083171,-79.9230864742488,15.1700000762939,-0.0638885498046875,-1.02534484863281,0.137481689453125,-0.0365204606604746,0.00449648118448979,0.0252036239242919
1492617101.6,40.4783928083171,-79.9230864742488,15.1700000762939,0.0633392333984375,-0.972213745117188,0.18475341796875,-0.0313193070515499,-0.0508541262794991,0.00407543541614826
1492617101.8,40.4783928083171,-79.9230864742488,15.1700000762939,0.0458831787109375,-1.04573059082031,0.238372802734375,0.028734975529737,0.0774591055693907,-0.0340245460868523
1492617102.0,40.4783928083171,-79.9230864742488,15.1700000762939,0.031829833984375,-1.01052856445312,0.199630737304688,-0.0110121711074776,-0.0212003601736848,0.0148689609981304
1492617102.2,40.4785156206019,-79.9230121636335,15.1000003814697,0.02264404296875,-0.926712036132812,0.189727783203125,-0.0386997253804865,-0.0912193926057211,0.0542161008396151
1492617102.4,40.4785156206019,-79.9230121636335,15.1000003814697,-0.0263214111328125,-0.95703125,0.206954956054688,0.00227061114540156,-0.0436326986676402,-0.0339830007738471
1492617102.6,40.4785156206019,-79.9230121636335,15.1000003814697,0.119369506835938,-1.03913879394531,0.2135009765625,-0.00157605873310889,-0.0563658044715271,0.00652660888345719
1492617102.8,40.4785156206019,-79.9230121636335,15.1000003814697,-0.0164337158203125,-0.838333129882812,0.289901733398438,0.00155715028936933,-0.174443709302915,0.101756455774729
1492617103.0,40.4785156206019,-79.9230121636335,15.1000003814697,-0.0662384033203125,-1.01722717285156,0.229522705078125,0.0220959812482784,-0.149049403044574,0.0933714930826141
1492617103.2,40.4785156206019,-79.9230121636335,15.1000003814697,0.1226806640625,-0.935501098632812,0.166641235351562,-0.113485549847656,0.061370150475895,-0.000254065567993559
1492617103.4,40.4786381918083,-79.9229379988888,15.1800003051758,0.175796508789062,-0.985321044921875,0.205215454101562,-0.0508368157324136,0.0811771447672503,0.0237929474948769
1492617103.6,40.4786381918083,-79.9229379988888,15.1800003051758,0.0540771484375,-0.953018188476562,0.222427368164062,0.0113285546449791,0.0307813485113539,0.0448175390366165
1492617103.8,40.4786381918083,-79.9229379988888,15.1800003051758,-0.0145263671875,-0.94293212890625,0.192413330078125,-0.00971787481769914,0.0692001103968369,-0.0301320698375925
1492617104.0,40.4786381918083,-79.9229379988888,15.1800003051758,0.0135345458984375,-0.93682861328125,0.189224243164062,-0.0733511795879434,-0.0537662929315007,0.0388376771249526
1492617104.2,40.4786381918083,-79.9229379988888,15.1800003051758,-0.0654449462890625,-0.860366821289062,0.22186279296875,0.0399362310746102,0.0614226147493695,-0.082914324746309
1492617104.4,40.4787288038573,-79.9228831718239,15.289999961853,0.214828491210938,-0.97412109375,0.197952270507812,-0.0626604520240384,0.162067733401208,-0.156727030151163
1492617104.6,40.4787288038573,-79.9228831718239,15.289999961853,0.142242431640625,-0.930953979492188,0.253555297851562,0.0550603229051702,0.0655893965909075,-0.0187973899221063
1492617104.8,40.4787288038573,-79.9228831718239,15.289999961853,0.0172882080078125,-1.01705932617188,0.13177490234375,-0.0723884468538798,0.0100449109995609,0.00349779577571007
1492617105.0,40.4787288038573,-79.9228831718239,15.289999961853,0.136260986328125,-0.959136962890625,0.102706909179688,0.0155560565593708,0.0201036704367902,-0.0361438896823374
1492617105.2,40.4788855129408,-79.9227862921446,15.289999961853,0.025299072265625,-0.948089599609375,0.144012451171875,-0.0809893919103997,-0.0569058935405951,0.0504959311128834
1492617105.4,40.4788855129408,-79.9227862921446,15.289999961853,0.10296630859375,-0.997207641601562,0.100814819335938,-0.0190133722865117,0.0437381598468074,0.0124870297191635
1492617105.6,40.4788855129408,-79.9227862921446,15.289999961853,-0.038787841796875,-0.946853637695312,0.09417724609375,-0.060899303595169,-0.0932045128822662,0.0411993683796348
1492617105.8,40.4788855129408,-79.9227862921446,15.289999961853,0.0208892822265625,-0.994873046875,0.0340576171875,0.0478298405456051,-0.0673177881383689,0.0475768402420476
1492617106.0,40.4788855129408,-79.9227862921446,15.289999961853,0.0965576171875,-0.988052368164062,0.07977294921875,-0.00451325909935728,-0.0201801031600754,0.00746936790934524
1492617106.2,40.4790082801363,-79.9227103650558,14.6400003433228,-0.03839111328125,-1.05966186523438,0.057220458984375,0.023391609118602,-0.0682232629089959,0.0430641137749083
1492617106.4,40.4790082801363,-79.9227103650558,14.6400003433228,0.03173828125,-0.986709594726562,0.0088958740234375,-0.0308146380249798,-0.00511939456345932,-0.00776577773867106
1492617106.6,40.4790082801363,-79.9227103650558,14.6400003433228,0.112823486328125,-1.04574584960938,-0.0133514404296875,0.0583743605656648,0.0698216921952614,-0.0251716659912109
1492617106.8,40.4790082801363,-79.9227103650558,14.6400003433228,0.006134033203125,-1.05374145507812,-0.0915985107421875,-0.0851564400680467,-0.0270931367177031,0.0599722572197124
1492617107.0,40.4790082801363,-79.9227103650558,14.6400003433228,0.0376129150390625,-1.00106811523438,-0.014862060546875,-0.00383734881469517,-0.0329456995292612,0.0288335124900699
1492617107.2,40.4791172862181,-79.9226429487202,12.8500003814697,0.0332183837890625,-0.973312377929688,0.016571044921875,-0.0445581471464428,-0.051826446393487,0.0369950359667267
1492617107.4,40.4791172862181,-79.9226429487202,12.8500003814697,0.0184478759765625,-0.993484497070312,-0.0140838623046875,-0.0257993730601426,0.0214344520335027,-0.0482990895296771
1492617107.6,40.4791172862181,-79.9226429487202,12.8500003814697,0.0281829833984375,-1.04421997070312,-0.01806640625,-0.0583538542252712,0.0259085626648359,-0.00173052207633349
1492617107.8,40.4791172862181,-79.9226429487202,12.8500003814697,-1.52587890625e-05,-0.908172607421875,0.0319366455078125,-0.0827992761872176,-0.0377492431874372,0.0376333956800187
1492617108.0,40.4791172862181,-79.9226429487202,12.8500003814697,-0.0241546630859375,-1.06283569335938,-0.0208892822265625,0.013310212812107,-0.0298670853091296,0.0226038460681565
1492617108.2,40.4792068490998,-79.9225875573036,10.5100002288818,0.0054168701171875,-0.996063232421875,-0.008880615234375,0.00248179981984484,-0.0500069747367449,0.0246773832928922
1492617108.4,40.4792068490998,-79.9225875573036,10.5100002288818,0.0269927978515625,-1.02543640136719,0.037811279296875,-0.030280674226419,0.0406148045203624,-0.0217391176622078
1492617108.6,40.4792068490998,-79.9225875573036,10.5100002288818,0.01776123046875,-1.00926208496094,0.0708770751953125,-0.00527305895835689,-0.0127320405394508,-0.0106832707128529
1492617108.8,40.4792068490998,-79.9225875573036,10.5100002288818,-0.03277587890625,-1.01824951171875,0.0366668701171875,-0.0107716876610435,-0.0860848180240483,0.0395617906253451
1492617109.0,40.4792068490998,-79.9225875573036,10.5100002288818,-0.010223388671875,-0.964431762695312,0.0063018798828125,0.00311030583710354,-0.017040236234872,-0.00312282269422691
1492617109.2,40.4792795855503,-79.9225425724287,8.59000015258789,0.0246429443359375,-0.861160278320312,0.0181884765625,-0.0670741088986267,-0.00488290585866028,-0.00387276885719323
1492617109.4,40.4792795855503,-79.9225425724287,8.59000015258789,-0.0568695068359375,-1.00967407226562,0.05133056640625,-0.0647014986834751,-0.0772279431867718,0.0165962872811558
1492617109.6,40.4792795855503,-79.9225425724287,8.59000015258789,-0.064117431640625,-0.997085571289062,0.074066162109375,0.00354972741696662,0.0063556339414741,-0.0223705531566656
1492617109.8,40.4792795855503,-79.9225425724287,8.59000015258789,-0.0069427490234375,-0.9744873046875,0.07257080078125,0.0263035094544946,-0.0980256334036366,0.0474356927042734
1492617110.0,40.4792795855503,-79.9225425724287,8.59000015258789,-0.0355072021484375,-0.988571166992188,0.0770721435546875,-0.000273506643951138,-0.102108525670837,0.041843054415107
1492617110.2,40.4793491234216,-79.9224995657598,7.38000011444092,-0.0969390869140625,-0.973068237304688,0.0888671875,-0.0385186304263611,-0.141221839968613,0.0138308608052175
1492617110.4,40.4793491234216,-79.9224995657598,7.38000011444092,-0.0159759521484375,-1.0272216796875,0.120559692382812,-0.0357521386859867,-0.0199851597682816,-0.044029243353953
1492617110.6,40.4793491234216,-79.9224995657598,7.38000011444092,0.0598602294921875,-0.953659057617188,0.109024047851562,-0.0651843297891065,-0.0485086803074663,-0.0101381216377136
1492617110.8,40.4793491234216,-79.9224995657598,7.38000011444092,0.0025634765625,-1.04869079589844,0.058074951171875,-0.0126635972994358,-0.0531095574066872,-0.0373100879236831
1492617111.0,40.4793491234216,-79.9224995657598,7.38000011444092,-0.037139892578125,-0.966644287109375,0.059906005859375,-0.00592153868379119,-0.0776127699642882,0.00120587934158788
1492617111.2,40.4794036543515,-79.9224658403437,6.17000007629395,-0.033447265625,-1.01850891113281,0.0864715576171875,-0.00883876534186398,-0.0797246567087211,-0.0201428189048143
1492617111.4,40.4794036543515,-79.9224658403437,6.17000007629395,-0.0318450927734375,-0.973358154296875,0.0130767822265625,-0.0604401746232393,0.0173986977175967,-0.0870270444177184
1492617111.6,40.4794036543515,-79.9224658403437,6.17000007629395,0.128524780273438,-1.01173400878906,0.0142822265625,0.00826485412695191,-0.0415394540508379,-0.00407303857116719
1492617111.8,40.4794036543515,-79.9224658403437,6.17000007629395,0.0539093017578125,-1.00483703613281,0.011383056640625,-0.0426931354350603,-0.0252526260883494,-0.00676922285876341
1492617112.0,40.4794036543515,-79.9224658403437,6.17000007629395,0.011260986328125,-1.04301452636719,0.0784149169921875,-0.0079418126867253,-0.102068578254486,-0.0200759735614533
1492617112.2,40.4794215644155,-79.9223813229054,4.73000001907349,0.0353851318359375,-0.980880737304688,0.0977783203125,-0.00884142850295406,-0.0605759958388333,-0.00953012196084855
1492617112.4,40.4794215644155,-79.9223813229054,4.73000001907349,0.054046630859375,-0.96746826171875,0.119171142578125,0.00660011212954338,-0.0245130662536343,-0.0286569449097976
1492617112.6,40.4794215644155,-79.9223813229054,4.73000001907349,0.04754638671875,-1.01568603515625,0.173797607421875,0.0147650977156173,-0.0734973871317888,-0.0295131512002581
1492617112.8,40.4794215644155,-79.9223813229054,4.73000001907349,0.0107879638671875,-0.982330322265625,0.174606323242188,0.00173611471462266,-0.11807737219917,0.0419048397523968
1492617113.0,40.4794215644155,-79.9223813229054,4.73000001907349,0.09423828125,-0.950469970703125,0.175643920898438,0.0114396084624354,0.0254478357962522,-0.0436633250201761
1492617113.2,40.4794524936382,-79.9223500584065,3.99000000953674,0.153488159179688,-0.986038208007812,0.16107177734375,0.0163251774821857,0.0275488035802157,-0.0105660916248894
1492617113.4,40.4794524936382,-79.9223500584065,3.99000000953674,0.11712646484375,-0.966323852539062,0.202239990234375,0.00845260698380249,0.0361153938586736,0.0245162620469424
1492617113.6,40.4794524936382,-79.9223500584065,3.99000000953674,0.173583984375,-0.959945678710938,0.14404296875,-0.0395889548684639,0.104500843278055,-0.00707229059081443
1492617113.8,40.4794524936382,-79.9223500584065,3.99000000953674,0.18817138671875,-0.980941772460938,0.18084716796875,-0.0442894341924538,0.152395664954258,-0.0264358685606716
1492617114.0,40.4794524936382,-79.9223500584065,3.99000000953674,0.258377075195312,-0.9490966796875,0.1768798828125,-0.00567892470848497,0.253190985891577,-0.0689492406221515
1492617114.2,40.4794787709047,-79.9223254994302,3.58999991416931,0.1656494140625,-0.938949584960938,0.170822143554688,-0.0457504443664712,0.23750230390992,-0.028802886137534
1492617114.4,40.4794787709047,-79.9223254994302,3.58999991416931,0.234466552734375,-0.99560546875,0.140655517578125,-0.0497278754545046,0.305596403506048,-0.0897935361580927
1492617114.6,40.4794787709047,-79.9223254994302,3.58999991416931,0.251678466796875,-0.973342895507812,0.12225341796875,-0.0555508771779628,0.338618269442485,-0.0355614563519371
1492617114.8,40.4794787709047,-79.9223254994302,3.58999991416931,0.228469848632812,-0.999862670898438,0.126922607421875,-0.022854715842842,0.43625508132697,-0.114378507761159
1492617115.0,40.4794787709047,-79.9223254994302,3.58999991416931,0.281845092773438,-0.965118408203125,0.1163330078125,-0.0380898614908583,0.484229531519766,-0.0645462363919235
1492617115.2,40.4794904938708,-79.9224121332287,3.3199999332428,0.19903564453125,-0.974578857421875,0.12298583984375,-0.0324213231106246,0.485252451694466,-0.0890137625909175
1492617115.4,40.4794904938708,-79.9224121332287,3.3199999332428,0.269561767578125,-0.985031127929688,0.113037109375,-0.0600106067394095,0.546055615174283,-0.140631417154942
1492617115.6,40.4794904938708,-79.9224121332287,3.3199999332428,0.281204223632812,-0.988372802734375,0.0802154541015625,-0.0302899952902342,0.562884396418603,-0.124377346073862
1492617115.8,40.4794904938708,-79.9224121332287,3.3199999332428,0.222976684570312,-0.993865966796875,0.076507568359375,-0.0154809554166306,0.571299719147144,-0.112519088688066
1492617116.0,40.4794904938708,-79.9224121332287,3.3199999332428,0.240615844726562,-0.997024536132812,0.0780792236328125,-0.042045454657953,0.638479555541047,-0.157745422952009
1492617116.2,40.479490113444,-79.9224123685089,2.75,0.256637573242188,-0.968460083007812,0.0938873291015625,-0.0222696193513516,0.626654321352768,-0.130857083322133
1492617116.4,40.479490113444,-79.9224123685089,2.75,0.24835205078125,-0.933242797851562,0.145217895507812,-0.0519068738584074,0.644942248558342,-0.0565727320882262
1492617116.6,40.479490113444,-79.9224123685089,2.75,0.08343505859375,-0.893356323242188,0.199966430664062,-0.0467970666748724,0.611920915254123,-0.13640125207946
1492617116.8,40.479490113444,-79.9224123685089,2.75,0.209548950195312,-0.951339721679688,0.192489624023438,-0.11418223278882,0.617669348467059,-0.189350487188525
1492617117.0,40.479490113444,-79.9224123685089,2.75,0.207061767578125,-0.959579467773438,0.113296508789062,-0.122383703681828,0.63900766038521,-0.123384253303371
1492617117.2,40.4795406293501,-79.9223612901568,2.80999994277954,0.191986083984375,-0.992401123046875,0.113265991210938,-0.150309078240181,0.638128284593266,-0.106608468964744
1492617117.4,40.4795406293501,-79.9223612901568,2.80999994277954,0.19879150390625,-0.976760864257812,0.0517120361328125,-0.0539678942260197,0.6417509826241,-0.140816506850703
1492617117.6,40.4795406293501,-79.9223612901568,2.80999994277954,0.221649169921875,-0.990386962890625,0.101486206054688,-0.0373497690239253,0.669294459882136,-0.172703866162767
1492617117.8,40.4795406293501,-79.9223612901568,2.80999994277954,0.206161499023438,-0.983612060546875,0.059539794921875,-0.0318069318471434,0.65224729942843,-0.120358635988932
1492617118.0,40.4795406293501,-79.9223612901568,2.80999994277954,0.221099853515625,-1.00523376464844,0.0743560791015625,-0.0216411133340929,0.659621059854641,-0.158657289309253
1492617118.2,40.4795406293501,-79.9223612901568,2.80999994277954,0.255096435546875,-0.971466064453125,0.06201171875,-0.0282279096581859,0.670304330567494,-0.138494230380154
1492617118.4,40.4795406293501,-79.9223612901568,2.80999994277954,0.252975463867188,-0.983291625976562,0.125274658203125,-0.0608111529630873,0.680085588619137,-0.164442207829123
1492617118.6,40.4795342171942,-79.9223919679224,2.92000007629395,0.248870849609375,-0.977996826171875,0.119094848632812,-0.0269820829002468,0.678804608134809,-0.147033123783275
1492617118.8,40.4795342171942,-79.9223919679224,2.92000007629395,0.15435791015625,-0.98101806640625,0.154083251953125,-0.0164311712935709,0.61385703336661,-0.0977116467111163
1492617119.0,40.4795342171942,-79.9223919679224,2.92000007629395,0.1190185546875,-0.9700927734375,0.223373413085938,-0.0110875385663269,0.575524824216555,-0.11994850918106
1492617119.2,40.4795123823364,-79.9224155210703,3.17000007629395,0.187850952148438,-0.965530395507812,0.236526489257812,-0.0186844718918869,0.53302343637998,-0.132711176073047
1492617119.4,40.4795123823364,-79.9224155210703,3.17000007629395,0.186843872070312,-0.945587158203125,0.27276611328125,-0.0265477213264549,0.497973573273447,-0.122039090636772
1492617119.6,40.4795123823364,-79.9224155210703,3.17000007629395,0.12353515625,-0.93731689453125,0.30487060546875,-0.00227513851925469,0.41698098556974,-0.0725357196621612
1492617119.8,40.4795123823364,-79.9224155210703,3.17000007629395,0.090362548828125,-0.931167602539062,0.307403564453125,-0.0327840456510934,0.345912135035994,-0.0609363215343211
1492617120.0,40.4795123823364,-79.9224155210703,3.17000007629395,0.0299835205078125,-0.940185546875,0.332183837890625,-0.0223796079043719,0.222457574279845,-0.0327896382893826
1492617120.2,40.4794804891948,-79.9224329554289,4.05000019073486,0.0699462890625,-0.928466796875,0.32806396484375,-0.0144836015883959,0.141563789852579,-0.0314338229784233
1492617120.4,40.4794804891948,-79.9224329554289,4.05000019073486,0.0547027587890625,-0.962677001953125,0.330856323242188,0.00363548120406717,0.124424750341265,-0.0418662239165907
1492617120.6,40.4794804891948,-79.9224329554289,4.05000019073486,0.0148773193359375,-0.854171752929688,0.354385375976562,-0.0395775032757766,0.0364291142350849,0.0325534159006926
1492617120.8,40.4794804891948,-79.9224329554289,4.05000019073486,0.0078582763671875,-0.937164306640625,0.349258422851562,-0.027560521489012,0.0320921563998909,0.00816471926996493
1492617121.0,40.4794804891948,-79.9224329554289,4.05000019073486,0.109664916992188,-0.901885986328125,0.303878784179688,-0.0850009114603861,0.0430907453858091,-0.0681529554562178
1492617121.2,40.4794395435978,-79.9224468693882,5.1100001335144,0.116287231445312,-0.941940307617188,0.304000854492188,0.0188767521225906,0.0349739630154656,-0.0372144804405493
1492617121.4,40.4794395435978,-79.9224468693882,5.1100001335144,0.0088043212890625,-0.926498413085938,0.363983154296875,-0.039019304711296,-0.110362194521211,0.0670567983515412
1492617121.6,40.4794395435978,-79.9224468693882,5.1100001335144,-0.0295257568359375,-0.950027465820312,0.402359008789062,-0.0850525767855336,-0.0717751208548346,0.0281022084547341
1492617121.8,40.4794395435978,-79.9224468693882,5.1100001335144,0.024871826171875,-0.982559204101562,0.340087890625,-0.0361082033237303,-0.0550720408139666,0.0402885672868277
1492617122.0,40.4794395435978,-79.9224468693882,5.1100001335144,0.0389862060546875,-0.878890991210938,0.323348999023438,-0.0294162121365792,-0.0263961874604294,0.0338857953940592
1492617122.2,40.4793884978075,-79.9224666506796,6.40999984741211,-0.0297698974609375,-0.943115234375,0.331756591796875,0.0262941883906793,-0.101216899337879,0.0463776188031849
1492617122.4,40.4793884978075,-79.9224666506796,6.40999984741211,0.016876220703125,-0.904098510742188,0.355621337890625,-0.0628351553915476,-0.0251226638271535,-0.0133730634138329
1492617122.6,40.4793884978075,-79.9224666506796,6.40999984741211,-0.017181396484375,-0.960968017578125,0.298736572265625,-0.00439874317248388,-0.0244374324786761,-0.00318061328988163
1492617122.8,40.4793884978075,-79.9224666506796,6.40999984741211,-0.0028839111328125,-0.894699096679688,0.334381103515625,0.0601837122102647,-0.059958941414262,0.00503577130523083
1492617123.0,40.4793884978075,-79.9224666506796,6.40999984741211,0.0996246337890625,-0.954940795898438,0.280868530273438,-0.0305302124205594,-0.0348988618727254,0.0328301183379518
1492617123.2,40.479328986295,-79.9224963226169,7.51999998092651,0.037322998046875,-0.998031616210938,0.337600708007812,0.00490074903796381,0.0191092460857546,-0.0362504161259406
1492617123.4,40.479328986295,-79.9224963226169,7.51999998092651,-0.0811004638671875,-0.98577880859375,0.364822387695312,0.0589597233732643,0.0293986352733847,-0.012266786297014
1492617123.6,40.479328986295,-79.9224963226169,7.51999998092651,0.0373687744140625,-0.954864501953125,0.3402099609375,-0.048533447705604,-0.0432934119447641,0.020939104070748
1492617123.8,40.479328986295,-79.9224963226169,7.51999998092651,0.024200439453125,-1.00555419921875,0.276657104492188,-0.0545569854591453,-0.0453861239293484,-0.00683873136321448
1492617124.0,40.479328986295,-79.9224963226169,7.51999998092651,0.023193359375,-0.919952392578125,0.255813598632812,-0.00224238163784672,-0.154211940817692,0.0792748488006067
1492617124.2,40.4792581592132,-79.9225374777614,8.68000030517578,0.081329345703125,-0.936798095703125,0.3597412109375,-0.0546395434529377,-0.0719799179426616,-0.0153006594108322
1492617124.4,40.4792581592132,-79.9225374777614,8.68000030517578,0.0149078369140625,-0.924102783203125,0.318679809570312,0.00689439142999713,0.0127149963084743,-0.0298162189323091
1492617124.6,40.4792581592132,-79.9225374777614,8.68000030517578,-0.0298919677734375,-1.04808044433594,0.302749633789062,0.0361710539254562,-0.0523492249154696,0.0516837009590588
1492617124.8,40.4792581592132,-79.9225374777614,8.68000030517578,0.0256195068359375,-0.935684204101562,0.300445556640625,-0.06735240923254,-0.0165797756823973,0.010015349911461
1492617125.0,40.4792581592132,-79.9225374777614,8.68000030517578,0.0117645263671875,-0.979034423828125,0.303329467773438,0.0798982948117943,-0.0877402389576416,0.0276998048140232
1492617125.2,40.4791818419848,-79.9225825724005,9.57999992370605,0.023345947265625,-0.9332275390625,0.260101318359375,-0.011359979945842,0.0521841089278847,-0.0748859593241561
1492617125.4,40.4791818419848,-79.9225825724005,9.57999992370605,0.100921630859375,-0.948745727539062,0.283111572265625,0.0031190942687008,-0.0659633044079546,0.0471155807412459
1492617125.6,40.4791818419848,-79.9225825724005,9.57999992370605,0.0090484619140625,-0.91717529296875,0.23858642578125,-0.0288516219854824,-0.00193878127357769,0.0061068946956607
1492617125.8,40.4791818419848,-79.9225825724005,9.57999992370605,-0.06695556640625,-0.941726684570312,0.250137329101562,0.00741317521034457,-0.00536680222872768,8.97485287356703e-05
1492617126.0,40.4791818419848,-79.9225825724005,9.57999992370605,0.0233001708984375,-0.987503051757812,0.258773803710938,0.0272401432098755,0.0338575658865044,-0.0264638317521174
1492617126.2,40.4791039321949,-79.922631355077,9.84000015258789,0.134597778320312,-0.92236328125,0.185150146484375,-0.018621088657943,-0.0594462829044217,0.00529383161485951
1492617126.4,40.4791039321949,-79.922631355077,9.84000015258789,0.0458831787109375,-1.01173400878906,0.1685791015625,-0.0386653706024244,0.0310934709911111,-0.0367273882771738
1492617126.6,40.4791039321949,-79.922631355077,9.84000015258789,0.00909423828125,-0.881683349609375,0.212554931640625,-0.0692049040867991,-0.0304005164754725,-0.0176895149086333
1492617126.8,40.4791039321949,-79.922631355077,9.84000015258789,0.106597900390625,-0.99462890625,0.181243896484375,-0.0758851773651538,0.132384672523403,-0.0629589923822362
1492617127.0,40.4791039321949,-79.922631355077,9.84000015258789,0.08154296875,-0.9637451171875,0.134063720703125,-0.0100315951941105,0.0872781805085128,-0.0749629246796594
1492617127.2,40.4790272377808,-79.9226818141341,9.72999954223633,0.0382232666015625,-1.07405090332031,0.151382446289062,-0.0236691105041882,-0.0168642012868178,0.00833090052198587
1492617127.4,40.4790272377808,-79.9226818141341,9.72999954223633,0.102096557617188,-0.957916259765625,0.159408569335938,-0.0432912814158921,0.0811145604816334,-0.0603605461066459
1492617127.6,40.4790272377808,-79.9226818141341,9.72999954223633,0.07049560546875,-0.990509033203125,0.125213623046875,-0.0313286281153651,-0.0189396027243165,0.0221186181175441
1492617127.8,40.4790272377808,-79.9226818141341,9.72999954223633,0.0904388427734375,-0.947845458984375,0.121139526367188,-0.0102483765068429,-0.057371414099141,0.0171025542043799
1492617128.0,40.4790272377808,-79.9226818141341,9.72999954223633,0.0292205810546875,-0.970077514648438,0.0878753662109375,-0.0250587479609916,-0.0445104765629303,0.0169177308247284
1492617128.2,40.478954943866,-79.922732021734,9.10000038146973,0.0396575927734375,-0.965103149414062,0.088348388671875,-0.03216486069765,-0.0912636010798164,0.0436209807588439
1492617128.4,40.478954943866,-79.922732021734,9.10000038146973,-0.01824951171875,-0.988174438476562,0.09393310546875,0.00203438875671153,-0.0744665114524686,0.043927776916421
1492617128.6,40.478954943866,-79.922732021734,9.10000038146973,-0.001434326171875,-0.999404907226562,0.0498504638671875,-0.00705551267594693,-0.0595197861505079,0.0160745740236093
1492617128.8,40.478954943866,-79.922732021734,9.10000038146973,0.0090179443359375,-1.05838012695312,0.119827270507812,0.0299496433029221,0.0317179822667347,0.00768827975094975
1492617129.0,40.478954943866,-79.922732021734,9.10000038146973,0.012298583984375,-1.07453918457031,0.111404418945312,-0.0658658327120577,0.10465530662128,-0.109698268461454
1492617129.2,40.4788868409027,-79.9227754399925,7.92999982833862,0.0747833251953125,-1.02055358886719,0.142318725585938,0.0227708262685045,0.0370805234377183,-0.00945848292752542
1492617129.4,40.4788868409027,-79.9227754399925,7.92999982833862,-0.0267181396484375,-0.961090087890625,0.0282135009765625,-0.0228339431863394,-0.0955765904651997,0.0597208548128089
1492617129.6,40.4788868409027,-79.9227754399925,7.92999982833862,0.0540771484375,-0.991363525390625,0.0432891845703125,-0.0165044082235481,0.0415897877954404,-0.0162695174154031
1492617129.8,40.4788868409027,-79.9227754399925,7.92999982833862,0.124420166015625,-0.98907470703125,0.0301971435546875,-0.0238033338231282,0.15650225935516,-0.120063557740151
1492617130.0,40.4788868409027,-79.9227754399925,7.92999982833862,0.0897674560546875,-0.98333740234375,0.07183837890625,-0.0409492975532764,0.0534501757101083,-0.0133517581251123
1492617130.2,40.4788312688847,-79.9228133261948,6.34000015258789,0.19024658203125,-1.04832458496094,0.0128326416015625,-0.0415554330173784,0.18215755540033,-0.0542062471435818
1492617130.4,40.4788312688847,-79.9228133261948,6.34000015258789,0.257431030273438,-0.994766235351562,0.0413818359375,-0.0211026221616789,0.261795393057514,-0.10431442200175
1492617130.6,40.4788312688847,-79.9228133261948,6.34000015258789,0.255203247070312,-0.976593017578125,0.086517333984375,-0.00487172058208195,0.153202869080661,-0.0271005935687553
1492617130.8,40.4788312688847,-79.9228133261948,6.34000015258789,0.295318603515625,-0.988937377929688,0.08154296875,-0.0310034561462665,0.268246368166013,-0.0777770870035461
1492617131.0,40.4788312688847,-79.9228133261948,6.34000015258789,0.258255004882812,-0.997955322265625,0.138946533203125,-0.0191702324747174,0.297954729074174,-0.0702691032583947
1492617131.2,40.4787847912316,-79.922832436934,4.75,0.235336303710938,-0.999038696289062,0.12652587890625,-0.00383974565967625,0.280841522225434,-0.0327504898213584
1492617131.4,40.4787847912316,-79.922832436934,4.75,0.323944091796875,-0.958206176757812,0.140380859375,-0.0223311383725324,0.327761626942668,-0.0565176046536616
1492617131.6,40.4787847912316,-79.922832436934,4.75,0.295089721679688,-0.891281127929688,0.177017211914062,-0.0350844842007039,0.32572910239872,0.0179920500084663
1492617131.8,40.4787847912316,-79.922832436934,4.75,0.2218017578125,-0.989013671875,0.170761108398438,-0.0504208299701432,0.39923687585876,0.0890816731987145
1492617132.0,40.4787847912316,-79.922832436934,4.75,0.118087768554688,-0.8907470703125,0.205337524414062,-0.0652114940322253,0.405689715180022,-0.071018516789143
1492617132.2,40.4787425883491,-79.9228278268873,4.23999977111816,0.232696533203125,-0.995223999023438,0.174835205078125,-0.0584923386019554,0.435416451899704,-0.156323561246016
1492617132.4,40.4787425883491,-79.9228278268873,4.23999977111816,0.204513549804688,-0.988922119140625,0.170944213867188,-0.0602873091766688,0.446087205755434,-0.0198940796590009
1492617132.6,40.4787425883491,-79.9228278268873,4.23999977111816,0.153274536132812,-0.95220947265625,0.185470581054688,-0.00387063832832116,0.392517454112381,-0.124733410711605
1492617132.8,40.4787425883491,-79.9228278268873,4.23999977111816,0.257095336914062,-0.981109619140625,0.185134887695312,-0.0110867396179999,0.443624580695437,-0.114277041323627
1492617133.0,40.4787425883491,-79.9228278268873,4.23999977111816,0.186187744140625,-0.987014770507812,0.209625244140625,-0.0276183120846667,0.413951906145884,-0.0898467993798942
1492617133.2,40.4787082644556,-79.9228021782636,4.32999992370605,0.115463256835938,-0.982620239257812,0.189239501953125,0.000374174133156133,0.468008217320094,-0.160069829951431
1492617133.4,40.4787082644556,-79.9228021782636,4.32999992370605,0.13934326171875,-0.893783569335938,0.243118286132812,-0.0640681989762543,0.343980277981251,-0.110297479706722
1492617133.6,40.4787082644556,-79.9228021782636,4.32999992370605,0.122894287109375,-1.03987121582031,0.191131591796875,0.0190008554293883,0.328546460515914,-0.119003086994082
1492617133.8,40.4787082644556,-79.9228021782636,4.32999992370605,0.155014038085938,-1.06260681152344,0.234100341796875,0.071722123949142,0.277146652529058,-0.108734736779063
1492617134.0,40.4787082644556,-79.9228021782636,4.32999992370605,0.115325927734375,-0.841796875,0.290069580078125,0.0586390787780187,0.220853286039181,-0.117253123841791
1492617134.2,40.4786768323187,-79.9227580056339,5.03000020980835,0.227874755859375,-0.914093017578125,0.274871826171875,-0.00830240469832202,0.259596687261545,-0.029542712288358
1492617134.4,40.4786768323187,-79.9227580056339,5.03000020980835,-0.0218353271484375,-0.992630004882812,0.31219482421875,-0.031928105676742,0.202319282748884,0.0311374131490974
1492617134.6,40.4786768323187,-79.9227580056339,5.03000020980835,-0.0260772705078125,-0.874603271484375,0.310333251953125,-0.0594452176399857,0.053575077965233,0.0152463309245946
1492617134.8,40.4786768323187,-79.9227580056339,5.03000020980835,0.252197265625,-0.9359130859375,0.296707153320312,-0.018116685947482,0.205408815929485,-0.0422979223292925
1492617135.0,40.4786768323187,-79.9227580056339,5.03000020980835,0.0074005126953125,-0.943313598632812,0.324691772460938,0.0318713803455233,0.039154593294672,0.0268806164627148
1492617135.2,40.4786500521381,-79.9226989970356,5.82000017166138,0.0838165283203125,-0.86834716796875,0.334640502929688,0.00685231348477388,0.102063518248415,-0.0556363646489544
1492617135.4,40.4786500521381,-79.9226989970356,5.82000017166138,0.04925537109375,-0.948028564453125,0.337020874023438,-0.0444963618091529,0.0279458808987465,-0.00159390191241242
1492617135.6,40.4786500521381,-79.9226989970356,5.82000017166138,-0.082275390625,-0.8912353515625,0.35321044921875,0.0328495594139094,0.029574936537548,0.0279815672573535
1492617135.8,40.4786500521381,-79.9226989970356,5.82000017166138,-0.031005859375,-0.865509033203125,0.3330078125,-0.0802996331880692,0.027122697805803,0.0460212878493323
1492617136.0,40.4786500521381,-79.9226989970356,5.82000017166138,0.0159454345703125,-1.06756591796875,0.36663818359375,-0.0543532536357542,0.0226941272291102,0.0153781573985536
1492617136.2,40.4786266666283,-79.922631355077,6.92000007629395,0.121185302734375,-0.99822998046875,0.29229736328125,-0.0415889888471134,-0.013545902568579,0.074244137501447
1492617136.4,40.4786266666283,-79.922631355077,6.92000007629395,0.129974365234375,-0.9281005859375,0.347640991210938,-0.0607831897716415,0.129092739099956,-0.0787890882177762
1492617136.6,40.4786266666283,-79.922631355077,6.92000007629395,-0.09759521484375,-0.939178466796875,0.366912841796875,-0.128026409399488,0.146552955838733,-0.0581983256176106
1492617136.8,40.4786266666283,-79.922631355077,6.92000007629395,-0.07086181640625,-0.924209594726562,0.417373657226562,0.025880333157281,0.0817289517451147,-0.0564552866841537
1492617137.0,40.4786266666283,-79.922631355077,6.92000007629395,0.008575439453125,-0.892242431640625,0.311813354492188,-0.0475166528014118,-0.0496823353998642,0.0209660019977578
1492617137.2,40.4785998864476,-79.9225498829781,7.84000015258789,0.0361785888671875,-0.99578857421875,0.2239990234375,0.0227942620860972,-0.0235447408812815,0.0333467715894272
1492617137.4,40.4785998864476,-79.9225498829781,7.84000015258789,-0.0872039794921875,-0.996368408203125,0.273452758789062,0.0177813939662411,0.0211518906418453,-0.0425210952286411
1492617137.6,40.4785998864476,-79.9225498829781,7.84000015258789,-0.145843505859375,-0.749374389648438,0.328338623046875,-0.139680136013566,-0.0660969950946766,0.0541836102743161
1492617137.8,40.4785998864476,-79.9225498829781,7.84000015258789,-0.0059814453125,-0.942611694335938,0.312393188476562,0.0245761831714692,-0.0990829083563981,0.0175667431823807
1492617138.0,40.4785998864476,-79.9225498829781,7.84000015258789,-0.110794067382812,-0.916946411132812,0.3121337890625,-0.0124966170990878,0.0777238237817446,-0.0557716532323304
1492617138.2,40.4785700887819,-79.9224632979184,8.35000038146973,0.0837249755859375,-1.00489807128906,0.2801513671875,-0.00114329505597102,-0.00850214178007797,0.00107644971261003
1492617138.4,40.4785700887819,-79.9224632979184,8.35000038146973,-0.109115600585938,-0.982711791992188,0.247451782226562,0.0347113753319838,-0.0119227058841757,0.0249090783077291
1492617138.6,40.4785700887819,-79.9224632979184,8.35000038146973,-0.119033813476562,-0.95513916015625,0.18798828125,-0.0250600795415366,-0.0583400057876028,0.00948990822838836
1492617138.8,40.4785700887819,-79.9224632979184,8.35000038146973,-0.125350952148438,-0.96600341796875,0.32720947265625,0.0756047465023685,-0.0494146877103113,0.0510136496287948
1492617139.0,40.4785700887819,-79.9224632979184,8.35000038146973,-0.107940673828125,-1.15333557128906,0.319412231445312,-0.0763717368963113,0.0175142789089061,-0.0125554729591786
1492617139.2,40.4785363935311,-79.9223746173828,8.47000026702881,-0.0823974609375,-0.94952392578125,0.169998168945312,-0.0416976458195886,-0.00717349071223744,0.00812130974419664
1492617139.4,40.4785363935311,-79.9223746173828,8.47000026702881,-0.0264434814453125,-1.0611572265625,0.215225219726562,-0.0619248869309585,-0.0261905914242753,-0.0026988474486863
1492617139.6,40.4785363935311,-79.9223746173828,8.47000026702881,-0.0135040283203125,-0.988983154296875,0.175552368164062,0.0105727495276146,-0.0373012994920858,-0.014722487138176
1492617139.8,40.4785363935311,-79.9223746173828,8.47000026702881,-0.0004425048828125,-0.9852294921875,0.238571166992188,-0.0574808700199433,-0.0113282883288701,-0.00802277278386371
1492617140.0,40.4785363935311,-79.9223746173828,8.47000026702881,-0.0350799560546875,-1.02925109863281,0.212997436523438,0.052362274404811,-0.0588523979813341,-0.0451592226044736
1492617140.2,40.4784995131572,-79.9222860206663,8.34000015258789,0.0809173583984375,-0.992813110351562,0.17645263671875,-0.00263067052478027,-0.149962068350144,0.0323464882839934
1492617140.4,40.4784995131572,-79.9222860206663,8.34000015258789,0.0991973876953125,-0.910446166992188,0.248031616210938,-0.0260710154913307,0.0437794388437036,-0.0163731143818072
1492617140.6,40.4784995131572,-79.9222860206663,8.34000015258789,0.093475341796875,-0.968093872070312,0.205490112304688,-0.0110089753141696,0.0234672428935602,-0.0385569799460582
1492617140.8,40.4784995131572,-79.9222860206663,8.34000015258789,0.0340118408203125,-0.949295043945312,0.23699951171875,-0.00185782117643928,0.00107272128708392,-0.0192136420004857
1492617141.0,40.4784995131572,-79.9222860206663,8.34000015258789,0.152984619140625,-1.00660705566406,0.180465698242188,0.0513239078957891,0.0975095127843792,-0.117009710918157
1492617141.2,40.4784645187114,-79.9221969210356,8.14000034332275,-0.235443115234375,-1.00910949707031,0.382431030273438,-0.0597608022291601,0.0525170040641446,0.0376363251572178
1492617141.4,40.4784645187114,-79.9221969210356,8.14000034332275,-0.449905395507812,-0.815399169921875,0.0874176025390625,0.00234278281094271,0.23717500141195,-0.118937839547375
1492617141.6,40.4784645187114,-79.9221969210356,8.14000034332275,0.0481719970703125,-1.03192138671875,0.250167846679688,-2.26368692656735e-05,0.0340423892661559,0.0201699831479331
1492617141.8,40.4784645187114,-79.9221969210356,8.14000034332275,0.002899169921875,-0.949615478515625,0.195724487304688,-0.00944809659927411,-0.019088739745361,-0.0203055380474182
1492617142.0,40.4784645187114,-79.9221969210356,8.14000034332275,-0.20166015625,-0.795883178710938,0.1630859375,0.0574102962510562,0.00388288886933553,0.00910747829585298
1492617142.2,40.4784325836603,-79.9221136049181,8.02000045776367,0.063201904296875,-0.909225463867188,0.29931640625,-0.0858432693131781,0.0356469438229286,-0.0884004365918722
1492617142.4,40.4784325836603,-79.9221136049181,8.02000045776367,-0.0532684326171875,-1.23155212402344,0.096893310546875,0.392429303480299,-0.0302058393997877,0.0222214161356212
1492617142.6,40.4784325836603,-79.9221136049181,8.02000045776367,-0.0229949951171875,-0.846847534179688,0.188552856445312,-0.0898582509725816,-0.121749072394062,-0.0368570842222606
1492617142.8,40.4784325836603,-79.9221136049181,8.02000045776367,-0.216629028320312,-1.16969299316406,0.17987060546875,-0.1980654155397,0.0193731653497814,0.00965049684212014
1492617143.0,40.4784325836603,-79.9221136049181,8.02000045776367,-0.0143280029296875,-1.16122436523438,0.150222778320312,0.126453280143578,0.246974102642896,-0.310677182233701
1492617143.2,40.4784013191615,-79.9220330548286,7.61999988555908,0.234649658203125,-0.709274291992188,0.0343475341796875,-0.0269586470826541,-0.000896952655138687,-0.0535843990290483
1492617143.4,40.4784013191615,-79.9220330548286,7.61999988555908,0.114913940429688,-1.02629089355469,0.152328491210938,-0.125581627518795,0.23799632029213,-0.186354963594404
1492617143.6,40.4784013191615,-79.9220330548286,7.61999988555908,-0.01397705078125,-1.04129028320312,0.068389892578125,-0.0730236107738637,-0.0920694736256744,-0.00584111121887079
1492617143.8,40.4784013191615,-79.9220330548286,7.61999988555908,-0.07379150390625,-1.03811645507812,0.23773193359375,-0.0185430580380037,0.0596494820955948,-0.245573013593406
1492617144.0,40.4784013191615,-79.9220330548286,7.61999988555908,-0.103118896484375,-1.01121520996094,0.277496337890625,-0.0260904565672883,0.0639797820280636,-0.0814644998488698
1492617144.2,40.4783726949622,-79.9219569471478,6.96000003814697,-0.015411376953125,-0.835357666015625,0.06817626953125,0.255419785407865,0.129189145531417,0.0822477355254621
1492617144.4,40.4783726949622,-79.9219569471478,6.96000003814697,0.009033203125,-1.0137939453125,0.139877319335938,0.0680349774199273,-0.114269051840357,-0.0533854608956194
1492617144.6,40.4783726949622,-79.9219569471478,6.96000003814697,0.122390747070312,-0.844650268554688,0.182418823242188,-0.105937086053935,-0.0482402336695863,0.0107682255516264
1492617144.8,40.4783726949622,-79.9219569471478,6.96000003814697,0.132965087890625,-0.943145751953125,0.211166381835938,-0.0744497335376011,0.0866768387343729,0.195197457361794
1492617145.0,40.4783726949622,-79.9219569471478,6.96000003814697,-0.1258544921875,-1.07199096679688,-0.0167236328125,0.146444831498476,-0.156275624346395,-0.124976823635238
1492617145.2,40.4783459147815,-79.921886287704,6.48999977111816,0.119918823242188,-1.01542663574219,0.127700805664062,0.313317440138405,0.0341286756854744,0.0020535635165601
1492617145.4,40.4783459147815,-79.921886287704,6.48999977111816,-0.134109497070312,-0.95703125,0.172607421875,-0.0165957546489378,0.0405152022955935,-0.0877040199668165
1492617145.6,40.4783459147815,-79.921886287704,6.48999977111816,0.1446533203125,-0.845779418945312,0.158126831054688,-0.0825257695432664,0.00584963333435905,-0.0360450864058955
1492617145.8,40.4783459147815,-79.921886287704,6.48999977111816,0.0865631103515625,-1.07145690917969,0.148513793945312,0.0374347238626988,0.0359241788924059,0.00775405982987471
1492617146.0,40.4783459147815,-79.921886287704,6.48999977111816,-0.070404052734375,-0.922317504882812,0.160003662109375,0.0341577041413563,-0.156566175221322,0.141494015032019
1492617146.2,40.478320769072,-79.9218209088593,6.03999996185303,-0.19403076171875,-1.14608764648438,0.299072265625,0.0963153513515877,-0.147425673727952,-0.0370171402037744
1492617146.4,40.478320769072,-79.9218209088593,6.03999996185303,0.200149536132812,-0.812591552734375,0.04107666015625,-0.111277522987871,-0.000346210941710301,-0.0395221095251029
1492617146.6,40.478320769072,-79.9218209088593,6.03999996185303,-0.176803588867188,-0.976287841796875,0.131454467773438,-0.0827276371538944,-0.322814805217846,0.109806126485602
1492617146.8,40.478320769072,-79.9218209088593,6.03999996185303,0.07232666015625,-1.04435729980469,0.102432250976562,0.046514771599324,-0.174751304408819,0.00732449194604493
1492617147.0,40.478320769072,-79.9218209088593,6.03999996185303,0.2606201171875,-0.901565551757812,0.164932250976562,0.090981838636486,0.0430438737506237,0.144759316844565
1492617147.2,40.4782922706012,-79.9217644148319,5.71000003814697,-0.089813232421875,-0.872711181640625,0.2401123046875,-0.0651723455642011,0.00574550373573695,0.0185097685243777
1492617147.4,40.4782922706012,-79.9217644148319,5.71000003814697,0.224334716796875,-1.26277160644531,0.437362670898438,-0.0210128736329432,-0.0221942518925024,0.0446231282770407
1492617147.6,40.4782922706012,-79.9217644148319,5.71000003814697,0.0485076904296875,-0.934967041015625,0.122512817382812,-0.0355537331847758,0.0863924131299525,-0.000586960704253464
1492617147.8,40.4782922706012,-79.9217644148319,5.71000003814697,0.0661468505859375,-1.00556945800781,0.106643676757812,-0.0306109062015888,0.0512589267651911,0.00808402548893553
1492617148.0,40.4782922706012,-79.9217644148319,5.71000003814697,0.110076904296875,-1.00357055664062,-0.018798828125,-0.0387026548576855,0.0417322669137597,-0.0282255128132048
1492617148.2,40.4782671248917,-79.9217156321555,4.92000007629395,0.146408081054688,-0.953765869140625,-0.0372314453125,-0.0384603071984883,0.0895993917146259,-0.0198168479873886
1492617148.4,40.4782671248917,-79.9217156321555,4.92000007629395,0.12640380859375,-1.04183959960938,0.00103759765625,-0.0423637024082175,0.131109284677364,-0.0231625772648552
1492617148.6,40.4782671248917,-79.9217156321555,4.92000007629395,0.164642333984375,-0.972579956054688,0.03155517578125,0.00428262934895642,0.163774020711622,-0.0675502821015329
1492617148.8,40.4782671248917,-79.9217156321555,4.92000007629395,0.143936157226562,-0.966232299804688,0.0825653076171875,-0.0505214974593482,0.184336287488124,-0.0980184428686934
1492617149.0,40.4782671248917,-79.9217156321555,4.92000007629395,0.21832275390625,-0.998016357421875,0.149337768554688,-0.015426626930393,0.235171505323883,-0.0668701107591266
1492617149.2,40.4782551176821,-79.9216758504876,3.03999996185303,0.240478515625,-0.961151123046875,0.1611328125,0.00443629374385399,0.34354298693026,-0.0584167048269971
1492617149.4,40.4782551176821,-79.9216758504876,3.03999996185303,0.2587890625,-0.975173950195312,0.123977661132812,-0.00479422259436064,0.501030615888749,-0.0759770564227616
1492617149.6,40.4782551176821,-79.9216758504876,3.03999996185303,0.187652587890625,-0.969650268554688,0.182876586914062,-0.0359097978225194,0.483150951278284,-0.0687859888473296
1492617149.8,40.4782551176821,-79.9216758504876,3.03999996185303,0.160980224609375,-0.957565307617188,0.126846313476562,-0.0556550067765849,0.508805182059018,-0.0903786326495831
1492617150.0,40.4782551176821,-79.9216758504876,3.03999996185303,0.166717529296875,-0.93682861328125,0.163345336914062,-0.0370086180882861,0.55016620431682,-0.107353887753857
1492617150.2,40.4782469363989,-79.9216551568845,2.51999998092651,0.038787841796875,-0.97869873046875,0.151504516601562,-0.0931549780859907,0.544157580265384,-0.0546025255137856
1492617150.4,40.4782469363989,-79.9216551568845,2.51999998092651,0.0640411376953125,-1.00456237792969,0.115066528320312,-0.0334967075587986,0.561854019392851,-0.0465738937755237
1492617150.6,40.4782469363989,-79.9216551568845,2.51999998092651,0.0915069580078125,-0.926956176757812,0.159622192382812,-0.047995489165408,0.522582513326325,-0.0977992647109799
1492617150.8,40.4782469363989,-79.9216551568845,2.51999998092651,0.0886077880859375,-0.990386962890625,0.100906372070312,-0.0179744731452718,0.488355300680517,-0.0536887949437794
1492617151.0,40.4782469363989,-79.9216551568845,2.51999998092651,0.0087127685546875,-0.994110107421875,0.0923614501953125,-0.0711458158892488,0.464232653842689,-0.0722965677962721
1492617151.2,40.4782428460174,-79.9216428707225,2.17000007629395,-0.0197601318359375,-0.983688354492188,0.0341949462890625,-0.0286750544052102,0.391618637244479,-0.102594552569777
1492617151.4,40.4782428460174,-79.9216428707225,2.17000007629395,-0.0673980712890625,-1.0057373046875,0.0021514892578125,-0.0581405350219559,0.380116710812536,-0.0570193442030325
1492617151.6,40.4782428460174,-79.9216428707225,2.17000007629395,-0.116317749023438,-1.00576782226562,0.004150390625,-0.0253208030122554,0.252260477406704,-0.0350290904500302
1492617151.8,40.4782428460174,-79.9216428707225,2.17000007629395,-0.104232788085938,-1.01585388183594,0.011016845703125,0.0103381250355786,0.193525258513333,-0.0270489282436078
1492617152.0,40.4782428460174,-79.9216428707225,2.17000007629395,-0.140335083007812,-1.00901794433594,0.033843994140625,-0.00881692742092533,0.100046706354898,-0.00141467117105009
1492617152.2,40.478242138029,-79.9216430199667,0.629999995231628,-0.129867553710938,-1.00285339355469,0.05029296875,-0.0187403982747786,0.035222702261279,-0.0120111228323664
1492617152.4,40.478242138029,-79.9216430199667,0.629999995231628,-0.0891876220703125,-1.00547790527344,0.141708374023438,-0.0128114027399352,-0.0201287041510369,-0.00860893453979015
1492617152.6,40.478242138029,-79.9216430199667,0.629999995231628,-0.0262603759765625,-0.939468383789062,0.176651000976562,-0.00969843374174156,-0.00950988193656395,0.00312388795866295
1492617152.8,40.478242138029,-79.9216430199667,0.629999995231628,-0.0530548095703125,-0.980880737304688,0.19659423828125,-0.0193156410702357,0.00544643074532105,0.0136489669027651
1492617153.0,40.478242138029,-79.9216430199667,0.629999995231628,-0.051025390625,-0.966720581054688,0.160247802734375,-0.0164170565397935,-0.0573338635277709,0.00104608967618312
1492617153.2,40.4782432526508,-79.9216458392726,0.0,-0.007537841796875,-0.972930908203125,0.131622314453125,-0.0234467365531666,-0.0126129972387243,-0.00553857611903779
1492617153.4,40.4782432526508,-79.9216458392726,0.0,0.00213623046875,-0.9691162109375,0.147415161132812,-0.0145160921536949,0.0149832106088948,-0.0204453540046473
1492617153.6,40.4782432526508,-79.9216458392726,0.0,-0.033416748046875,-0.974288940429688,0.145828247070312,-0.0217207418506863,-0.0370871813404435,0.0105354652723535
1492617153.8,40.4782432526508,-79.9216458392726,0.0,-0.0455322265625,-0.978485107421875,0.136520385742188,-0.0160561982120877,-0.0190431996907206,-0.00438010104485332
1492617154.0,40.4782432526508,-79.9216458392726,0.0,-0.0570831298828125,-0.982208251953125,0.135848999023438,-0.0129578765998895,-0.0201260409899468,0.00205169930379704
1492617154.2,40.4782438393746,-79.9216473233223,0.209999993443489,-0.041473388671875,-0.962387084960938,0.125579833984375,-0.0268047163716475,-0.0285464237245594,-0.00233319543101842
1492617154.4,40.4782438393746,-79.9216473233223,0.209999993443489,-0.0112762451171875,-0.987533569335938,0.123153686523438,-0.0116534602979687,-0.0116268286870679,-0.0107514476367589
1492617154.6,40.4782438393746,-79.9216473233223,0.209999993443489,-0.0338134765625,-0.973541259765625,0.122177124023438,-0.0179699457714187,0.0096896453101443,-0.00447384431522411
1492617154.8,40.4782438393746,-79.9216473233223,0.209999993443489,-0.004425048828125,-0.97869873046875,0.1221923828125,-0.0112992598729882,0.027727768005469,-0.0151142381345267
1492617155.0,40.4782438393746,-79.9216473233223,0.209999993443489,-0.00250244140625,-0.981674194335938,0.126190185546875,0.00571114895767493,0.0457022411507408,-0.00325811127760294
1492617155.2,40.4782448657101,-79.9216499193185,0.839999973773956,-0.0012664794921875,-0.982147216796875,0.1566162109375,-0.00113876768211788,0.0968027098310722,-0.0194533264985928
1492617155.4,40.4782448657101,-79.9216499193185,0.839999973773956,-0.0075836181640625,-0.986328125,0.14501953125,-0.00394547315495239,0.130858414902678,-0.0291658749941118
1492617155.6,40.4782448657101,-79.9216499193185,0.839999973773956,-0.00970458984375,-0.96337890625,0.183273315429688,-0.00462005185906946,0.157453540496537,-0.0431021969784964
1492617155.8,40.4782448657101,-79.9216499193185,0.839999973773956,-0.0561676025390625,-0.962753295898438,0.19354248046875,-0.0207241869707786,0.167134131058975,-0.028365062454325
1492617156.0,40.4782448657101,-79.9216499193185,0.839999973773956,-0.02923583984375,-0.973068237304688,0.20135498046875,0.00382376669313577,0.254193932358101,-0.0624572528328653
1492617156.2,40.4782458471997,-79.921652401882,1.01999998092651,-0.0277099609375,-0.983642578125,0.184768676757812,0.0300425876249659,0.247645219237596,-0.0365827786299825
1492617156.4,40.4782458471997,-79.921652401882,1.01999998092651,-0.0785064697265625,-0.966827392578125,0.187393188476562,0.00309139739336398,0.195697599014511,-0.0409895112857366
1492617156.6,40.4782458471997,-79.921652401882,1.01999998092651,-0.0254364013671875,-0.949493408203125,0.193283081054688,0.00960761994856986,0.20097278850174,-0.0473336936345233
1492617156.8,40.4782458471997,-79.921652401882,1.01999998092651,-0.085968017578125,-0.977645874023438,0.185165405273438,-0.00101972438139134,0.20955216195343,-0.0442659983748611
1492617157.0,40.4782458471997,-79.921652401882,1.01999998092651,-0.056854248046875,-0.971435546875,0.188796997070312,0.00919403103128055,0.258413711105332,-0.0634793740592377
1492617157.2,40.4782468236925,-79.9216548718069,0.930000007152557,-0.0393829345703125,-0.953857421875,0.176651000976562,0.0180549006101922,0.216875854951148,-0.0334274653704566
1492617157.4,40.4782468236925,-79.9216548718069,0.930000007152557,-0.107696533203125,-0.950515747070312,0.267547607421875,0.0112470619156226,0.190329731521347,-0.0174354493406398
1492617157.6,40.4782468236925,-79.9216548718069,0.930000007152557,-0.133087158203125,-0.930496215820312,0.37371826171875,0.00456572337283185,0.155270813667108,-0.0152809520187657
1492617157.8,40.4782468236925,-79.9216548718069,0.930000007152557,-0.140975952148438,-0.911331176757812,0.358596801757812,-0.0213140771522312,0.102252336369701,-0.0207401659373191
1492617158.0,40.4782468236925,-79.9216548718069,0.930000007152557,-0.108200073242188,-0.92266845703125,0.38568115234375,-0.0085804387161263,-0.00632633916948323,0.000994690667144596
1492617158.2,40.4782474067032,-79.9216563464645,0.219999998807907,-0.02545166015625,-0.96844482421875,0.136383056640625,-0.0270238945293611,-0.0115338843650242,-0.0546238308025062
1492617158.4,40.4782474067032,-79.9216563464645,0.219999998807907,-0.0006256103515625,-0.956954956054688,0.262847900390625,-0.0119424132762423,-0.016940634010103,0.00738494570278973
1492617158.6,40.4782474067032,-79.9216563464645,0.219999998807907,-0.0665740966796875,-0.964599609375,0.209335327148438,-0.0181457144033639,-0.013711018556164,-0.00441525477124237
1492617158.8,40.4782474067032,-79.9216563464645,0.219999998807907,-0.027252197265625,-0.955429077148438,0.25811767578125,-0.0242904259865037,0.00121946146314728,-0.0141126232485479
1492617159.0,40.4782474067032,-79.9216563464645,0.219999998807907,-0.092041015625,-0.97052001953125,0.252120971679688,-0.0403772505511274,0.00345305466939674,-0.00468716351853946
1492617159.2,40.4782469619744,-79.9216552215748,0.0,-0.03497314453125,-0.941238403320312,0.250106811523438,-0.0223047730777406,-0.00623845485351062,-0.00767576289382638
1492617159.4,40.4782469619744,-79.9216552215748,0.0,-0.021392822265625,-0.9619140625,0.283401489257812,-0.0309185013074929,-0.00724512974556057,-0.00136407111033859
1492617159.6,40.4782469619744,-79.9216552215748,0.0,-0.024017333984375,-0.931182861328125,0.335357666015625,-0.0203896939378647,-0.021141770629703,-0.000154197027115588
1492617159.8,40.4782469619744,-79.9216552215748,0.0,-0.001434326171875,-0.9423828125,0.287857055664062,-0.0427930039759382,-0.00929363325604952,0.00918178049026619
1492617160.0,40.4782469619744,-79.9216552215748,0.0,-0.014862060546875,-0.945877075195312,0.231918334960938,-0.0369460338026693,0.0193851495746868,-0.0132228611283524
1492617160.2,40.4782466265391,-79.9216543731304,0.800000011920929,0.0187835693359375,-0.954910278320312,0.22119140625,-0.0112167018791957,0.0309177023591659,-0.0193864811552318
1492617160.4,40.4782466265391,-79.9216543731304,0.800000011920929,-0.021759033203125,-0.947982788085938,0.233932495117188,-0.018685803472432,0.0522426984718664,-0.00672341648801404
1492617160.6,40.4782466265391,-79.9216543731304,0.800000011920929,0.0277252197265625,-0.97503662109375,0.214462280273438,-0.0376507062271042,0.131073332002648,-0.0561668663380982
1492617160.8,40.4782466265391,-79.9216543731304,0.800000011920929,0.03955078125,-0.972366333007812,0.19189453125,-0.0223116972965748,0.16713812580061,-0.0678312455965362
1492617161.0,40.4782466265391,-79.9216543731304,0.800000011920929,0.0498809814453125,-0.971664428710938,0.195755004882812,-0.036467463754782,0.179999595969039,-0.0381553752536743
1492617161.2,40.4782494525037,-79.9216615210785,1.05999994277954,-0.048004150390625,-1.00006103515625,0.14801025390625,-0.105895807057039,0.0996288563798643,0.0882206732182919
1492617161.4,40.4782494525037,-79.9216615210785,1.05999994277954,-0.0239105224609375,-0.93634033203125,0.186614990234375,-0.0501755528337469,0.103517604203598,0.0653244120624446
1492617161.6,40.4782494525037,-79.9216615210785,1.05999994277954,0.022705078125,-0.963653564453125,0.200912475585938,-0.0476516750686788,0.290690158252656,-0.0939986675193278
1492617161.8,40.4782494525037,-79.9216615210785,1.05999994277954,0.03594970703125,-0.9581298828125,0.187164306640625,-0.0409543575593475,0.304472549526034,-0.108892662231705
1492617162.0,40.4782494525037,-79.9216615210785,1.05999994277954,0.081024169921875,-0.932846069335938,0.180953979492188,-0.112604842475166,0.361336631437515,0.0213713351156679
1492617162.2,40.4782528622069,-79.9216701455258,1.23000001907349,0.111236572265625,-0.945022583007812,0.184310913085938,-0.152225755276711,0.321159650600362,-0.0620953292407235
