timestamp,latitude,longitude,speed,accelerometerX,accelerometerY,accelerometerZ,gyroX,gyroY,gyroZ
1493478690.5,40.4785328495079,-79.9162613153335,3.46000003814697,-0.096771240234375,-1.0126953125,0.13250732421875,-0.0279197819200637,0.150144494884814,-0.133950078612151
1493478690.6,40.4785328495079,-79.9162613153335,3.46000003814697,0.0302276611328125,-0.963241577148438,0.121368408203125,-0.0131858431892003,0.104319215691712,-0.0686419118323563
1493478690.8,40.4785328495079,-79.9162613153335,3.46000003814697,-0.0562591552734375,-0.93487548828125,0.196304321289062,-0.00221681529138196,0.0755336401012634,-0.0300716160808477
1493478691.0,40.4785328495079,-79.9162613153335,3.46000003814697,0.0265655517578125,-0.958480834960938,0.254074096679688,-0.0222216824517302,0.0724696732671272,-0.0483941643805929
1493478691.2,40.4785455308826,-79.9162954216743,3.35999989509583,-0.0305328369140625,-0.95819091796875,0.272140502929688,-0.00861852191971443,0.0660011212954338,-0.0343774149312878
1493478691.4,40.4785455308826,-79.9162954216743,3.35999989509583,-0.02716064453125,-0.944686889648438,0.248062133789062,-0.00591301656830293,0.0340748798314548,-0.0161416856830793
1493478691.6,40.4785455308826,-79.9162954216743,3.35999989509583,-0.05694580078125,-0.938888549804688,0.264678955078125,-0.0038248319575718,0.00321123964241755,-0.0299014400871917
1493478691.8,40.4785455308826,-79.9162954216743,3.35999989509583,0.00494384765625,-0.90789794921875,0.291915893554688,-0.000360325695487721,0.0138236702702743,-0.0437541388133478
1493478692.0,40.4785455308826,-79.9162954216743,3.35999989509583,-0.0024871826171875,-0.906951904296875,0.340438842773438,-0.0268894048943121,0.0278247070691479,-0.0429956705348933
1493478692.2,40.4785625302039,-79.9163411410584,4.53000020980835,0.0109405517578125,-0.943115234375,0.262130737304688,-0.0155999987173572,0.00330098817115322,0.0520762509037364
1493478692.4,40.4785625302039,-79.9163411410584,4.53000020980835,-0.0126953125,-0.945098876953125,0.308120727539062,-0.00829228468617972,0.0489742008660122,-0.0673827692689669
1493478692.6,40.4785625302039,-79.9163411410584,4.53000020980835,0.103973388671875,-0.9051513671875,0.230026245117188,0.0426949996478233,0.0677926297607301,-0.0477174551476038
1493478692.8,40.4785625302039,-79.9163411410584,4.53000020980835,0.0973052978515625,-0.91314697265625,0.257415771484375,-0.000348075154473356,-0.0574270741659237,0.0715809764113678
1493478693.0,40.4785625302039,-79.9163411410584,4.53000020980835,-0.0752716064453125,-0.91241455078125,0.235076904296875,-0.0154769606749955,0.0171158700098303,-0.0268579795934491
1493478693.2,40.4785842569083,-79.9163995746591,6.07999992370605,0.037261962890625,-0.899627685546875,0.191131591796875,-0.0275179109115708,0.0182618282268914,-0.00246129347945123
1493478693.4,40.4785842569083,-79.9163995746591,6.07999992370605,-0.0785369873046875,-0.954437255859375,0.191818237304688,-0.0254457052673801,-0.00302721521109307,-0.00984863602722203
1493478693.6,40.4785842569083,-79.9163995746591,6.07999992370605,0.008697509765625,-0.910903930664062,0.220504760742188,-0.00517319041747892,0.00641475611767386,-0.00753301745939813
1493478693.8,40.4785842569083,-79.9163995746591,6.07999992370605,-0.0155487060546875,-0.921646118164062,0.219711303710938,-0.0155248975746169,0.0341377304331807,-0.0141078295585858
1493478694.0,40.4785842569083,-79.9163995746591,6.07999992370605,0.123443603515625,-0.994522094726562,0.196365356445312,0.0166199894148575,0.0934873405900326,-0.073639866250108
1493478694.2,40.4786118853128,-79.9164738807812,7.1100001335144,-0.0174713134765625,-0.981246948242188,0.185043334960938,-0.000249005561922409,-0.0468031919453796,-0.00734526460254755
1493478694.4,40.4786118853128,-79.9164738807812,7.1100001335144,0.0024261474609375,-0.9488525390625,0.231887817382812,-0.0460652300073186,0.0226304776790573,-0.0453110227866082
1493478694.6,40.4786118853128,-79.9164738807812,7.1100001335144,0.0248260498046875,-0.959869384765625,0.225875854492188,-0.00215609521852815,-0.0308362096298095,-0.0148694936303484
1493478694.8,40.4786118853128,-79.9164738807812,7.1100001335144,0.0044708251953125,-1.00349426269531,0.232635498046875,0.0243303734028549,-0.0427088480854917,-0.0113690346935483
1493478695.0,40.4786118853128,-79.9164738807812,7.1100001335144,-0.069000244140625,-0.947555541992188,0.251205444335938,-0.0248643372014158,-0.0498330703175627,-0.000125967519560748
1493478695.2,40.4786450594967,-79.9165631021825,8.10999965667725,0.009918212890625,-0.944168090820312,0.235153198242188,-0.00932292802804039,-0.0063252739050472,-0.0224696227492165
1493478695.4,40.4786450594967,-79.9165631021825,8.10999965667725,-0.016876220703125,-0.918563842773438,0.224258422851562,0.0164751134515572,-0.0649931148228388,0.00566747311579763
1493478695.6,40.4786450594967,-79.9165631021825,8.10999965667725,0.05462646484375,-0.952239990234375,0.182785034179688,-0.029342442574384,0.00231295540673382,-0.0333590221304415
1493478695.8,40.4786450594967,-79.9165631021825,8.10999965667725,-0.0735626220703125,-0.770294189453125,0.346664428710938,-0.128612837471524,0.082747344545961,0.027257453756961
1493478696.0,40.4786450594967,-79.9165631021825,8.10999965667725,0.0392913818359375,-1.00834655761719,0.232025146484375,0.00674658598949773,0.0105900600747001,-0.0202163221509005
1493478696.2,40.4786778907664,-79.9166514013219,9.22999954223633,-0.0457763671875,-0.918746948242188,0.256790161132812,0.0443592090130138,-0.0247519518034145,0.0133126096570881
1493478696.4,40.4786778907664,-79.9166514013219,9.22999954223633,0.19488525390625,-0.967254638671875,0.158615112304688,-0.0738382717513189,0.140882819561846,-0.052297825906431
1493478696.6,40.4786778907664,-79.9166514013219,9.22999954223633,-0.0384674072265625,-0.938461303710938,0.194198608398438,0.00572659529199739,-0.0159866897076367,0.0395498064004397
1493478696.8,40.4786778907664,-79.9166514013219,9.22999954223633,-0.0344085693359375,-1.0069580078125,0.176376342773438,0.00809893919103997,0.037173201443653,-0.0266683625238355
1493478697.0,40.4786778907664,-79.9166514013219,9.22999954223633,-0.0085601806640625,-0.923141479492188,0.181228637695312,-0.0265210897155541,-0.00833915632136512,-0.0119783659509584
1493478697.2,40.4787167374529,-79.9167558788217,10.1099996566772,0.012359619140625,-0.93621826171875,0.168289184570312,-0.0228328779219034,-0.00304985208035874,-0.0450068897901211
1493478697.4,40.4787167374529,-79.9167558788217,10.1099996566772,-0.0058135986328125,-0.986770629882812,0.112960815429688,-0.00361044748982042,0.0181007069809416,-0.0374011680329638
1493478697.6,40.4787167374529,-79.9167558788217,10.1099996566772,-0.041839599609375,-0.957489013671875,0.204879760742188,0.0120870229234336,-0.0607078223127923,0.0173398418575059
1493478697.8,40.4787167374529,-79.9167558788217,10.1099996566772,-0.0582275390625,-0.943511962890625,0.19390869140625,-0.011225756626902,-0.0977784920544773,0.0662426700063039
1493478698.0,40.4787167374529,-79.9167558788217,10.1099996566772,0.0712738037109375,-0.9725341796875,0.158203125,-0.0143464487922569,0.0915621414380143,-0.0686208728597447
1493478698.2,40.4787588499721,-79.9168691397231,10.8299999237061,0.0652618408203125,-0.997528076171875,0.145278930664062,-0.036131639141323,0.00555322350503323,-0.00251668723012488
1493478698.4,40.4787588499721,-79.9168691397231,10.8299999237061,0.0414581298828125,-0.961868286132812,0.198684692382812,-0.0417261416432525,-0.0571596927924797,0.0604945031094769
1493478698.6,40.4787588499721,-79.9168691397231,10.8299999237061,0.05194091796875,-0.979461669921875,0.0941925048828125,0.0184439884454528,0.022216089813441,-0.0126630646672178
1493478698.8,40.4787588499721,-79.9168691397231,10.8299999237061,0.04913330078125,-0.925765991210938,0.134689331054688,0.00118004667901411,-0.042549058420087,0.0459690898919667
1493478699.0,40.4787588499721,-79.9168691397231,10.8299999237061,-0.11090087890625,-0.969146728515625,0.197738647460938,-0.0561881716268188,-0.112376609569747,0.0754159283810819
1493478699.2,40.4788031179029,-79.9169881975672,11.4399995803833,0.0448760986328125,-0.945709228515625,0.18182373046875,-0.0735535798307895,-0.0846131552056705,0.0367827820278474
1493478699.4,40.4788031179029,-79.9169881975672,11.4399995803833,-0.0677032470703125,-0.894241333007812,0.203811645507812,-0.0787129218106,-0.00480807103202906,-0.0093231943441494
1493478699.6,40.4788031179029,-79.9169881975672,11.4399995803833,-0.010101318359375,-0.941787719726562,0.2142333984375,0.0242603322661858,0.0136620163921065,-0.0530975731817818
1493478699.8,40.4788031179029,-79.9169881975672,11.4399995803833,0.0034332275390625,-0.969573974609375,0.116790771484375,0.029878536901817,-0.0980533302789734,0.0197508015923547
1493478700.0,40.4788031179029,-79.9169881975672,11.4399995803833,0.01611328125,-1.026123046875,0.15411376953125,-0.0321763122903374,-0.0348938018666542,-0.00237181126682457
1493478700.2,40.4788031179029,-79.9169881975672,11.4399995803833,-0.051788330078125,-0.989547729492188,0.124114990234375,-0.0227511188764379,0.0969345363050311,-0.0740518572707433
1493478700.4,40.4788500200156,-79.9171130103344,12.1300001144409,0.0548553466796875,-0.906707763671875,0.203231811523438,-0.00427224302070511,0.0138574924161183,0.00845021013882142
1493478700.6,40.4788500200156,-79.9171130103344,12.1300001144409,-0.0283966064453125,-0.874588012695312,0.21612548828125,-0.0701990621217257,0.0121575966923207,0.000316117221392406
1493478700.8,40.4788500200156,-79.9171130103344,12.1300001144409,0.0005340576171875,-0.986526489257812,0.216400146484375,0.0619541817029493,0.0144881289622491,-0.00580036485419258
1493478701.0,40.4788500200156,-79.9171130103344,12.1300001144409,-0.0777740478515625,-1.03489685058594,0.154251098632812,0.131312483868537,-0.0816828790582563,0.0868523410502092
1493478701.2,40.4788998927239,-79.9172450413005,12.75,0.00775146484375,-1.00204467773438,0.236404418945312,-0.0210261894383936,-0.020066386181529,0.046749928723578
1493478701.4,40.4788998927239,-79.9172450413005,12.75,-0.0627593994140625,-0.934234619140625,0.185409545898438,-0.0284907636577767,0.00124609307404808,-0.0184205526278601
1493478701.7,40.4788998927239,-79.9172450413005,12.75,0.0080108642578125,-0.928924560546875,0.139556884765625,-0.0613602967798617,0.0099687445923846,-0.0241106626129234
1493478701.8,40.4788998927239,-79.9172450413005,12.75,0.0759735107421875,-0.911422729492188,0.188018798828125,-0.0912058104841617,-0.110022641482226,0.067587832672903
1493478702.0,40.4788998927239,-79.9172450413005,12.75,-0.066497802734375,-1.01361083984375,0.166168212890625,-0.0449624149999168,-0.0145981175152693,0.00917325837477794
1493478702.2,40.4789531920337,-79.9173861437115,13.5100002288818,-0.058807373046875,-1.06781005859375,0.133590698242188,-0.0229812159946208,-0.0455871925916494,0.0201404220598332
1493478702.4,40.4789531920337,-79.9173861437115,13.5100002288818,-0.0252685546875,-0.956497192382812,0.204421997070312,-0.000572579634367036,0.00958471676319518,0.0468828204619729
1493478702.6,40.4789531920337,-79.9173861437115,13.5100002288818,0.0635223388671875,-0.93988037109375,0.208084106445312,0.00048096689286831,-0.0361534770622617,0.100322343527721
1493478702.9,40.4789531920337,-79.9173861437115,13.5100002288818,-0.121688842773438,-1.04707336425781,0.154815673828125,-0.019091402906451,0.110747287614836,-0.0228717600738185
1493478703.0,40.4789531920337,-79.9173861437115,13.5100002288818,-0.043701171875,-0.993087768554688,0.0724029541015625,0.166765549564108,-0.0670237751540242,0.0722504951094137
1493478703.3,40.4790092574806,-79.9175345690803,14.0799999237061,0.0845184326171875,-1.05416870117188,0.173629760742188,0.0458244802447754,0.144355048991091,-0.0788032029715537
1493478703.4,40.4790092574806,-79.9175345690803,14.0799999237061,-0.0763397216796875,-1.15069580078125,0.177688598632812,0.0342067063054138,-0.0810612972598319,0.0240161203942256
1493478703.7,40.4790092574806,-79.9175345690803,14.0799999237061,-0.272064208984375,-1.03358459472656,0.233673095703125,-0.105462777063792,0.196390553530149,-0.12313498142534
1493478703.8,40.4790092574806,-79.9175345690803,14.0799999237061,-0.00531005859375,-0.99066162109375,0.27008056640625,0.0770726808952202,0.0771397925546902,-0.0644490310121356
1493478704.0,40.4790092574806,-79.9175345690803,14.0799999237061,-0.029510498046875,-1.07846069335938,0.191864013671875,0.0906215129409983,-0.0952575437666082,0.0182330660871185
1493478704.2,40.4790664014827,-79.9176858497721,14.5299997329712,-0.1412353515625,-1.01448059082031,0.26226806640625,0.162859491193289,-0.111682589789672,0.0222136929684599
1493478704.4,40.4790664014827,-79.9176858497721,14.5299997329712,0.221755981445312,-1.045166015625,0.166458129882812,0.0479925596882089,0.112426144366022,-0.0989566745207283
1493478704.6,40.4790664014827,-79.9176858497721,14.5299997329712,0.127410888671875,-0.78338623046875,0.301666259765625,-0.16806144375054,0.100000633668039,-0.114997426398494
1493478704.9,40.4790664014827,-79.9176858497721,14.5299997329712,0.4075927734375,-0.99249267578125,0.104873657226562,-0.1156480366528,0.256024855607531,-0.124459371435436
1493478705.1,40.4790664014827,-79.9176858497721,14.5299997329712,-0.171890258789062,-1.15614318847656,0.206329345703125,0.12926344772583,-0.0774276802685277,0.00578811431317822
1493478705.3,40.4790664014827,-79.9176858497721,14.5299997329712,0.05322265625,-0.850021362304688,0.16253662109375,-0.0926492437949846,0.0633427538953167,-0.120528013034261
1493478705.5,40.4791155143857,-79.9178158692607,14.6800003051758,0.02825927734375,-0.970947265625,0.178192138671875,-0.0740862120488053,-0.139921684724436,0.0454497734794013
1493478705.7,40.4791155143857,-79.9178158692607,14.6800003051758,-0.10516357421875,-1.0269775390625,0.171218872070312,0.146859751996311,0.0107477192112328,0.0132042190007219
1493478705.8,40.4791155143857,-79.9178158692607,14.6800003051758,0.0279083251953125,-1.04173278808594,0.178634643554688,-0.0103929861540342,0.0319789720535625,-0.00125514782175434
1493478706.0,40.4791155143857,-79.9178158692607,14.6800003051758,0.0278167724609375,-0.929351806640625,0.129486083984375,-0.0386653706024244,0.0427954008209193,-0.0303603027430123
1493478706.3,40.4791847539185,-79.9179947290746,14.6199998855591,-0.0012664794921875,-1.03565979003906,0.0922698974609375,0.0296167481666622,0.00300111623241029,0.0162886921752516
1493478706.5,40.4791847539185,-79.9179947290746,14.6199998855591,0.00177001953125,-1.03350830078125,0.099151611328125,0.0427943355564833,0.023123162480722,-0.00175395789392619
1493478706.6,40.4791847539185,-79.9179947290746,14.6199998855591,0.01708984375,-0.944915771484375,0.150665283203125,-0.0502581108275394,0.00671223121143571,0.0186599708098582
1493478706.8,40.4791847539185,-79.9179947290746,14.6199998855591,-0.16009521484375,-0.912643432617188,0.139938354492188,-0.0456319336979627,-0.180515716588296,0.122613268167793
1493478707.0,40.4791847539185,-79.9179947290746,14.6199998855591,-0.0339813232421875,-0.918685913085938,0.0465850830078125,-0.0557564732141169,0.122680646143372,-0.0605954369147909
1493478707.3,40.479243595172,-79.9181466812845,14.2200002670288,-0.0930023193359375,-0.915237426757812,0.182235717773438,0.0282358991414561,-0.143779806195634,0.0369114127084982
1493478707.5,40.479243595172,-79.9181466812845,14.2200002670288,-0.104522705078125,-0.89801025390625,0.139068603515625,0.0174985662584746,-0.0490421114738092,0.0173651418878617
1493478707.7,40.479243595172,-79.9181466812845,14.2200002670288,0.029815673828125,-0.938125610351562,0.0940704345703125,0.000498810072171841,-0.0499957894601665,0.0139949115283664
1493478707.9,40.479243595172,-79.9181466812845,14.2200002670288,-0.12335205078125,-1.02322387695312,0.125289916992188,-0.0656170934662443,-0.0378626938498745,0.0271474652039407
1493478708.0,40.479243595172,-79.9181466812845,14.2200002670288,-0.124267578125,-0.90167236328125,0.118240356445312,-0.0680280532010931,-0.164424897282037,0.0562371737908762
1493478708.2,40.4792989965058,-79.9182897502131,13.3599996566772,0.118606567382812,-0.9056396484375,0.0383148193359375,-0.14705309749145,0.133909332247473,-0.075419923122717
1493478708.4,40.4792989965058,-79.9182897502131,13.3599996566772,0.03704833984375,-1.04338073730469,-0.0815277099609375,-0.0529803940938183,0.0747959444793114,-0.0561785842468945
1493478708.7,40.4792989965058,-79.9182897502131,13.3599996566772,0.01409912109375,-1.02534484863281,-0.0626983642578125,-0.035154791653482,-0.0061540326469551,-0.00247647349766468
1493478708.9,40.4792989965058,-79.9182897502131,13.3599996566772,-0.0266571044921875,-0.980926513671875,-0.134857177734375,-0.0197691774038762,0.0107613013327922,-0.0279517398531447
1493478709.0,40.4792989965058,-79.9182897502131,13.3599996566772,0.045318603515625,-1.04048156738281,-0.13116455078125,0.00375345924035768,0.0510320254403164,-0.0128878354632205
1493478709.2,40.4793489067676,-79.9184186389456,11.5600004196167,-0.077392578125,-1.01800537109375,-0.037322998046875,-0.00104742125672816,0.0042618566924538,0.00104449177952908
1493478709.4,40.4793489067676,-79.9184186389456,11.5600004196167,-0.0169525146484375,-0.984024047851562,-0.0733184814453125,-0.032164328065432,-0.0157454073128755,0.00717482229278248
1493478709.6,40.4793489067676,-79.9184186389456,11.5600004196167,0.0493316650390625,-0.977951049804688,-0.102859497070312,-0.0577985851379897,0.070578562577062,-0.0178333256074976
1493478709.8,40.4793489067676,-79.9184186389456,11.5600004196167,0.027557373046875,-0.99737548828125,-0.0699462890625,0.0177382507565818,-0.0288340451222879,0.0109181615209979
1493478710.0,40.4793489067676,-79.9184186389456,11.5600004196167,-0.02581787109375,-1.00694274902344,-0.043212890625,-0.0172801870490881,0.0469105173373097,-0.034416829715421
1493478710.2,40.4793873831307,-79.9185180006697,9.10999965667725,0.0007781982421875,-1.04150390625,0.0387115478515625,0.0282396275669822,0.0232137099577847,-0.027492344565106
1493478710.5,40.4793873831307,-79.9185180006697,9.10999965667725,-0.01116943359375,-0.992324829101562,0.054168701171875,0.00277341595920852,-0.0170341109643648,0.0213966351460236
1493478710.7,40.4793873831307,-79.9185180006697,9.10999965667725,-0.06341552734375,-0.948089599609375,0.142837524414062,0.0111160343899907,-7.77643038303138e-05,-0.0340048386947858
1493478710.8,40.4793873831307,-79.9185180006697,9.10999965667725,0.0423736572265625,-1.00544738769531,0.18878173828125,-0.0302380636489777,0.0384864061771711,-0.0259980448774625
1493478711.1,40.4793873831307,-79.9185180006697,9.10999965667725,0.021331787109375,-0.933685302734375,0.222366333007812,0.0151086454962375,0.00734606355087457,-0.0105264105246472
1493478711.2,40.4794218555833,-79.9186070226576,7.59999990463257,-0.0087890625,-0.98492431640625,0.215667724609375,0.0215977038083246,-0.0235354198174663,0.0429304230881863
1493478711.4,40.4794218555833,-79.9186070226576,7.59999990463257,-0.01287841796875,-0.918380737304688,0.227020263671875,0.0393812283034377,-0.0502426644932169,0.0517111315182866
1493478711.6,40.4794218555833,-79.9186070226576,7.59999990463257,-0.02313232421875,-0.947784423828125,0.269088745117188,-0.0206847721866454,0.0384246208398813,-0.0237676474645212
1493478711.8,40.4794218555833,-79.9186070226576,7.59999990463257,-0.081878662109375,-0.933944702148438,0.306076049804688,-0.0212488297055242,0.0777834785901623,-0.0388019907663455
1493478712.0,40.4794218555833,-79.9186070226576,7.59999990463257,-0.0221099853515625,-0.926910400390625,0.309341430664062,0.0368102125870752,-0.0374674807441068,0.0132681348668838
1493478712.2,40.479452565147,-79.9186863273255,8.11999988555908,-0.123489379882812,-0.9664306640625,0.314559936523438,0.00418995134302167,-0.130850425419408,0.0888763434786694
1493478712.4,40.479452565147,-79.9186863273255,8.11999988555908,-0.131179809570312,-0.940338134765625,0.305191040039062,0.0438718505335293,-0.0662317510458346,0.0262092335519058
1493478712.6,40.479452565147,-79.9186863273255,8.11999988555908,0.0114898681640625,-0.9136962890625,0.238662719726562,-0.00383282144084204,0.0021475731030399,-0.0298987769261016
1493478712.8,40.479452565147,-79.9186863273255,8.11999988555908,-0.075439453125,-0.957611083984375,0.285430908203125,-0.00248100087151782,2.02400242846022e-05,0.0255636833036706
1493478713.0,40.479452565147,-79.9186863273255,8.11999988555908,-0.0442047119140625,-0.953414916992188,0.239120483398438,-0.000488157427811524,0.0202088652998483,-0.0309773571675837
1493478713.3,40.479452565147,-79.9186863273255,8.11999988555908,-0.003875732421875,-0.946197509765625,0.196014404296875,0.00441205897793427,-0.0244981525515299,-0.0244145292933014
1493478713.4,40.4794878457518,-79.9187783623777,8.97000026702881,-0.030242919921875,-0.996841430664062,0.232162475585938,-0.0641164021919847,0.031257788030369,-0.0444518870189486
1493478713.6,40.4794878457518,-79.9187783623777,8.97000026702881,0.0177459716796875,-0.932281494140625,0.154953002929688,0.0389801562432718,0.043355197282054,-0.0231695014836894
1493478713.8,40.4794878457518,-79.9187783623777,8.97000026702881,0.0208740234375,-0.95440673828125,0.29376220703125,-0.031525169403813,0.0342421263479118,-0.0121394871969082
1493478714.0,40.4794878457518,-79.9187783623777,8.97000026702881,0.0570526123046875,-1.00411987304688,0.222503662109375,-0.0251381101614759,0.0320729816400423,-0.0131347104962708
1493478714.2,40.4795291331711,-79.9188863161287,9.61999988555908,-0.02911376953125,-0.97528076171875,0.2412109375,0.00805979072301581,-0.05323765545512,0.00448476327569344
1493478714.4,40.4795291331711,-79.9188863161287,9.61999988555908,-0.0604400634765625,-0.986724853515625,0.292373657226562,0.00858576503830646,-0.0085671229106759,-0.00948591348675324
1493478714.6,40.4795291331711,-79.9188863161287,9.61999988555908,0.0160675048828125,-0.91888427734375,0.207748413085938,-0.0847777385610374,0.0207590743810587,-0.0190471944323557
1493478714.8,40.4795291331711,-79.9188863161287,9.61999988555908,0.006011962890625,-0.995452880859375,0.178176879882812,-0.0280473473362785,0.0427266912647953,-0.0281189863696016
1493478715.0,40.4795291331711,-79.9188863161287,9.61999988555908,-0.0048980712890625,-0.932037353515625,0.14520263671875,-0.0282564054818497,0.0129437618461121,-0.0291104812434381
1493478715.2,40.4795654027951,-79.9189811499069,10.1000003814697,0.0206451416015625,-0.954513549804688,0.130264282226562,0.0126236498830846,-0.0107184244392419,0.00548797605832629
1493478715.4,40.4795654027951,-79.9189811499069,10.1000003814697,-0.0496368408203125,-0.947784423828125,0.174896240234375,-0.0198509364493416,-0.0190115080737487,0.0392957408324462
1493478715.6,40.4795654027951,-79.9189811499069,10.1000003814697,-0.0018463134765625,-0.968170166015625,0.19073486328125,0.0341411925425978,0.104018278488533,-0.025508023236888
1493478715.8,40.4795654027951,-79.9189811499069,10.1000003814697,-0.0407867431640625,-0.99859619140625,0.190689086914062,-0.054984422814103,-0.0379316697221076,0.0283227181929927
1493478716.0,40.4795654027951,-79.9189811499069,10.1000003814697,-0.0969696044921875,-0.973663330078125,0.18951416015625,-0.0484823150126745,0.0194581201885549,-0.0261357303058196
1493478716.2,40.4796102707996,-79.9190984657739,10.1599998474121,-0.056427001953125,-0.98223876953125,0.12957763671875,-0.0213239308482645,-0.011562912820906,-0.0044533379748305
1493478716.4,40.4796102707996,-79.9190984657739,10.1599998474121,0.0402069091796875,-0.959625244140625,0.139404296875,-0.0161129235433064,0.0586036587355207,-0.0355012689113013
1493478716.6,40.4796102707996,-79.9190984657739,10.1599998474121,0.0540008544921875,-0.958465576171875,0.116622924804688,-0.0343198906517421,0.0640423663136805,-0.025039573201143
1493478716.8,40.4796102707996,-79.9190984657739,10.1599998474121,-0.059173583984375,-0.98541259765625,0.07135009765625,0.0232011931006613,-0.0916236604591951,0.0441887667032488
1493478717.0,40.4796102707996,-79.9190984657739,10.1599998474121,-0.0192718505859375,-0.987274169921875,0.153472900390625,-0.0174045566719948,-0.0158396832154643,0.0179883215829402
1493478717.2,40.4796480521263,-79.9191972521839,9.75,0.0690460205078125,-0.957138061523438,0.13592529296875,-0.052160673110292,0.0577724861593069,-0.0475965476341142
1493478717.4,40.4796480521263,-79.9191972521839,9.75,-0.0373382568359375,-1.00238037109375,0.0635833740234375,-0.0320239794759848,0.0374301964888457,-0.0516027408619204
1493478717.6,40.4796480521263,-79.9191972521839,9.75,0.0320281982421875,-0.976104736328125,0.125289916992188,-0.0350855494651399,0.0108656972475233,0.00174516946232892
1493478717.8,40.4796480521263,-79.9191972521839,9.75,0.040313720703125,-0.980422973632812,-0.0006103515625,-0.00816232242498386,0.00643180034865037,-0.0224906617218282
1493478718.0,40.4796480521263,-79.9191972521839,9.75,-0.0336761474609375,-1.0384521484375,0.086090087890625,-0.050482615307433,0.00351244316170551,-0.0442406983445053
1493478718.2,40.4796858055452,-79.9192959656241,9.05000019073486,-0.0577239990234375,-1.00758361816406,0.086456298828125,-0.0244395630075482,-0.0264369338251076,-0.0183076345976407
1493478718.4,40.4796858055452,-79.9192959656241,9.05000019073486,0.0026702880859375,-0.959991455078125,0.0398712158203125,-0.0246193263811285,-0.0328165362163924,-0.00869708517187177
1493478718.6,40.4796858055452,-79.9192959656241,9.05000019073486,-0.0180816650390625,-0.967926025390625,0.0215606689453125,-0.0495537047192134,-0.00287488239674054,-0.0378174201113432
1493478718.8,40.4796858055452,-79.9192959656241,9.05000019073486,-0.047119140625,-1.0421142578125,0.02850341796875,0.000560062777243664,-0.0340397261050658,0.0182192176494501
1493478719.0,40.4796858055452,-79.9192959656241,9.05000019073486,0.01715087890625,-1.04629516601562,0.02032470703125,0.0333715389875649,-0.0257527677410662,-0.0401080049649203
1493478719.2,40.479717372436,-79.9193785032186,7.96999979019165,-0.0356903076171875,-1.07209777832031,-0.01611328125,0.0571847265067264,-0.0567378480758111,0.0700358103469038
1493478719.4,40.479717372436,-79.9193785032186,7.96999979019165,-0.0144500732421875,-0.971893310546875,-0.0129241943359375,-0.0326737907819642,0.00552765715856847,-0.0216730712671738
1493478719.6,40.479717372436,-79.9193785032186,7.96999979019165,0.015869140625,-1.01048278808594,-0.0619659423828125,-0.0120822292334715,-0.00629997387469145,0.0233492648572697
1493478719.8,40.479717372436,-79.9193785032186,7.96999979019165,-0.067108154296875,-0.976272583007812,-0.0329437255859375,-0.0203462844120964,-0.0615549738555465,0.052195027888354
1493478720.1,40.479717372436,-79.9193785032186,7.96999979019165,-0.009765625,-1.028076171875,-0.0375518798828125,-0.0218973094309585,0.0129027491653249,-0.0269128407119048
1493478720.2,40.479744396941,-79.9194491638879,5.86999988555908,0.0224609375,-1.01512145996094,-0.042083740234375,0.0044666537802809,0.0159257033186738,-0.0063926518806262
1493478720.4,40.479744396941,-79.9194491638879,5.86999988555908,-0.0505218505859375,-0.984878540039062,-0.0137939453125,-0.0103921872057072,-0.0414116223185141,0.0362517477064856
1493478720.7,40.479744396941,-79.9194491638879,5.86999988555908,-0.0218048095703125,-1.01325988769531,-0.028472900390625,0.00628585912091403,-3.96811002421806e-05,0.00752795745332698
1493478720.8,40.479744396941,-79.9194491638879,5.86999988555908,-0.0238494873046875,-0.995559692382812,-0.0104827880859375,-0.0191039197635744,0.00437876946430828,-0.0023393207015256
1493478721.0,40.479744396941,-79.9194491638879,5.86999988555908,-0.0456390380859375,-0.986053466796875,0.0155181884765625,-0.00273133801398527,-0.0489105513159593,0.0171576816389445
1493478721.2,40.4797635224504,-79.9194991711424,3.84999990463257,-0.02392578125,-1.00141906738281,0.032684326171875,0.00236249020300929,0.00955622093953133,-0.011728827756818
1493478721.4,40.4797635224504,-79.9194991711424,3.84999990463257,-0.0104522705078125,-1.02432250976562,0.0597991943359375,-0.00751970165394774,-0.0244179914027185,-0.0085436870930832
1493478721.6,40.4797635224504,-79.9194991711424,3.84999990463257,-0.0300140380859375,-0.988937377929688,0.0505523681640625,0.0120563965708977,-0.0160271697562059,0.0438795737006906
1493478721.8,40.4797635224504,-79.9194991711424,3.84999990463257,-0.073883056640625,-0.985076904296875,0.0682830810546875,-0.00542619072103645,-0.0116654445228741,0.00104076335400297
1493478722.0,40.4797635224504,-79.9194991711424,3.84999990463257,-0.038299560546875,-1.00358581542969,0.06787109375,0.0029611688160591,-0.0212927718635105,0.00541633702500315
1493478722.2,40.4797763703519,-79.9195327644059,2.45000004768372,-0.03472900390625,-0.991775512695312,0.0379180908203125,-0.00130042156028569,-0.0255202737779023,0.00325118705876873
1493478722.4,40.4797763703519,-79.9195327644059,2.45000004768372,-0.042724609375,-0.997177124023438,0.0861053466796875,0.00466186348818371,-0.0393836251484188,0.0268047163716475
1493478722.7,40.4797763703519,-79.9195327644059,2.45000004768372,-0.0161590576171875,-0.948822021484375,0.217864990234375,0.00414574286892635,-0.0170466278214882,-0.000979776965040152
1493478722.8,40.4797763703519,-79.9195327644059,2.45000004768372,0.0071868896484375,-0.953384399414062,0.219757080078125,-0.01656832408971,0.00967659582080291,-0.0289823831950053
1493478723.0,40.4797763703519,-79.9195327644059,2.45000004768372,0.045623779296875,-0.931869506835938,0.26715087890625,-0.00409247964712477,0.0319390246372113,0.00520674624721392
1493478723.2,40.4797838576996,-79.9195523414898,1.5900000333786,0.009735107421875,-0.917984008789062,0.292694091796875,-0.00585575860486623,0.067052004661579,-0.00236541968020838
1493478723.4,40.4797838576996,-79.9195523414898,1.5900000333786,0.0612640380859375,-0.935684204101562,0.304183959960938,-0.00631595284123192,0.0968346677641532,-0.0301685551445266
1493478723.6,40.4797838576996,-79.9195523414898,1.5900000333786,0.0777740478515625,-0.91949462890625,0.341827392578125,0.000446612114806288,0.132955920577225,-0.0376560325492844
1493478723.8,40.4797838576996,-79.9195523414898,1.5900000333786,0.0951995849609375,-0.923370361328125,0.350296020507812,-0.00329832501006314,0.181909615102843,-0.0484828476448925
1493478724.0,40.4797838576996,-79.9195523414898,1.5900000333786,0.149490356445312,-0.88226318359375,0.448013305664062,-0.00784513993915542,0.304256034529411,-0.116016618147667
1493478724.2,40.47979336485,-79.9195771997292,2.58999991416931,0.0512847900390625,-0.850784301757812,0.353302001953125,-0.0693082347370942,0.160011240407449,0.0159368885952522
1493478724.4,40.47979336485,-79.9195771997292,2.58999991416931,0.125106811523438,-0.912338256835938,0.401290893554688,-0.0275562604312679,0.321411585639483,-0.0672168543330549
1493478724.6,40.47979336485,-79.9195771997292,2.58999991416931,0.296051025390625,-1.01625061035156,0.29376220703125,0.0852507159706355,0.327061481892086,-0.0586129797993359
1493478724.8,40.47979336485,-79.9195771997292,2.58999991416931,0.21539306640625,-0.891098022460938,0.293609619140625,0.00237127863460655,0.42758436144989,-0.0949060065027178
1493478725.1,40.47979336485,-79.9195771997292,2.58999991416931,0.231063842773438,-0.929702758789062,0.251861572265625,-0.00881479689205327,0.484032990231319,-0.102629706296166
1493478725.2,40.4798057609645,-79.9196096117104,4.13000011444092,0.2379150390625,-0.960983276367188,0.24761962890625,-0.0109682289494913,0.492557768880662,-0.0962764691996726
1493478725.4,40.4798057609645,-79.9196096117104,4.13000011444092,0.24859619140625,-0.930435180664062,0.303359985351562,-0.00662887426931623,0.520175282017002,-0.164541011105565
1493478725.6,40.4798057609645,-79.9196096117104,4.13000011444092,0.339996337890625,-0.951309204101562,0.2232666015625,0.055958607140854,0.559132002442681,-0.125617047561294
1493478725.8,40.4798057609645,-79.9196096117104,4.13000011444092,0.24530029296875,-0.941726684570312,0.268478393554688,-0.0319845646918517,0.516095052910892,-0.104015881643552
1493478726.0,40.4798057609645,-79.9196096117104,4.13000011444092,0.197250366210938,-0.934326171875,0.276885986328125,0.01956145083885,0.451938436986447,-0.092660429071563
1493478726.3,40.4798064248485,-79.919620638213,5.34000015258789,0.276168823242188,-0.905914306640625,0.277175903320312,-0.0793414278278587,0.464282188638964,-0.0958373139359185
1493478726.4,40.4798064248485,-79.919620638213,5.34000015258789,0.182342529296875,-0.982650756835938,0.268524169921875,-0.0252025586598559,0.391592804581905,-0.122816999991184
1493478726.6,40.4798064248485,-79.919620638213,5.34000015258789,0.229721069335938,-0.90960693359375,0.286697387695312,-0.0200426840478273,0.387305914175205,-0.113157182085249
1493478726.8,40.4798064248485,-79.919620638213,5.34000015258789,0.183441162109375,-0.926727294921875,0.348907470703125,-0.00594603976581992,0.345735034823504,-0.0766542982879687
1493478727.0,40.4798064248485,-79.919620638213,5.34000015258789,0.163619995117188,-0.955841064453125,0.34844970703125,0.00209244566847526,0.281859648710171,-0.0764071569388094
1493478727.2,40.4797375752989,-79.9197000117421,6.8899998664856,0.0784149169921875,-0.898895263671875,0.39312744140625,-0.00385758883897978,0.154260676665641,-0.0228280842319412
1493478727.4,40.4797375752989,-79.9197000117421,6.8899998664856,0.0845489501953125,-0.93206787109375,0.361099243164062,-0.00617880004509284,0.152150387817862,-0.0100518352183951
1493478727.7,40.4797375752989,-79.9197000117421,6.8899998664856,0.0088958740234375,-0.880569458007812,0.359176635742188,-0.0306742894355327,0.106565858387303,-0.0347079132225667
1493478727.9,40.4797375752989,-79.9197000117421,6.8899998664856,0.008880615234375,-0.91302490234375,0.415115356445312,-0.0453866565615664,0.0492258695890246,-0.00272414747904205
1493478728.1,40.4797375752989,-79.9197000117421,6.8899998664856,-0.0272674560546875,-0.962173461914062,0.38037109375,-0.0466396738544487,-0.0220267390599364,0.0496913901475705
1493478728.3,40.4796721817858,-79.9197382892468,8.71000003814697,-0.0921478271484375,-0.917724609375,0.333358764648438,-0.021310082410596,0.0852312748946779,-0.0302921258191063
1493478728.5,40.4796721817858,-79.9197382892468,8.71000003814697,0.010009765625,-0.973495483398438,0.351028442382812,-0.0420619662567115,0.070478960352293,-0.000612527050718225
1493478728.7,40.4796721817858,-79.9197382892468,8.71000003814697,0.190597534179688,-0.950286865234375,0.319992065429688,0.0198024669175022,-0.00437903578041729,0.0290018242709629
1493478728.9,40.4796721817858,-79.9197382892468,8.71000003814697,-0.093170166015625,-0.923171997070312,0.32928466796875,-0.00133504265445672,0.0127775805940912,0.0266087077154177
1493478729.1,40.4796721817858,-79.9197382892468,8.71000003814697,-0.08282470703125,-0.913223266601562,0.358551025390625,-0.0314412798294755,0.0161558004368567,-0.0280851642237576
1493478729.3,40.4795939244242,-79.9197847774387,10.2399997711182,-0.030914306640625,-0.94659423828125,0.224700927734375,-0.00275131172216086,-0.0574206825793075,0.013980796774589
1493478729.5,40.4795939244242,-79.9197847774387,10.2399997711182,0.004241943359375,-0.952789306640625,0.338623046875,0.00239098602667314,0.0595424230197736,-0.0641020211220983
1493478729.7,40.4795939244242,-79.9197847774387,10.2399997711182,-0.04217529296875,-0.972030639648438,0.165863037109375,0.0453653512728458,-0.0247578107578126,0.0175877821549923
1493478729.9,40.4795939244242,-79.9197847774387,10.2399997711182,0.047088623046875,-1.00923156738281,0.22509765625,-0.0162239773607627,-0.00627440752822669,0.0147770819405227
1493478730.1,40.4795939244242,-79.9197847774387,10.2399997711182,-0.0240325927734375,-1.01435852050781,0.28399658203125,0.0360259116460469,-0.0853247518489397,0.0443038152623402
1493478730.3,40.4795021404931,-79.9198393009866,11.0600004196167,-0.031707763671875,-0.936904907226562,0.196273803710938,0.0371692067020179,-0.0768226100688617,0.0432273655497302
1493478730.5,40.4795021404931,-79.9198393009866,11.0600004196167,0.03533935546875,-1.00248718261719,0.149276733398438,0.0584728975259978,0.0868408894575218,-0.0230821497999348
1493478730.7,40.4795021404931,-79.9198393009866,11.0600004196167,-0.0035858154296875,-0.970245361328125,0.187454223632812,-0.0272175063406098,-0.0561980253228521,0.0126609341383457
1493478730.8,40.4795021404931,-79.9198393009866,11.0600004196167,0.0077056884765625,-0.923202514648438,0.165328979492188,-0.0400110659012415,0.0151483265964797,-0.024971662593346
1493478731.1,40.4795021404931,-79.9198393009866,11.0600004196167,-0.004425048828125,-0.95623779296875,0.18072509765625,-0.0319366277922302,0.00871812414448339,0.0039153794346345
1493478731.2,40.4794126504586,-79.9198924618626,11.25,-0.0005340576171875,-0.964675903320312,0.1629638671875,-0.0164205186492106,0.0352053917141935,-0.0258481089080911
1493478731.5,40.4794126504586,-79.9198924618626,11.25,-0.0690460205078125,-0.966629028320312,0.203216552734375,-0.00294252668842855,0.0276753037319944,-0.00330018922282619
1493478731.7,40.4794126504586,-79.9198924618626,11.25,0.0845794677734375,-0.918853759765625,0.160247802734375,-0.0825558632635843,0.114346549828078,-0.0523185985629337
1493478731.9,40.4794126504586,-79.9198924618626,11.25,-0.046051025390625,-0.930465698242188,0.116531372070312,-0.033541448665112,0.0161691162423071,-0.0302391289134137
1493478732.1,40.4794126504586,-79.9198924618626,11.25,-0.13580322265625,-0.950927734375,0.156478881835938,-0.0122265725645538,-0.112666095180238,0.0534762746887911
1493478732.3,40.4793210012866,-79.9199469053579,11.1099996566772,-0.048248291015625,-1.04318237304688,0.106765747070312,0.0201406883759423,-0.00225756165606017,0.00554310349289093
1493478732.5,40.4793210012866,-79.9199469053579,11.1099996566772,-0.0773468017578125,-0.913604736328125,0.15313720703125,0.0244981525515299,-0.00866992092875296,-0.00505787554227849
1493478732.7,40.4793210012866,-79.9199469053579,11.1099996566772,0.0189971923828125,-1.01557922363281,0.12945556640625,-0.0745738368443988,-0.00908883616822242,-0.00287248555175947
1493478732.9,40.4793210012866,-79.9199469053579,11.1099996566772,-0.154434204101562,-1.04054260253906,0.121200561523438,0.0665574556471513,-0.0600002204111582,0.0061673484524055
1493478733.1,40.4793210012866,-79.9199469053579,11.1099996566772,-0.0432586669921875,-0.953201293945312,0.1434326171875,-0.0216882512853873,0.0192818189243917,-0.0386555169063911
1493478733.3,40.4792313285793,-79.9200001747494,10.6400003433228,-0.122787475585938,-0.981170654296875,0.08001708984375,-0.0195872835014238,-0.0775259509127517,-0.011728827756818
1493478733.5,40.4792313285793,-79.9200001747494,10.6400003433228,-0.179336547851562,-0.975082397460938,0.135238647460938,-0.0606795928052374,-0.0932085076239013,0.025208417614254
1493478733.7,40.4792313285793,-79.9200001747494,10.6400003433228,-0.117019653320312,-0.928512573242188,0.118515014648438,0.0202155232025735,-0.207549731129799,0.04339114995677
1493478733.9,40.4792313285793,-79.9200001747494,10.6400003433228,-0.187393188476562,-0.954208374023438,0.127883911132812,0.0257594256437914,-0.132070153198665,-0.00899136447232552
1493478734.1,40.4792313285793,-79.9200001747494,10.6400003433228,-0.287445068359375,-0.952102661132812,0.1629638671875,-0.0544656390337555,-0.149628906897775,0.00729200138074596
1493478734.3,40.4791475807364,-79.9200499245201,9.98999977111816,-0.238967895507812,-0.923751831054688,0.143218994140625,-0.0716057438095055,-0.22716204834547,0.0499651631076306
1493478734.5,40.4791475807364,-79.9200499245201,9.98999977111816,-0.289291381835938,-0.9681396484375,0.145233154296875,-0.00809734129438592,-0.242464039336847,0.0698467259095082
1493478734.7,40.4791475807364,-79.9200499245201,9.98999977111816,-0.316009521484375,-0.960220336914062,0.135543823242188,0.00483923001678298,-0.232975729005113,0.063557404679177
1493478734.9,40.4791475807364,-79.9200499245201,9.98999977111816,-0.339828491210938,-0.891738891601562,0.109695434570312,-0.0561088094263344,-0.270873576581376,0.0608987709629509
1493478735.1,40.4791475807364,-79.9200499245201,9.98999977111816,-0.387832641601562,-0.965087890625,0.146713256835938,-0.0463669661588246,-0.301776897870656,0.110124107919758
1493478735.2,40.4790662144706,-79.9200982595329,9.47999954223633,-0.440322875976562,-0.934707641601562,0.09857177734375,-0.0413495706651153,-0.334784116421098,0.114525514253332
1493478735.5,40.4790662144706,-79.9200982595329,9.47999954223633,-0.508529663085938,-0.79266357421875,0.196640014648438,-0.0504008562619676,-0.34005051747673,0.072864087424568
1493478735.7,40.4790662144706,-79.9200982595329,9.47999954223633,-0.355300903320312,-0.84149169921875,0.102920532226562,-0.0966969823357961,-0.374849244492468,0.0906055339744578
1493478735.8,40.4790662144706,-79.9200982595329,9.47999954223633,-0.380783081054688,-0.9228515625,0.18670654296875,-0.0182764756128868,-0.329623442860742,0.0657025809372359
1493478736.1,40.4790662144706,-79.9200982595329,9.47999954223633,-0.31842041015625,-0.8717041015625,0.20355224609375,0.0106257464333072,-0.328749393390978,0.0553340958652304
1493478736.2,40.4790105533058,-79.9202223751982,8.97999954223633,-0.4080810546875,-1.00944519042969,0.114151000976562,-0.0474684495856813,-0.367738071749738,-0.000603205986902947
1493478736.4,40.4790105533058,-79.9202223751982,8.97999954223633,-0.29803466796875,-1.11116027832031,0.142623901367188,0.149220111670448,-0.375384273555465,0.096323340834858
1493478736.6,40.4790105533058,-79.9202223751982,8.97999954223633,-0.331405639648438,-0.900100708007812,0.146026611328125,0.0205145961929894,-0.284137184074407,0.0574526405123884
1493478736.8,40.4790105533058,-79.9202223751982,8.97999954223633,-0.44232177734375,-0.86212158203125,0.329605102539062,-0.0750646574333004,0.00686483034189725,-0.0359713168437003
1493478737.1,40.4790105533058,-79.9202223751982,8.97999954223633,-0.108856201171875,-0.80279541015625,0.161956787109375,-0.0789190504789721,-0.144138800310577,0.0848610955031569
1493478737.2,40.4790122551824,-79.9202973336663,8.97000026702881,-0.399337768554688,-0.915420532226562,0.275604248046875,-0.0430135137141968,-0.297532884357506,0.178385187716233
1493478737.4,40.4790122551824,-79.9202973336663,8.97000026702881,-0.39300537109375,-1.01234436035156,0.193588256835938,-0.0129855734752264,-0.213714416421115,0.0537292749923486
1493478737.7,40.4790122551824,-79.9202973336663,8.97000026702881,-0.27215576171875,-1.04380798339844,0.132980346679688,0.0427125765110178,-0.205582454032558,-0.0427469312890799
1493478737.9,40.4790122551824,-79.9202973336663,8.97000026702881,-0.131668090820312,-0.974517822265625,0.105743408203125,0.0810125614118834,-0.228146352684363,0.102708535864432
1493478738.0,40.4790122551824,-79.9202973336663,8.97000026702881,-0.348785400390625,-0.827896118164062,0.220123291015625,0.0407263909700368,-0.180027292844375,0.0381990510955516
1493478738.2,40.4790398969805,-79.9204318128815,9.14000034332275,-0.227508544921875,-0.851577758789062,0.2049560546875,-0.0921959737774531,-0.201504888087537,0.0123706495795271
1493478738.4,40.4790398969805,-79.9204318128815,9.14000034332275,-0.192108154296875,-0.925323486328125,0.215347290039062,0.0571770033395652,-0.276921881733055,0.105789014297327
1493478738.6,40.4790398969805,-79.9204318128815,9.14000034332275,-0.15362548828125,-0.932968139648438,0.100997924804688,0.0262696873086506,-0.238435741871993,0.0509963390817093
1493478738.9,40.4790398969805,-79.9204318128815,9.14000034332275,-0.320587158203125,-0.92279052734375,0.071990966796875,-0.0227564451986181,-0.29661356114921,0.0996903754010451
1493478739.0,40.4790398969805,-79.9204318128815,9.14000034332275,-0.255279541015625,-0.953338623046875,0.162094116210938,-0.016870326557325,-0.212629710909125,0.0270313513804133
1493478739.2,40.4790751627808,-79.9205477832342,9.22000026702881,-0.08642578125,-1.05589294433594,0.152145385742188,0.0828027382966347,-0.0547900120545272,-0.0107391970957445
1493478739.4,40.4790751627808,-79.9205477832342,9.22000026702881,-0.18365478515625,-0.937149047851562,0.194839477539062,0.0435157858957857,-0.171530211070369,0.0723245309877179
1493478739.6,40.4790751627808,-79.9205477832342,9.22000026702881,-0.144805908203125,-0.88397216796875,0.247711181640625,-0.0030450583903966,-0.00742862154466703,-0.0149390021347995
1493478739.8,40.4790751627808,-79.9205477832342,9.22000026702881,-0.04010009765625,-0.9547119140625,0.26092529296875,0.0192184356904478,-0.0437418882723335,-0.0274119171001856
1493478740.0,40.4790751627808,-79.9205477832342,9.22000026702881,-0.086517333984375,-0.891204833984375,0.1683349609375,0.0732454520926673,-0.0377071652422139,-0.00341763462689869
1493478740.2,40.4791073878654,-79.9206458215868,9.26000022888184,-0.218124389648438,-1.00375366210938,0.277328491210938,0.0587131146563229,-0.214172480128608,0.105642806753481
1493478740.4,40.4791073878654,-79.9206458215868,9.26000022888184,-0.0251922607421875,-0.845535278320312,0.293121337890625,-0.0667920801391873,0.150403620458879,-0.0948988159677746
1493478740.7,40.4791073878654,-79.9206458215868,9.26000022888184,-0.0004730224609375,-0.9716796875,0.22406005859375,-0.123519009254529,0.0593006079927944,-0.0461986543779316
1493478740.9,40.4791073878654,-79.9206458215868,9.26000022888184,-0.099761962890625,-0.824783325195312,0.29937744140625,-0.0576345344148408,-0.0272702369301934,0.0719828474198607
1493478741.1,40.4791073878654,-79.9206458215868,9.26000022888184,0.0513458251953125,-0.949508666992188,0.210250854492188,-0.069506107606087,0.0589402822973067,-0.102154065725477
