timestamp,latitude,longitude,speed,accelerometerX,accelerometerY,accelerometerZ,gyroX,gyroY,gyroZ
1493478772.5,40.4795226487407,-79.9223915814946,0.0,-0.051666259765625,-0.952987670898438,0.209823608398438,-0.0099687445923846,-0.0201430852209233,0.0170093435662271
1493478772.7,40.4795226487407,-79.9223915814946,0.0,-0.0402984619140625,-0.942520141601562,0.243301391601562,-0.0105474494972588,-0.0041878208141496,-0.0096931074195614
1493478772.9,40.4795226487407,-79.9223915814946,0.0,-0.0446929931640625,-0.933624267578125,0.309524536132812,-0.00215476363798311,-0.00530475057532883,-0.00107458549984697
1493478773.1,40.4795226487407,-79.9223915814946,0.0,-0.0364990234375,-0.9036865234375,0.382476806640625,0.0223580362995422,-0.00227300799038263,-0.000831438892322738
1493478773.3,40.4795247861631,-79.9223902149634,0.330000013113022,-0.0328826904296875,-0.89208984375,0.409835815429688,-0.0201167199261315,0.00544856127419311,-0.00555109297616116
1493478773.5,40.4795247861631,-79.9223902149634,0.330000013113022,-0.0365142822265625,-0.898956298828125,0.407058715820312,-0.00190842123715078,-0.00956447673891058,-0.0213191371583023
1493478773.7,40.4795247861631,-79.9223902149634,0.330000013113022,0.0057830810546875,-0.89990234375,0.39288330078125,-0.0212786571097331,0.00226581745543942,-0.000223705531566656
1493478776.8,40.4795210526669,-79.9223926019222,0.430000007152557,-0.374542236328125,-1.06324768066406,0.409332275390625,0.0988312396333856,-0.0772101000074683,0.128090591581759
1493478777.0,40.4795210526669,-79.9223926019222,0.430000007152557,-0.0644073486328125,-0.921234130859375,0.440353393554688,0.00310418056659636,0.0244361008981311,-0.057606837539504
1493478777.1,40.4795210526669,-79.9223926019222,0.430000007152557,-0.153472900390625,-0.930740356445312,0.49468994140625,0.0558760491470615,-0.0163265090627308,-0.0452329921666688
1493478777.3,40.4795062630991,-79.9223832293771,0.5,-0.089569091796875,-0.88629150390625,0.3870849609375,-0.215059046455496,0.116240323679234,-0.250929695809991
1493478777.5,40.4795062630991,-79.9223832293771,0.5,0.054656982421875,-0.939743041992188,0.412429809570312,0.00574204162631985,0.202044710840497,-0.152931226649473
1493478777.7,40.4795062630991,-79.9223832293771,0.5,0.0301666259765625,-0.914901733398438,0.49658203125,0.042246257004145,0.111417072628991,0.0086747146187151
1493478777.9,40.4795062630991,-79.9223832293771,0.5,-0.109512329101562,-0.902740478515625,0.502731323242188,0.0706171784128681,0.012302472655621,-0.0174343840762037
1493478778.1,40.4795062630991,-79.9223832293771,0.5,0.0944061279296875,-0.970489501953125,0.549224853515625,0.02994751277405,-0.0140383210541347,-0.0945502081810832
1493478778.3,40.4795062630991,-79.9223832293771,0.5,0.08929443359375,-0.823013305664062,0.442672729492188,0.0459539098737533,0.0614002441962129,0.0216363196441308
1493478778.5,40.4795062630991,-79.9223832293771,0.5,-0.212371826171875,-0.858505249023438,0.434967041015625,-0.0389567204256791,-0.0337688826222047,0.104177269205611
1493478778.7,40.4794272981006,-79.9222213652744,0.569999992847443,0.0546722412109375,-0.83349609375,0.424163818359375,0.0212797223741691,-0.212863270136725,0.118050740588269
1493478778.9,40.4794272981006,-79.9222213652744,0.569999992847443,-0.0429840087890625,-0.854537963867188,0.313507080078125,0.0474673843212453,-0.00563498255049866,-0.0474791022300417
1493478779.1,40.4794272981006,-79.9222213652744,0.569999992847443,0.0441741943359375,-1.1263427734375,0.151321411132812,0.00434601258290031,0.0382555101106612,-0.0629608565949993
1493478779.3,40.4794025187892,-79.9221618084759,5.53000020980835,0.0702972412109375,-1.06195068359375,0.391098022460938,0.0183387935823946,0.146683983364365,0.062715845774712
1493478779.5,40.4794025187892,-79.9221618084759,5.53000020980835,-0.595672607421875,-0.733123779296875,0.614044189453125,0.014517956366458,-0.287269327832449,0.182146370123751
1493478779.7,40.4794025187892,-79.9221618084759,5.53000020980835,-0.35162353515625,-1.16822814941406,0.2677001953125,-0.106671852198688,0.334645898360523,-0.347409097884728
1493478779.9,40.4794025187892,-79.9221618084759,5.53000020980835,0.311416625976562,-1.1536865234375,0.19952392578125,0.0607786623977884,0.314467126780992,0.0104728809867366
1493478780.1,40.4794025187892,-79.9221618084759,5.53000020980835,0.0764923095703125,-0.795974731445312,0.46734619140625,-0.0327616750979368,0.0523369743744552,0.0101916511756242
1493478780.3,40.4793805900835,-79.9220996612163,5.96999979019165,-0.149429321289062,-0.788238525390625,0.270172119140625,0.0398584667707799,0.0263306736976134,-0.0188517184083439
1493478780.5,40.4793805900835,-79.9220996612163,5.96999979019165,-0.0956268310546875,-0.87451171875,0.213348388671875,0.0516338998466743,-0.0524562839912908,0.011326157799998
1493478780.7,40.4793805900835,-79.9220996612163,5.96999979019165,0.036651611328125,-1.0169677734375,0.156723022460938,0.212844628009095,0.146437108331315,-0.219971247086147
1493478780.9,40.4793805900835,-79.9220996612163,5.96999979019165,-0.165924072265625,-0.836959838867188,0.42041015625,-0.0368267241858337,-0.0635819057612058,0.0104491788530349
1493478781.1,40.4793805900835,-79.9220996612163,5.96999979019165,0.117431640625,-0.9420166015625,0.458740234375,-0.0120705113246751,0.0798437000094476,-0.0856267543165547
1493478781.3,40.4793555624688,-79.9220287314638,6.63000011444092,-0.01947021484375,-0.88531494140625,0.478668212890625,-0.0188660994782303,-0.076462817005592,0.0138649492671705
1493478781.5,40.4793555624688,-79.9220287314638,6.63000011444092,0.08331298828125,-0.842453002929688,0.333633422851562,-0.0275626520178841,0.161864800526144,0.00143251435035362
1493478781.7,40.4793555624688,-79.9220287314638,6.63000011444092,0.263320922851562,-0.691299438476562,0.376495361328125,0.0780452673253171,0.254766245676359,-0.116075740323867
1493478781.9,40.4793555624688,-79.9220287314638,6.63000011444092,0.1597900390625,-0.685272216796875,0.213150024414062,0.107471599474039,-0.0804591565373649,0.117525298905197
1493478782.1,40.4793555624688,-79.9220287314638,6.63000011444092,0.463363647460938,-0.759429931640625,-0.090423583984375,0.0901245670815895,0.475931387879189,-0.177297020094826
1493478782.3,40.4793248514021,-79.9219416944694,7.90000009536743,-0.850738525390625,-0.67193603515625,0.554290771484375,0.0333670116137118,0.347595519161033,-0.146626725400929
1493478782.5,40.4793248514021,-79.9219416944694,7.90000009536743,0.11767578125,-0.801910400390625,0.365966796875,-0.0450745340818091,0.469351249457821,-0.261828948887249
1493478782.7,40.4793248514021,-79.9219416944694,7.90000009536743,0.188980102539062,-0.64056396484375,0.34881591796875,-0.0252686050548898,-0.153027899397043,-0.104352771521447
1493478782.9,40.4793248514021,-79.9219416944694,7.90000009536743,-0.355255126953125,-0.877227783203125,0.553482055664062,0.210959642589537,-0.45978943588,0.284826942796738
1493478783.1,40.4793248514021,-79.9219416944694,7.90000009536743,-0.282577514648438,-0.802841186523438,0.43890380859375,0.0767048983486802,0.223927639201569,-0.112811237459648
1493478783.3,40.4792916922659,-79.9218477194999,8.72999954223633,-0.0516357421875,-0.932235717773438,0.4512939453125,-0.177756948015083,0.0277506711908437,0.00877058841795796
1493478783.5,40.4792916922659,-79.9218477194999,8.72999954223633,-0.0826263427734375,-0.813919067382812,0.620864868164062,-0.107099555869755,-0.162046960744705,0.033440514859798
1493478783.7,40.4792916922659,-79.9218477194999,8.72999954223633,-0.474456787109375,-0.464614868164062,0.279891967773438,0.126233569353647,-0.347568354917914,0.156790413385107
1493478783.9,40.4792916922659,-79.9218477194999,8.72999954223633,-0.343475341796875,-0.778732299804688,0.24267578125,-0.159012821314778,-0.505236546198311,0.369652085625178
1493478784.1,40.4792916922659,-79.9218477194999,8.72999954223633,-0.248519897460938,-0.874923706054688,0.331817626953125,0.0659907349671825,0.0804208070176678,0.046315300833677
1493478784.3,40.4792551160085,-79.9217440602056,10.4099998474121,-0.311538696289062,-0.840866088867188,0.429855346679688,-0.0170482257181422,-0.0945558008193724,0.0267248215389452
1493478784.5,40.4792551160085,-79.9217440602056,10.4099998474121,-0.159591674804688,-0.935501098632812,0.303680419921875,-0.0480719218886933,-0.0358426861630494,0.0689042331997291
1493478784.7,40.4792551160085,-79.9217440602056,10.4099998474121,-0.100326538085938,-1.051513671875,0.548004150390625,0.00725871186711997,-0.0181297354368234,0.0043859599992515
1493478784.9,40.4792551160085,-79.9217440602056,10.4099998474121,-0.136947631835938,-0.883514404296875,0.307861328125,-0.0636354352991164,-0.0751072680107417,0.0176679433038037
1493478785.1,40.4792551160085,-79.9217440602056,10.4099998474121,-0.023162841796875,-1.14845275878906,0.3077392578125,-0.0208216586666755,-0.0019728697355307,0.119207884081909
1493478785.3,40.4792130767329,-79.9216249183915,11.1800003051758,-0.370193481445312,-0.752487182617188,0.229019165039062,-0.256297829619264,-0.458880232683847,0.267246084860579
1493478785.5,40.4792130767329,-79.9216249183915,11.1800003051758,0.404953002929688,-1.13005065917969,-0.215591430664062,0.0415666182939567,-0.0194069874956254,0.0644484983799176
1493478785.7,40.4792130767329,-79.9216249183915,11.1800003051758,-0.010406494140625,-0.962112426757812,-0.315948486328125,0.0474442148197616,0.477224086272313,-0.480542118674443
1493478785.9,40.4792130767329,-79.9216249183915,11.1800003051758,0.237457275390625,-1.037109375,0.279159545898438,-0.00154090500671985,0.424401883947245,-0.199426823488949
1493478786.1,40.4792130767329,-79.9216249183915,11.1800003051758,-0.7049560546875,-0.759124755859375,0.4151611328125,-0.138108072022092,-0.704275879748654,0.445014750784459
1493478786.3,40.4791733366284,-79.9215122925655,11.039999961853,-0.161392211914062,-0.789871215820312,0.564804077148438,0.147420347405772,0.331946518279619,-0.240311672543845
1493478786.5,40.4791733366284,-79.9215122925655,11.039999961853,0.29461669921875,-0.734344482421875,0.438217163085938,-0.0418704849743348,0.198108026117141,-0.100097839047827
1493478786.7,40.4791733366284,-79.9215122925655,11.039999961853,-0.12860107421875,-0.853607177734375,0.391403198242188,-0.00330098817115322,-0.160575564242437,0.152849201287899
1493478786.9,40.4791733366284,-79.9215122925655,11.039999961853,-0.229278564453125,-0.890335083007812,0.181869506835938,-0.00482218578580648,-0.0457059695762669,0.0160617908503769
1493478787.1,40.4791733366284,-79.9215122925655,11.039999961853,-0.18316650390625,-1.00851440429688,0.215347290039062,-0.00524349787025701,-0.126535571821262,0.0802389131152154
1493478787.3,40.4791295829733,-79.9213882920978,11.460000038147,-0.007720947265625,-0.433273315429688,0.216827392578125,-0.130673058890809,0.285885815646153,-0.254768376205231
1493478787.5,40.4791295829733,-79.9213882920978,11.460000038147,0.355743408203125,-0.768295288085938,-0.255294799804688,0.274121301530728,-0.0751416227888037,0.237567551356627
1493478787.7,40.4791295829733,-79.9213882920978,11.460000038147,0.0522308349609375,-0.860870361328125,0.08740234375,-0.0351260295137091,-0.10507661870573,0.0191033871313564
1493478787.9,40.4791295829733,-79.9213882920978,11.460000038147,-0.162445068359375,-1.1121826171875,0.066497802734375,0.0671127247344328,-0.388665990543908,0.174416811375906
1493478788.1,40.4791295829733,-79.9213882920978,11.460000038147,-0.492095947265625,-0.862136840820312,0.392379760742188,-0.0887788717827725,0.298387226435203,-0.196796152964168
1493478788.3,40.4790862996009,-79.9212656244393,11.4899997711182,0.2674560546875,-0.655990600585938,0.312774658203125,-0.0272590516536151,0.423494811279964,-0.265793064169832
1493478788.5,40.4790862996009,-79.9212656244393,11.4899997711182,0.0348968505859375,-0.804122924804688,0.272735595703125,0.107575729072661,-0.262347998983706,0.165975389668681
1493478788.7,40.4790862996009,-79.9212656244393,11.4899997711182,0.198638916015625,-0.903335571289062,0.211761474609375,-0.123486785005339,-0.0385457946694799,0.0532120891086552
1493478788.9,40.4790862996009,-79.9212656244393,11.4899997711182,0.286026000976562,-1.22319030761719,0.02777099609375,0.039154593294672,-0.308707508291478,0.160063438364814
1493478789.1,40.4790862996009,-79.9212656244393,11.4899997711182,-0.0124053955078125,-0.931610107421875,0.364303588867188,-0.0421266810712004,0.00663899428145853,-0.108136058166013
1493478789.3,40.479041136855,-79.9211376305242,11.6400003433228,0.021514892578125,-0.948318481445312,0.222396850585938,-0.112772355307732,0.061369617843677,0.025342374617085
1493478789.5,40.479041136855,-79.9211376305242,11.6400003433228,-0.0394134521484375,-0.922698974609375,0.165298461914062,-0.0474101263578086,-0.0433014014280344,0.0166857694937825
1493478789.7,40.479041136855,-79.9211376305242,11.6400003433228,0.065521240234375,-0.9520263671875,0.159927368164062,-0.0207779828247982,0.088425470306119,0.0102212122637241
1493478789.9,40.479041136855,-79.9211376305242,11.6400003433228,0.07379150390625,-1.29716491699219,0.095001220703125,0.249984806255231,0.00261975156431095,-0.0560891020342678
1493478790.1,40.479041136855,-79.9211376305242,11.6400003433228,0.189056396484375,-0.502365112304688,0.251632690429688,-0.0848837323724226,0.533443683199995,-0.197362873644137
1493478790.3,40.479041136855,-79.9211376305242,11.6400003433228,-0.588043212890625,-0.90545654296875,0.358047485351562,0.0435717122786774,-0.47891066619066,0.288493582985559
1493478790.5,40.4789977624902,-79.9210193944551,11.4700002670288,-0.267852783203125,-0.669342041015625,0.280532836914062,-0.0849220818921197,-0.167520555733145,-0.0334897833399644
1493478790.7,40.4789977624902,-79.9210193944551,11.4700002670288,-0.197341918945312,-1.25468444824219,0.0551910400390625,0.100662429198924,-0.191046388170687,0.0878869791337049
1493478790.9,40.4789977624902,-79.9210193944551,11.4700002670288,-0.0743865966796875,-0.656967163085938,0.407745361328125,0.232225516526038,-0.361005334197909,0.263465461377103
1493478791.1,40.4789977624902,-79.9210193944551,11.4700002670288,-0.560699462890625,-0.942977905273438,0.378005981445312,-0.073604978839828,-0.371791669244948,0.194256828864778
1493478791.3,40.4789498741477,-79.9208917545571,11.0500001907349,-0.234603881835938,-1.16075134277344,0.1533203125,0.0521377699249173,-0.0152444667118316,-0.0825915496221914
1493478791.5,40.4789498741477,-79.9208917545571,11.0500001907349,-0.0558013916015625,-1.15922546386719,0.07977294921875,-0.000758468278454567,0.00957566201548891,-0.0170919015600195
1493478791.7,40.4789498741477,-79.9208917545571,11.0500001907349,-0.0354156494140625,-0.88946533203125,0.154876708984375,0.0873767174688458,0.255759871079068,-0.174624537940932
1493478791.9,40.4789498741477,-79.9208917545571,11.0500001907349,-0.480682373046875,-0.904403686523438,0.172103881835938,0.0276859563763548,-0.13313168920917,0.0827255066250224
1493478792.1,40.4789498741477,-79.9208917545571,11.0500001907349,-0.640060424804688,-0.649200439453125,0.0897979736328125,-0.130619263036789,-0.346971274201519,0.0944511385885322
1493478792.3,40.478908533254,-79.9207815659986,10.4899997711182,0.186630249023438,-0.740158081054688,-0.0489349365234375,-0.193500757431304,0.104395115782779,-0.276267543053223
1493478792.5,40.478908533254,-79.9207815659986,10.4899997711182,-0.171157836914062,-0.84613037109375,-0.02264404296875,-0.0382432595696469,-0.264591712202098,0.15915716464586
1493478792.7,40.478908533254,-79.9207815659986,10.4899997711182,-0.214309692382812,-1.39044189453125,0.141708374023438,0.0476386255793374,0.145373441791937,-0.287765208427422
1493478792.9,40.478908533254,-79.9207815659986,10.4899997711182,0.181396484375,-1.4725341796875,0.005584716796875,0.497002851056114,-0.0776838763653934,0.0585996639938855
1493478793.1,40.478908533254,-79.9207815659986,10.4899997711182,0.281845092773438,-0.822555541992188,-0.090057373046875,0.184934699785064,0.353013187766581,-0.0139445777837639
1493478793.3,40.4788709032598,-79.9206812683401,8.63000011444092,-0.210800170898438,-0.89080810546875,0.4150390625,-0.209089038239865,0.0545426043892588,-0.0214733341854179
1493478793.5,40.4788709032598,-79.9206812683401,8.63000011444092,-0.1221923828125,-0.911651611328125,0.339935302734375,0.0156695072218082,-0.100084256926268,0.0451997026530428
1493478793.7,40.4788709032598,-79.9206812683401,8.63000011444092,0.065673828125,-0.898208618164062,0.277694702148438,-0.111706025607265,0.217705695946816,-0.122187695025599
1493478793.9,40.4788709032598,-79.9206812683401,8.63000011444092,0.213150024414062,-1.15342712402344,0.123992919921875,-0.146881589917249,-0.0617978541469617,0.0381055741412898
1493478794.1,40.4788709032598,-79.9206812683401,8.63000011444092,-0.65228271484375,-1.01779174804688,0.436325073242188,0.0258169499233371,-0.248001816507558,0.0787379555248467
1493478794.3,40.4788367806885,-79.9205903192431,8.09000015258789,-0.2772216796875,-1.10043334960938,0.529312133789062,0.139728339229296,-0.158343302616732,-0.0248161339856854
1493478794.5,40.4788367806885,-79.9205903192431,8.09000015258789,0.0595855712890625,-0.89263916015625,-0.0089263916015625,0.0339204164882302,0.0348993945049434,0.107944843199746
1493478794.7,40.4788367806885,-79.9205903192431,8.09000015258789,-0.0807952880859375,-0.90130615234375,0.0673675537109375,-0.012200207269762,-0.0031188279525918,-0.0438316368010691
1493478794.9,40.4788367806885,-79.9205903192431,8.09000015258789,0.18536376953125,-0.940261840820312,-0.0594940185546875,0.111302290386009,-0.0815553136420415,0.0706539300359112
1493478795.1,40.4788367806885,-79.9205903192431,8.09000015258789,-0.0850067138671875,-0.95538330078125,0.271636962890625,-0.123980801387549,0.224162530009714,-0.155382666432891
1493478795.3,40.4788082187956,-79.9205141913819,7.28000020980835,0.248519897460938,-0.997283935546875,0.0049896240234375,-0.0699367407543529,0.138746431735384,0.0501041801165328
1493478795.5,40.4788082187956,-79.9205141913819,7.28000020980835,-0.020477294921875,-0.867584228515625,-0.150482177734375,0.0125466845275813,0.254134810181901,-0.0772947885301328
1493478795.7,40.4788082187956,-79.9205141913819,7.28000020980835,0.203659057617188,-0.900436401367188,-0.001007080078125,-0.0546395434529377,0.301355852102314,-0.199652925865496
1493478795.9,40.4788082187956,-79.9205141913819,7.28000020980835,-0.25140380859375,-1.1890869140625,-0.095001220703125,0.193436841565142,0.0497965850106286,-0.0226709577276265
1493478796.1,40.4788082187956,-79.9205141913819,7.28000020980835,-0.102874755859375,-1.05575561523438,0.032501220703125,-0.0185073716793967,0.0213889119788624,-0.0364959595784459
1493478796.3,40.4787850462275,-79.9204524280368,5.28000020980835,-0.287322998046875,-1.2025146484375,0.043243408203125,-0.0760843818146918,-0.156918777749649,0.104114951236103
1493478796.5,40.4787850462275,-79.9204524280368,5.28000020980835,-0.100372314453125,-1.13517761230469,-0.052154541015625,-0.0377162199899202,0.175729749793315,-0.182096036379149
1493478796.7,40.4787850462275,-79.9204524280368,5.28000020980835,0.01214599609375,-0.964340209960938,0.145416259765625,0.00547705709785696,-0.126606145590149,0.075017785798115
1493478796.9,40.4787850462275,-79.9204524280368,5.28000020980835,-0.119766235351562,-0.961502075195312,0.205764770507812,0.00933970594290789,0.261590063337469,-0.149849416636034
1493478797.1,40.4787850462275,-79.9204524280368,5.28000020980835,0.113189697265625,-0.982513427734375,0.198715209960938,0.0362626666669549,0.0561330441922542,-0.050951864291505
1493478797.3,40.4787706309874,-79.9204140061648,3.22000002861023,0.031402587890625,-0.886444091796875,0.268798828125,0.0136622827082155,0.0924524361904278,-0.0139594914858683
1493478797.5,40.4787706309874,-79.9204140061648,3.22000002861023,0.136154174804688,-0.922836303710938,0.3109130859375,0.0250877764168734,0.228524521559154,-0.0739016549852628
1493478797.7,40.4787706309874,-79.9204140061648,3.22000002861023,0.144485473632812,-0.975173950195312,0.307373046875,-0.0220341959109886,0.322437168975273,-0.0810237466884617
1493478797.9,40.4787706309874,-79.9204140061648,3.22000002861023,0.102264404296875,-0.978530883789062,0.296646118164062,0.0783083876410169,0.214349047708881,-0.0797174661737779
1493478798.1,40.4787706309874,-79.9204140061648,3.22000002861023,0.167098999023438,-0.896240234375,0.357376098632812,0.0502687634718997,0.407048193652071,-0.181792169698771
1493478798.3,40.4787539508997,-79.9203695476478,3.71000003814697,0.26068115234375,-0.95440673828125,0.3321533203125,0.0284042109223491,0.444430453241295,-0.120272083253505
1493478798.5,40.4787539508997,-79.9203695476478,3.71000003814697,0.203140258789062,-0.898681640625,0.340011596679688,-0.00926380585184063,0.547844993110707,-0.190228531399924
1493478798.7,40.4787539508997,-79.9203695476478,3.71000003814697,0.218032836914062,-0.946823120117188,0.34405517578125,0.012502209737377,0.551953185408264,-0.222002706365659
1493478798.9,40.4787539508997,-79.9203695476478,3.71000003814697,0.27154541015625,-0.931640625,0.286026000976562,-0.0430694400970885,0.511904568935652,-0.152098189860496
1493478799.1,40.4787539508997,-79.9203695476478,3.71000003814697,0.210418701171875,-0.961715698242188,0.306655883789062,-0.00850054388342392,0.482963464737543,-0.126080437590967
1493478799.3,40.4787415297855,-79.9203364408485,4.78999996185303,0.192764282226562,-0.94354248046875,0.33819580078125,0.0385580452104942,0.479463538432961,-0.142649027996786
1493478799.5,40.4787415297855,-79.9203364408485,4.78999996185303,0.223739624023438,-0.938385009765625,0.291412353515625,-0.0258393204764938,0.494769257849864,-0.175334270371438
1493478799.7,40.4787415297855,-79.9203364408485,4.78999996185303,0.28704833984375,-0.938674926757812,0.29547119140625,0.0150047822137244,0.472171537052215,-0.137540286077687
1493478799.9,40.4787415297855,-79.9203364408485,4.78999996185303,0.220993041992188,-0.957244873046875,0.222198486328125,-0.0506077838786668,0.481104045664449,-0.162758024755757
1493478800.1,40.4787415297855,-79.9203364408485,4.78999996185303,0.234970092773438,-0.968292236328125,0.2177734375,-0.029073995936504,0.449059293531962,-0.11980629637885
1493478800.3,40.4788327718884,-79.9202369848151,5.36999988555908,0.261520385742188,-0.922897338867188,0.30450439453125,0.0436220460232799,0.45071071972392,-0.139324337691931
1493478800.5,40.4788327718884,-79.9202369848151,5.36999988555908,0.256698608398438,-0.940338134765625,0.219009399414062,0.00941347550510308,0.43072236416233,-0.140689207750597
1493478800.7,40.4788327718884,-79.9202369848151,5.36999988555908,0.291305541992188,-0.988906860351562,0.24920654296875,-0.0447267252434448,0.454476429505292,-0.140238600894156
1493478800.9,40.4788327718884,-79.9202369848151,5.36999988555908,0.279647827148438,-0.96075439453125,0.182144165039062,0.0184154926217889,0.415777236757024,-0.106439624551633
1493478801.1,40.4788327718884,-79.9202369848151,5.36999988555908,0.350723266601562,-1.03138732910156,0.139846801757812,0.0256228054798704,0.495506687155707,-0.122564798635954
1493478801.3,40.4788832066888,-79.9202070111968,6.21000003814697,0.39239501953125,-0.969619750976562,0.17010498046875,0.0408872458998775,0.541147142969158,-0.123592512500615
1493478801.5,40.4788832066888,-79.9202070111968,6.21000003814697,0.3218994140625,-0.909576416015625,0.139892578125,0.0253570220030805,0.57847640565269,-0.135576204773754
1493478801.7,40.4788832066888,-79.9202070111968,6.21000003814697,0.32891845703125,-0.996902465820312,0.235595703125,-0.0319587320292779,0.573527986031213,-0.152143463599028
1493478801.9,40.4788832066888,-79.9202070111968,6.21000003814697,0.111312866210938,-0.919540405273438,0.20404052734375,0.061843127885493,0.416561271381943,-0.0889375961837412
1493478802.1,40.4788832066888,-79.9202070111968,6.21000003814697,0.335479736328125,-0.905059814453125,0.2489013671875,0.00690903881599257,0.561579447484464,-0.11972826575891
1493478802.3,40.4789258623829,-79.9201816607347,6.65999984741211,0.249725341796875,-0.94842529296875,0.1669921875,-0.0236105209602065,0.473489801791804,-0.116614764128499
1493478802.5,40.4789258623829,-79.9201816607347,6.65999984741211,0.31085205078125,-0.98260498046875,0.153411865234375,0.0177742034312978,0.472158487562873,-0.106591691049876
1493478802.7,40.4789258623829,-79.9201816607347,6.65999984741211,0.2337646484375,-0.891326904296875,0.249481201171875,0.0511252360784692,0.420887043940559,-0.0815949947422837
1493478802.9,40.4789258623829,-79.9201816607347,6.65999984741211,0.352508544921875,-0.961685180664062,0.24517822265625,-0.0419945882811325,0.453400246108791,-0.107155215936537
1493478803.1,40.4789258623829,-79.9201816607347,6.65999984741211,0.1904296875,-0.910980224609375,0.233551025390625,-0.00145808069681838,0.442510047779239,-0.0406068150370922
1493478803.3,40.4790236994546,-79.9203662266728,7.03000020980835,0.156967163085938,-0.795684814453125,0.189239501953125,0.00790932212142633,0.419035348034627,-0.115085310714466
1493478803.5,40.4790236994546,-79.9203662266728,7.03000020980835,0.2926025390625,-0.902511596679688,0.198272705078125,-0.026552781332526,0.282044738405932,-0.0841644125619922
1493478803.7,40.4790236994546,-79.9203662266728,7.03000020980835,0.0185089111328125,-1.00556945800781,0.230545043945312,0.0363564099373257,0.268881265769888,-0.0195135139392286
1493478803.9,40.4790236994546,-79.9203662266728,7.03000020980835,0.0791778564453125,-0.993270874023438,0.240371704101562,-0.00971601060493608,0.228759412367299,-0.0209478925023453
1493478804.1,40.4790236994546,-79.9203662266728,7.03000020980835,0.0015869140625,-0.881576538085938,0.178054809570312,-0.042819901902948,0.132168956475106,-0.0668847581451221
1493478804.3,40.4790270031593,-79.9203796038678,7.82000017166138,-0.0331268310546875,-1.05325317382812,0.1177978515625,0.127477531898823,0.0736411978306531,0.0629555302728191
1493478804.5,40.4790270031593,-79.9203796038678,7.82000017166138,0.001434326171875,-1.28982543945312,0.14129638671875,0.00102798018077059,-0.0308692328273265,-0.0916042193832375
1493478804.7,40.4790270031593,-79.9203796038678,7.82000017166138,-0.0354156494140625,-0.802871704101562,0.316513061523438,-0.0415253392970605,-0.0199547997318547,-0.0888694192598352
1493478804.9,40.4790270031593,-79.9203796038678,7.82000017166138,-0.0325469970703125,-0.934371948242188,0.38140869140625,0.0322769797795424,0.0508615831305513,0.0812314732534879
1493478805.1,40.4790270031593,-79.9203796038678,7.82000017166138,0.076202392578125,-0.395095825195312,-0.0973358154296875,0.142884984069367,-0.0456242105308015,-0.115702897771256
1493478805.3,40.4790487804586,-79.920465494904,8.06999969482422,0.603546142578125,-0.784194946289062,-0.015533447265625,0.137092875014554,-0.462508257036862,0.233965625982295
1493478805.5,40.4790487804586,-79.920465494904,8.06999969482422,-0.42962646484375,-0.820144653320312,0.1337890625,-0.168334684078383,-0.0925070309927744,0.032634109681722
1493478805.7,40.4790487804586,-79.920465494904,8.06999969482422,0.0235137939453125,-0.992218017578125,0.1834716796875,-0.067924988866907,-0.0889085677278593,0.0123285716343038
1493478805.9,40.4790487804586,-79.920465494904,8.06999969482422,-0.0332794189453125,-0.934921264648438,0.3240966796875,0.107544836404016,-0.115566277607334,0.0930937253809189
1493478806.1,40.4790487804586,-79.920465494904,8.06999969482422,-0.0712738037109375,-0.8294677734375,0.279541015625,-0.0443597416452319,-0.0273623823039101,0.0358677198772962
1493478806.3,40.4790774448993,-79.9205547261216,8.65999984741211,-0.035919189453125,-0.889434814453125,0.248825073242188,-0.0145959869863973,0.051154264534351,0.00504961974289924
1493478806.5,40.4790774448993,-79.9205547261216,8.65999984741211,-0.0973358154296875,-0.951019287109375,0.207260131835938,-0.0387950665475113,-0.0167632674815038,0.0241689858407961
1493478806.7,40.4790774448993,-79.9205547261216,8.65999984741211,-0.185775756835938,-0.879745483398438,0.351409912109375,0.0204232497675997,-0.133086681786748,0.0687902499050737
1493478806.9,40.4790774448993,-79.9205547261216,8.65999984741211,-0.076446533203125,-0.899444580078125,0.316009521484375,-0.0610939806708538,0.0025172198623429,-0.0475454149411846
1493478807.1,40.4790774448993,-79.9205547261216,8.65999984741211,-0.122116088867188,-0.857467651367188,0.25885009765625,-0.0642972308300011,-0.0676485527457568,0.0698864070097504
1493478807.3,40.4791128194296,-79.9206623460308,9.35999965667725,-0.234359741210938,-0.977264404296875,0.359848022460938,0.0783541940117663,-0.12814944744185,0.0405828465872815
1493478807.5,40.4791128194296,-79.9206623460308,9.35999965667725,-0.25079345703125,-0.9232177734375,0.190277099609375,0.0150135706453217,-0.405336580019477,0.236833051527984
1493478807.7,40.4791128194296,-79.9206623460308,9.35999965667725,-0.524459838867188,-0.9052734375,0.346771240234375,-0.0704307571365626,-0.368620643334991,0.197479786415992
1493478807.9,40.4791128194296,-79.9206623460308,9.35999965667725,-0.209823608398438,-0.966949462890625,0.346725463867188,-0.0596755810742776,-0.0219513716010871,-0.00908404247826028
1493478808.1,40.4791128194296,-79.9206623460308,9.35999965667725,-0.365020751953125,-0.787796020507812,0.160400390625,0.075487833730514,0.151610565064903,-0.0635912268250211
1493478808.3,40.4791444782131,-79.9207586615263,9.81999969482422,0.441329956054688,-0.795944213867188,-0.107940673828125,0.00126633309833268,-0.258529292296641,-0.23282073302967
1493478808.5,40.4791444782131,-79.9207586615263,9.81999969482422,0.58294677734375,-1.34541320800781,0.101913452148438,0.59323271493671,0.336497594266455,-0.209103685625861
1493478808.7,40.4791444782131,-79.9207586615263,9.81999969482422,-0.432327270507812,-0.60888671875,0.440383911132812,-0.0752809061138149,-0.656813022801261,0.471124648427705
1493478808.9,40.4791444782131,-79.9207586615263,9.81999969482422,0.077239990234375,-0.99957275390625,0.113922119140625,-0.0194458696475406,0.0915802509334268,-0.162499964446128
1493478809.1,40.4791444782131,-79.9207586615263,9.81999969482422,0.077178955078125,-1.05381774902344,0.356552124023438,0.0577250818919035,0.0900334869723088,-0.0444223259308487
1493478809.3,40.4791863963931,-79.9208861891765,10.3199996948242,0.229461669921875,-0.86346435546875,0.252517700195312,-0.145306330132467,0.0796604745264502,0.000439155263754066
1493478809.5,40.4791863963931,-79.9208861891765,10.3199996948242,0.0511322021484375,-1.05183410644531,0.473297119140625,0.0985859624969893,-0.0272313547782782,0.0181390565006387
1493478809.7,40.4791863963931,-79.9208861891765,10.3199996948242,-0.476806640625,-0.854934692382812,0.423553466796875,-0.0474258390082401,-0.287952961284273,0.0397074655369724
1493478809.9,40.4791863963931,-79.9208861891765,10.3199996948242,0.116317749023438,-0.9525146484375,0.507110595703125,-0.112920160748232,0.0241388921204782,0.0158410147960093
1493478810.1,40.4791863963931,-79.9208861891765,10.3199996948242,0.161178588867188,-0.7127685546875,0.185546875,-0.280734995781831,0.285797132381853,-0.26163560339211
1493478810.3,40.4792266676869,-79.9210064930487,11.2200002670288,0.0173797607421875,-0.797119140625,0.07421875,0.134716802689985,-0.297623964466786,0.186602371259672
1493478810.5,40.4792266676869,-79.9210064930487,11.2200002670288,-0.418197631835938,-0.772232055664062,0.025146484375,-0.00332362504041889,-0.19674475395513,0.134816671230863
1493478810.7,40.4792266676869,-79.9210064930487,11.2200002670288,0.085113525390625,-0.974990844726562,0.144729614257812,-0.0554177191234589,0.270531893013519,-0.0822978029539556
1493478810.9,40.4792266676869,-79.9210064930487,11.2200002670288,0.0984954833984375,-0.698577880859375,0.08953857421875,0.129490881682923,-0.183775692078662,0.163864568188685
1493478811.1,40.4792266676869,-79.9210064930487,11.2200002670288,-0.02349853515625,-1.06306457519531,0.216812133789062,-0.0157081230576144,0.038383874475203,-0.0759610774562211
1493478811.3,40.4792664180254,-79.9211168045205,11.210000038147,0.0427093505859375,-1.04550170898438,0.190277099609375,0.142990711564643,0.162868545940995,-0.087452084927695
1493478811.5,40.4792664180254,-79.9211168045205,11.210000038147,0.390869140625,-0.635086059570312,0.51422119140625,-0.0766447109080444,-0.0909895618036473,-0.0517281757492631
1493478811.7,40.4792664180254,-79.9211168045205,11.210000038147,0.103378295898438,-0.823471069335938,0.124908447265625,-0.0661228277572504,-0.234633813099796,0.111880995290883
1493478811.9,40.4792664180254,-79.9211168045205,11.210000038147,-0.100051879882812,-1.08253479003906,0.18408203125,-0.0171952322103146,0.144754789470712,-0.142356080276878
1493478812.1,40.4792664180254,-79.9211168045205,11.210000038147,-0.0605621337890625,-0.950149536132812,0.240631103515625,0.00244238503571167,0.0787025354823487,0.0200799683030884
1493478812.3,40.4793111828833,-79.9212410318241,11.3599996566772,-0.000213623046875,-0.833847045898438,0.32513427734375,-0.0533590956008276,0.0386456632103578,0.029207952939335
1493478812.5,40.4793111828833,-79.9212410318241,11.3599996566772,-0.177337646484375,-1.04780578613281,0.167999267578125,-0.0241729805824312,-0.124287597545126,0.0640460947392066
1493478812.7,40.4793111828833,-79.9212410318241,11.3599996566772,-0.185150146484375,-0.899063110351562,0.227676391601562,-0.0961616869566901,-0.198266217885892,0.147730871988875
1493478812.9,40.4793111828833,-79.9212410318241,11.3599996566772,-0.107162475585938,-1.12678527832031,0.166290283203125,0.0879018928358094,0.0121871577804206,-0.0353827582427928
1493478813.1,40.4793111828833,-79.9212410318241,11.3599996566772,-0.050201416015625,-1.02543640136719,0.202194213867188,-0.0983241737618345,-0.0738230917331055,-0.0146769470835357
1493478813.3,40.4793522546953,-79.9213550105273,11.6899995803833,-0.01263427734375,-0.921783447265625,0.139785766601562,0.0729724780809342,-0.0642974971461101,0.00197926132214689
1493478813.5,40.4793522546953,-79.9213550105273,11.6899995803833,-0.100265502929688,-1.09130859375,0.348434448242188,0.00951893668427022,-0.157480438423547,0.0740726299272459
1493478813.7,40.4793522546953,-79.9213550105273,11.6899995803833,0.14813232421875,-0.96661376953125,0.163711547851562,-0.00168764518278321,0.153169845883144,-0.103835319321644
1493478813.9,40.4793522546953,-79.9213550105273,11.6899995803833,-0.186691284179688,-0.894210815429688,0.314453125,0.017005348824592,-0.127742782743395,0.0879333181366723
1493478814.1,40.4793522546953,-79.9213550105273,11.6899995803833,-0.0658111572265625,-0.953826904296875,0.205551147460938,-0.0460745510711339,0.0545450012342399,-0.0272678400852123
1493478814.3,40.4793990606821,-79.9214849021835,12.2299995422363,0.00701904296875,-1.01712036132812,0.17547607421875,0.0233207690336059,0.0381343362810626,-0.0489054913098881
1493478814.5,40.4793990606821,-79.9214849021835,12.2299995422363,0.0383148193359375,-0.9766845703125,0.09698486328125,-0.100222741302952,0.0538315403782077,-0.0395487411360037
1493478814.7,40.4793990606821,-79.9214849021835,12.2299995422363,-0.109756469726562,-0.912017822265625,0.145950317382812,-0.104604706560568,0.0166404957552511,0.0266076424509817
1493478814.9,40.4793990606821,-79.9214849021835,12.2299995422363,-0.0543212890625,-0.957733154296875,0.186233520507812,-0.057471548956128,0.0620745565842209,0.0312378143221934
1493478815.1,40.4793990606821,-79.9214849021835,12.2299995422363,-0.0496826171875,-1.03025817871094,0.187606811523438,0.0801872477900678,-0.0356187143153738,0.0350317536111203
1493478815.3,40.4794493724095,-79.9216245226473,12.3100004196167,-0.0150909423828125,-1.02847290039062,0.186141967773438,0.00457531075275613,-0.072360217346325,0.0151605771374941
1493478815.5,40.4794493724095,-79.9216245226473,12.3100004196167,0.0876617431640625,-0.817611694335938,0.155838012695312,-0.014991200092165,-0.191362771708189,0.0568497008415945
1493478815.7,40.4794493724095,-79.9216245226473,12.3100004196167,0.04840087890625,-1.06547546386719,0.264419555664062,-0.172089741215394,0.0500498516302952,-0.00402350377489171
1493478815.9,40.4794493724095,-79.9216245226473,12.3100004196167,-0.050384521484375,-0.908370971679688,0.13702392578125,-0.107010073657128,0.0996118121488878,-0.0631930842420542
1493478816.1,40.4794493724095,-79.9216245226473,12.3100004196167,-0.0259857177734375,-0.8514404296875,0.172286987304688,0.0864970753607926,-0.0792751151167157,0.0170833794445313
1493478816.3,40.4794937951525,-79.9217478005452,12.1300001144409,0.0881500244140625,-1.0738525390625,0.06304931640625,0.193366001480146,0.156154184200687,-0.114640562812423
1493478816.5,40.4794937951525,-79.9217478005452,12.1300001144409,-0.11749267578125,-0.810699462890625,0.26007080078125,-0.190088715442695,-0.159380337545209,0.0293853194679343
1493478816.7,40.4794937951525,-79.9217478005452,12.1300001144409,0.0029754638671875,-1.08784484863281,0.06658935546875,-0.187454316492388,0.110767527639121,-0.0928332682263091
1493478816.9,40.4794937951525,-79.9217478005452,12.1300001144409,-0.173492431640625,-0.937789916992188,0.067474365234375,-0.0376648209808817,0.124678283277041,-0.136116560158931
1493478817.1,40.4794937951525,-79.9217478005452,12.1300001144409,0.2437744140625,-1.13679504394531,-0.0121612548828125,-0.101954062327612,0.128304976049511,-0.028030303105302
1493478817.3,40.479540855516,-79.921878398124,11.4799995422363,0.190841674804688,-1.09709167480469,0.0372772216796875,0.0443062121073213,0.231590352606054,-0.0758452299488027
1493478817.5,40.479540855516,-79.921878398124,11.4799995422363,0.0935821533203125,-0.949462890625,-0.009613037109375,-0.0384216913626822,0.116193984676266,-0.00815672978669469
1493478817.7,40.479540855516,-79.921878398124,11.4799995422363,-0.135406494140625,-0.91375732421875,0.01434326171875,0.00897938024742017,-0.00430659779876714,0.0416853952785743
1493478817.9,40.479540855516,-79.921878398124,11.4799995422363,-0.0428924560546875,-0.887710571289062,0.004791259765625,-0.0409074859241621,0.113010441909185,-0.0614846664027684
1493478818.1,40.479540855516,-79.921878398124,11.4799995422363,0.0685882568359375,-1.0877685546875,-0.0836334228515625,0.0157011988387802,0.0530791973702603,-0.0287640039856188
1493478818.3,40.4795773746857,-79.9219797427546,10.1199998855591,0.005096435546875,-1.05784606933594,0.0188446044921875,0.0741543889727113,-0.0292007624043918,0.0125629298102308
1493478818.5,40.4795773746857,-79.9219797427546,10.1199998855591,-0.259796142578125,-0.601455688476562,0.0166168212890625,-0.122170917110731,0.251813598975788,-0.117051788863381
1493478818.7,40.4795773746857,-79.9219797427546,10.1199998855591,-0.244964599609375,-1.31825256347656,-0.15570068359375,0.579055110557564,-0.156940349354479,0.0116646455745471
1493478818.9,40.4795773746857,-79.9219797427546,10.1199998855591,-0.111465454101562,-0.697921752929688,0.2392578125,0.143222140263371,0.388305398532311,-0.524113032004793
1493478819.1,40.4795773746857,-79.9219797427546,10.1199998855591,1.01445007324219,-1.22007751464844,-0.205734252929688,-0.230013494924618,-0.896249047978689,0.208935906477186
1493478819.3,40.4796169107318,-79.922089459542,8.88000011444092,0.16253662109375,-1.19985961914062,0.0006866455078125,0.102429170266083,-0.225083184798554,0.173290027918693
1493478819.5,40.4796169107318,-79.922089459542,8.88000011444092,-0.258163452148438,-1.06497192382812,0.170501708984375,-0.0678887698760819,-0.156968312545924,0.127655697375749
1493478819.7,40.4796169107318,-79.922089459542,8.88000011444092,0.0166778564453125,-0.874252319335938,-0.0138702392578125,0.00709386219564407,0.305234746230015,-0.040164996612248
1493478819.9,40.4796169107318,-79.922089459542,8.88000011444092,0.182647705078125,-1.1168212890625,0.068206787109375,-0.0241777742723934,0.327757898517142,-0.154628192896072
1493478820.1,40.4796169107318,-79.922089459542,8.88000011444092,0.583969116210938,-1.16653442382812,0.145553588867188,0.0491574263490096,0.55492580581701,-0.0979542606864225
1493478820.3,40.4796665370899,-79.9222337914171,7.71000003814697,0.0996856689453125,-0.965606689453125,0.219009399414062,-0.0232557879030079,0.308642260844771,0.0778652376356278
1493478820.5,40.4796665370899,-79.9222337914171,7.71000003814697,0.417587280273438,-0.96087646484375,0.067413330078125,-0.02154257637376,0.512813239499587,-0.245706970596237
1493478820.7,40.4796665370899,-79.9222337914171,7.71000003814697,0.330551147460938,-1.05696105957031,0.15606689453125,0.0623496611248261,0.52823986642998,-0.142531316276605
1493478820.9,40.4796665370899,-79.9222337914171,7.71000003814697,0.483078002929688,-1.00521850585938,0.0870208740234375,0.0291490970792443,0.597593374905605,-0.168639349707088
1493478821.1,40.4796665370899,-79.9222337914171,7.71000003814697,0.503021240234375,-1.00346374511719,0.0943603515625,-0.0447064852191602,0.722519332164023,-0.228359671887678
1493478821.3,40.4796681396501,-79.9222536673603,6.55999994277954,0.387847900390625,-0.984100341796875,0.115036010742188,-0.000377636242573236,0.593539244778178,-0.114554276393104
1493478821.5,40.4796681396501,-79.9222536673603,6.55999994277954,0.449874877929688,-0.976791381835938,0.123031616210938,-0.0480104028675125,0.671491567781451,-0.170686255320922
1493478821.7,40.4796681396501,-79.9222536673603,6.55999994277954,0.456069946289062,-1.08561706542969,0.0671234130859375,0.0421969885239785,0.640070261660151,-0.0875831124533269
1493478821.9,40.4796681396501,-79.9222536673603,6.55999994277954,0.365097045898438,-0.9857177734375,0.182281494140625,0.0393841577806368,0.598583005566679,-0.215450531135737
1493478822.1,40.4796681396501,-79.9222536673603,6.55999994277954,0.469573974609375,-0.869430541992188,0.131790161132812,-0.0603917050913999,0.671567467872518,-0.19960099422424
1493478822.3,40.4795945798351,-79.9223455933514,6.59999990463257,0.342483520507812,-1.08270263671875,0.021026611328125,-0.0419714187796488,0.576789559418234,-0.119201758811402
1493478822.5,40.4795945798351,-79.9223455933514,6.59999990463257,0.450942993164062,-0.911605834960938,0.112503051757812,0.00487385111095401,0.650926904159968,-0.232998365874378
1493478822.7,40.4795945798351,-79.9223455933514,6.59999990463257,0.420318603515625,-0.91241455078125,0.195709228515625,-0.0193989980123552,0.589406018766375,-0.127532925649497
1493478822.9,40.4795945798351,-79.9223455933514,6.59999990463257,0.407180786132812,-0.973419189453125,0.135879516601562,-0.0487254616201988,0.664057886230713,-0.12269476089715
1493478823.1,40.4795945798351,-79.9223455933514,6.59999990463257,0.378341674804688,-0.932754516601562,0.179855346679688,-0.0743682408082447,0.615290346665291,-0.143089514841085
1493478823.3,40.4795424988104,-79.9223788906291,6.65999984741211,0.298675537109375,-1.15116882324219,0.140304565429688,0.0522043489521693,0.581490571374441,-0.150236107626313
1493478823.5,40.4795424988104,-79.9223788906291,6.65999984741211,0.339553833007812,-1.01605224609375,0.271133422851562,0.0781139768814412,0.616411271168105,-0.23429186321583
1493478823.7,40.4795424988104,-79.9223788906291,6.65999984741211,0.287490844726562,-1.10301208496094,0.31231689453125,0.11487225782726,0.56617899300314,-0.224189960568941
1493478823.9,40.4795424988104,-79.9223788906291,6.65999984741211,0.574783325195312,-0.920333862304688,0.22955322265625,0.106398611870846,0.522642168134742,-0.0962186786040178
1493478824.1,40.4795424988104,-79.9223788906291,6.65999984741211,0.424163818359375,-0.766265869140625,0.206710815429688,-0.139774411916155,0.323222535180737,0.0403833758216345
1493478824.3,40.4794378980152,-79.9222620753119,6.67999982833862,0.252288818359375,-0.976974487304688,0.1865234375,0.00790399579924617,0.492438459263827,-0.0747586602240503
1493478824.5,40.4794378980152,-79.9222620753119,6.67999982833862,0.148773193359375,-0.953857421875,0.33062744140625,0.0273290927902841,0.266805864332389,-0.0611829302512624
1493478824.7,40.4794378980152,-79.9222620753119,6.67999982833862,0.237350463867188,-0.895095825195312,0.400299072265625,0.16224696414257,0.265919564321611,-0.115242437218781
1493478824.9,40.4794378980152,-79.9222620753119,6.67999982833862,0.49530029296875,-0.850112915039062,0.195785522460938,-0.100514091126207,0.397410746299292,-0.0638950935053991
1493478825.1,40.4794378980152,-79.9222620753119,6.67999982833862,0.170974731445312,-1.12411499023438,0.275222778320312,-0.0219313978929115,0.138420727134068,-0.0336343929871557
1493478825.3,40.4794098121382,-79.9221824782619,7.82999992370605,0.109024047851562,-0.947860717773438,0.422531127929688,-0.0632615274820692,0.19187782706301,-0.0192685031189413
1493478825.5,40.4794098121382,-79.9221824782619,7.82999992370605,0.147354125976562,-0.90802001953125,0.705474853515625,-0.188453800849495,0.0980075239082241,-0.104538926481643
1493478825.7,40.4794098121382,-79.9221824782619,7.82999992370605,0.430084228515625,-1.14836120605469,0.589248657226562,0.118523451681758,0.409794445368161,-0.187497726018157
1493478825.9,40.4794098121382,-79.9221824782619,7.82999992370605,0.703094482421875,-1.51393127441406,0.320175170898438,0.131412618725524,0.558630529209419,-0.19201471354304
1493478826.1,40.4794098121382,-79.9221824782619,7.82999992370605,-0.0139312744140625,-0.588958740234375,0.29229736328125,-0.249849517671855,0.0558376996273644,-0.231938161444418
1493478826.3,40.4793749062077,-79.9220835527732,8.97999954223633,-0.520477294921875,-1.15838623046875,1.17527770996094,0.327197569423789,-0.952930703355499,1.01231520092263
1493478826.5,40.4793749062077,-79.9220835527732,8.97999954223633,-0.10675048828125,-0.888275146484375,0.399078369140625,0.0673284407827292,-0.406754713299944,0.148876563889828
1493478826.7,40.4793749062077,-79.9220835527732,8.97999954223633,-0.027984619140625,-0.97662353515625,0.40386962890625,-0.0809377265852522,0.0813638323596649,-0.0330250617297456
1493478826.9,40.4793749062077,-79.9220835527732,8.97999954223633,0.142898559570312,-0.891281127929688,0.37054443359375,-0.047356596819898,0.196017977293647,-0.0894864736844065
1493478827.1,40.4793749062077,-79.9220835527732,8.97999954223633,0.057891845703125,-0.870269775390625,0.4195556640625,-0.0274145802612757,0.0267828784507089,0.0721527570974078
1493478827.3,40.4793392057363,-79.9219823755085,10.1899995803833,-0.0915069580078125,-0.848312377929688,0.4520263671875,-0.0903573273608624,0.240982522822436,-0.0356658522666682
1493478827.5,40.4793392057363,-79.9219823755085,10.1899995803833,-0.149063110351562,-0.951522827148438,0.328155517578125,0.0728363905492311,0.0899328194831038,-0.0591943478653002
1493478827.7,40.4793392057363,-79.9219823755085,10.1899995803833,-0.192245483398438,-0.845565795898438,0.418243408203125,-0.0672578670138421,-0.215452129032391,0.282414118849126
1493478827.9,40.4793392057363,-79.9219823755085,10.1899995803833,-0.282821655273438,-0.869308471679688,0.252517700195312,-0.0464306157088775,-0.0507534587902941,0.0188474573505998
1493478828.1,40.4793392057363,-79.9219823755085,10.1899995803833,-0.247817993164062,-0.9515380859375,0.275634765625,0.256862419770361,0.145107658315147,-0.0915714625018296
1493478828.3,40.4792982933962,-79.921866427497,11.1199998855591,0.0398712158203125,-0.681671142578125,0.283676147460938,-0.0841875820634759,-0.168585287536959,-0.0100228067625132
1493478828.5,40.4792982933962,-79.921866427497,11.1199998855591,-0.58984375,-1.12202453613281,0.249664306640625,-0.0369921064895276,-0.0146684249680474,-0.105896073373148
1493478828.7,40.4792982933962,-79.921866427497,11.1199998855591,-0.039031982421875,-0.947128295898438,0.238250732421875,-0.304383333629516,0.180648608326691,-0.225355093545851
1493478828.9,40.4792982933962,-79.921866427497,11.1199998855591,-0.130508422851562,-0.677597045898438,0.094970703125,-0.0927813365850526,0.352677096837013,-0.108481470159397
1493478829.1,40.4792982933962,-79.921866427497,11.1199998855591,0.51739501953125,-1.23271179199219,0.13287353515625,-0.189857286743967,0.335200901131695,-0.260832660323451
1493478829.3,40.4792572895643,-79.9217502201923,11.210000038147,0.0256195068359375,-0.857421875,0.19842529296875,-0.0396986771053752,0.0183465167495559,0.0315326262548652
1493478829.5,40.4792572895643,-79.9217502201923,11.210000038147,-0.045562744140625,-0.964706420898438,0.243118286132812,-0.0091618067820906,0.0287775861071782,-0.0150950633746781
1493478829.7,40.4792572895643,-79.9217502201923,11.210000038147,0.198944091796875,-1.072021484375,0.24163818359375,-0.0565146751764625,-0.0166524799801565,-0.00373428448050911
1493478829.9,40.4792572895643,-79.9217502201923,11.210000038147,-0.129425048828125,-0.982406616210938,0.171142578125,0.077538467769875,-0.069637401447828,0.0542842777635211
1493478830.1,40.4792572895643,-79.9217502201923,11.210000038147,-0.273727416992188,-0.847885131835938,0.105728149414062,-0.121447868874774,-0.101322893149264,0.0256734055405819
1493478830.3,40.4792161029309,-79.921633494817,10.7700004577637,-0.3175048828125,-1.03947448730469,0.312408447265625,0.240263735644224,-0.031357390255138,-0.064630658598479
1493478830.5,40.4792161029309,-79.921633494817,10.7700004577637,-0.4012451171875,-1.12934875488281,0.326629638671875,0.134980988270121,0.0693116968465113,-0.0979547933186405
1493478830.7,40.4792161029309,-79.921633494817,10.7700004577637,-0.180892944335938,-0.78607177734375,0.196640014648438,0.120266490615215,0.141744352174486,-0.0727032324947272
1493478830.9,40.4792161029309,-79.921633494817,10.7700004577637,-0.353225708007812,-1.02775573730469,0.832717895507812,-0.0837774552556037,-0.227102393537052,-0.0717080091953646
1493478831.1,40.4792161029309,-79.921633494817,10.7700004577637,-0.221267700195312,-1.01426696777344,0.272323608398438,0.0369630780336458,-0.298066848156066,0.0928420566579064
1493478831.3,40.4791738894164,-79.9215138591997,10.2700004577637,-0.820037841796875,-0.792587280273438,0.42340087890625,-0.160311112346192,-0.625423674613042,0.398736734206043
1493478831.5,40.4791738894164,-79.9215138591997,10.2700004577637,0.114273071289062,-1.03727722167969,0.300735473632812,0.0219290010479305,0.0232414068331215,-0.110721721268371
1493478831.7,40.4791738894164,-79.9215138591997,10.2700004577637,-0.2127685546875,-0.968978881835938,0.104995727539062,0.199366369732204,-0.0353539961030199,-0.113018697708565
1493478831.9,40.4791738894164,-79.9215138591997,10.2700004577637,0.1568603515625,-1.01728820800781,0.071533203125,-0.0128095385271721,0.0926228785001929,-0.0248930993411887
1493478832.1,40.4791738894164,-79.9215138591997,10.2700004577637,-0.178298950195312,-0.933807373046875,0.232086181640625,-0.0823702409356058,0.204754743565761,-0.0941323582060498
1493478832.3,40.4791385703682,-79.921413762911,9.85000038146973,0.146347045898438,-0.972503662109375,0.221649169921875,0.0306399346574706,0.144457048060841,-0.0587008641153086
1493478832.5,40.4791385703682,-79.921413762911,9.85000038146973,-0.187835693359375,-1.0892333984375,0.191513061523438,-0.0399237142174869,-0.0018618159180744,0.0369135432373703
1493478832.7,40.4791385703682,-79.921413762911,9.85000038146973,0.0324859619140625,-0.884429931640625,0.2581787109375,0.187034335988483,0.1487604500663,-0.0453823955038223
1493478832.9,40.4791385703682,-79.921413762911,9.85000038146973,-0.2701416015625,-0.9027099609375,0.100494384765625,-0.0899336184314308,0.101640341951201,0.0126777120532132
1493478833.1,40.4791385703682,-79.921413762911,9.85000038146973,-0.1578369140625,-1.02101135253906,0.083831787109375,-0.0247170643931344,-0.146630187510346,0.0139861230967691
1493478833.3,40.4791019108488,-79.9213098676468,9.26000022888184,-0.0123748779296875,-0.732284545898438,0.243072509765625,-0.00854262182864717,0.0351491990151928,-0.0566875143312086
1493478833.5,40.4791019108488,-79.9213098676468,9.26000022888184,-0.67431640625,-0.889556884765625,0.577590942382812,0.00359446852327995,-0.0436318997193132,0.0246723232868211
1493478833.7,40.4791019108488,-79.9213098676468,9.26000022888184,-0.41949462890625,-1.02493286132812,0.473098754882812,-0.00524083470916693,0.20424767769421,-0.127460221351737
1493478833.9,40.4791019108488,-79.9213098676468,9.26000022888184,-0.242843627929688,-1.00048828125,0.198715209960938,0.0483014863746581,-0.176874110113722,0.108638596663711
1493478834.1,40.4791019108488,-79.9213098676468,9.26000022888184,-0.362075805664062,-0.876510620117188,0.205093383789062,0.000556866983935569,-0.207428557300201,0.00160721771786282
1493478834.3,40.4790680735692,-79.9212139707787,8.72999954223633,0.202133178710938,-1.03045654296875,0.363067626953125,0.111707090871701,0.259858742312809,-0.160525230497834
1493478834.5,40.4790680735692,-79.9212139707787,8.72999954223633,0.137481689453125,-0.8883056640625,0.347610473632812,-0.165649685067365,0.118066453238701,-0.125681496059673
1493478834.7,40.4790680735692,-79.9212139707787,8.72999954223633,-0.0817413330078125,-1.10307312011719,0.0840911865234375,0.0585634450030605,0.0325848412015555,-0.0591924836525372
1493478834.9,40.4790680735692,-79.9212139707787,8.72999954223633,-0.064788818359375,-0.974777221679688,0.189804077148438,0.00543551178485172,0.014856710457116,1.7310547085515e-05
1493478835.1,40.4790680735692,-79.9212139707787,8.72999954223633,0.2059326171875,-0.992080688476562,0.212295532226562,0.00220563001480362,0.240368930507282,-0.107219131802699
1493478835.3,40.4790354726921,-79.9211215779488,8.8100004196167,-0.136138916015625,-0.955703735351562,0.2603759765625,0.0192658399578512,-0.0426665038241595,0.047220775604304
1493478835.5,40.4790354726921,-79.9211215779488,8.8100004196167,-0.0361175537109375,-0.925811767578125,0.34979248046875,-0.0303943912049653,0.006587328956311,0.0455190156677433
1493478835.7,40.4790354726921,-79.9211215779488,8.8100004196167,-0.200927734375,-0.94830322265625,0.252151489257812,0.0336003045252027,-0.141675109986144,0.112662100438603
1493478835.9,40.4790354726921,-79.9211215779488,8.8100004196167,-0.11529541015625,-0.844833374023438,0.310348510742188,-0.0246747201318022,0.152275290072987,0.0185462538313118
1493478836.1,40.4790354726921,-79.9211215779488,8.8100004196167,-0.11749267578125,-1.02352905273438,0.258590698242188,-0.133612922418147,-0.0087117325578672,-0.0461264827123904
1493478836.3,40.4789998125027,-79.921024858486,8.84000015258789,-0.178634643554688,-0.956192016601562,0.395736694335938,0.108822887411145,0.121615648023449,-0.0258550331269253
1493478836.5,40.4789998125027,-79.921024858486,8.84000015258789,-0.24774169921875,-0.585647583007812,0.4512939453125,-0.0999713388960485,0.136779420954252,-0.167705911745015
1493478836.7,40.4789998125027,-79.921024858486,8.84000015258789,-0.230300903320312,-1.15821838378906,1.04130554199219,-0.0145800080198568,0.0532815976131063,0.00504429342071909
1493478836.9,40.4789998125027,-79.921024858486,8.84000015258789,0.278274536132812,-0.806106567382812,0.0858154296875,-0.0197915479570329,0.199019093526058,-0.156383482370543
1493478837.1,40.4789998125027,-79.921024858486,8.84000015258789,-0.322280883789062,-1.19906616210938,0.0396881103515625,-0.227696012144031,-0.0453163491087883,0.0383018491136286
1493478837.3,40.4789675462371,-79.9209388571206,9.02000045776367,-0.347381591796875,-0.7464599609375,0.268218994140625,-0.259282167936807,0.045271608002475,-0.171233268608825
1493478837.5,40.4789675462371,-79.9209388571206,9.02000045776367,0.1719970703125,-1.11250305175781,0.141387939453125,-0.0296375208231648,0.0384754872167018,-0.06970664363617
1493478837.7,40.4789675462371,-79.9209388571206,9.02000045776367,-0.334381103515625,-0.953887939453125,0.227218627929688,0.13125256274401,-0.130617132507917,0.0645875153888197
1493478837.9,40.4789675462371,-79.9209388571206,9.02000045776367,0.134811401367188,-0.876663208007812,0.169189453125,0.01472142187374,-0.163895727173438,0.0794735206179266
1493478838.1,40.4789675462371,-79.9209388571206,9.02000045776367,0.006683349609375,-0.909866333007812,0.192520141601562,0.0180570311390643,-0.274530629390273,0.16402409153798
1493478838.3,40.4789304855475,-79.9208400768666,8.5,-0.225082397460938,-0.925521850585938,0.27227783203125,0.0341158925122421,0.0401900303264948,-0.0583961984866035
1493478838.5,40.4789304855475,-79.9208400768666,8.5,-0.411056518554688,-0.839019775390625,0.438217163085938,-0.0598524149706588,-0.441002964918363,0.318257071328284
1493478838.7,40.4789304855475,-79.9208400768666,8.5,-0.052764892578125,-0.810333251953125,0.169143676757812,0.140697996182194,0.105427090705185,-0.184352799086882
1493478838.9,40.4789304855475,-79.9208400768666,8.5,0.218917846679688,-0.93280029296875,0.36810302734375,-0.055756739530226,-0.125150195422203,0.0370696044772489
1493478839.1,40.4789304855475,-79.9208400768666,8.5,0.298446655273438,-0.703201293945312,0.320648193359375,0.188678305329389,0.10299908673936,-0.112418953831079
1493478839.3,40.4788971548559,-79.9207512384179,8.31999969482422,0.156997680664062,-0.858688354492188,0.199493408203125,-0.115639780853421,0.108179734007891,-0.0505089806022248
1493478839.5,40.4788971548559,-79.9207512384179,8.31999969482422,0.166900634765625,-1.18904113769531,0.119430541992188,-0.144511909179297,-0.23410384404287,0.23689030949142
1493478839.7,40.4788971548559,-79.9207512384179,8.31999969482422,-0.13238525390625,-1.20018005371094,0.0148468017578125,-0.0125767782478992,0.169188227207753,-0.155166417752377
1493478839.9,40.4788971548559,-79.9207512384179,8.31999969482422,-0.118057250976562,-1.10618591308594,0.193252563476562,0.239577971663528,0.0314199745407549,0.0194312222615451
1493478840.1,40.4788971548559,-79.9207512384179,8.31999969482422,-0.339736938476562,-0.774703979492188,0.332809448242188,-0.00248313140038988,0.0829851648313051,-0.00663686375258647
1493478840.3,40.4788648098858,-79.9206650272762,7.90999984741211,-0.138870239257812,-1.10740661621094,0.204238891601562,-0.126573388708741,0.0252768608542691,-0.0749299014821424
1493478840.5,40.4788648098858,-79.9206650272762,7.90999984741211,-0.113449096679688,-0.948013305664062,0.205093383789062,-0.0236701757686243,0.146925532075236,-0.134964476671363
1493478840.7,40.4788648098858,-79.9206650272762,7.90999984741211,0.3187255859375,-0.919662475585938,0.256256103515625,-0.230036131793883,0.106801548143775,-0.0186240181351421
1493478840.9,40.4788648098858,-79.9206650272762,7.90999984741211,0.09222412109375,-1.07270812988281,0.168869018554688,-0.163912771404415,0.346741976031663,-0.205153685097055
1493478841.1,40.4788648098858,-79.9206650272762,7.90999984741211,-0.097564697265625,-1.01901245117188,0.0391387939453125,0.0440340370439152,0.0965036368406563,-0.0520426950740015
1493478841.3,40.4788340840968,-79.9205831318428,7.51999998092651,-0.0998077392578125,-1.07589721679688,-0.006195068359375,0.067487431499807,-0.195071489842233,0.1749872604814
1493478841.5,40.4788340840968,-79.9205831318428,7.51999998092651,-0.215744018554688,-0.748992919921875,0.130645751953125,0.0087484841809103,0.182878739423523,-0.149652342715368
1493478841.7,40.4788340840968,-79.9205831318428,7.51999998092651,0.068511962890625,-0.998489379882812,-0.0100555419921875,0.00325305127153179,-0.0787190470811072,0.107924070543243
1493478841.9,40.4788340840968,-79.9205831318428,7.51999998092651,-0.298248291015625,-0.965606689453125,-0.119888305664062,-0.0494194814002734,0.00986354972932648,-0.195648596850453
1493478842.1,40.4788340840968,-79.9205831318428,7.51999998092651,-0.0444793701171875,-0.931610107421875,0.0994873046875,0.0476474140109347,-0.054548729659766,0.0678000866117823
1493478842.3,40.4788078433734,-79.920513190745,5.94000005722046,-0.393463134765625,-1.14720153808594,0.024932861328125,-0.0204655940289319,-0.0253956378388866,0.00305464577032089
1493478842.5,40.4788078433734,-79.920513190745,5.94000005722046,-0.0498809814453125,-0.995529174804688,0.0947113037109375,-0.0226344724206925,0.00971228217940997,-0.0525012914137131
1493478842.7,40.4788078433734,-79.920513190745,5.94000005722046,0.0291900634765625,-0.981536865234375,0.04486083984375,0.0751450848982208,0.0558861691592038,-0.0132356443015848
1493478842.9,40.4788078433734,-79.920513190745,5.94000005722046,0.0408172607421875,-1.06291198730469,0.111068725585938,0.0220949159838424,0.108355768955945,0.00101280016255713
1493478843.1,40.4788078433734,-79.920513190745,5.94000005722046,-0.100540161132812,-0.990264892578125,0.099273681640625,-0.0312021279635864,0.0544611116599024,0.0528506981487315
1493478843.3,40.4787897461835,-79.9204649551338,3.97000002861023,-0.0637664794921875,-0.942138671875,0.118759155273438,0.0258531689141622,0.0221684192299286,-0.00938844179085634
1493478843.5,40.4787897461835,-79.9204649551338,3.97000002861023,0.03192138671875,-0.993698120117188,0.132537841796875,0.00501340075207417,-0.0276880869052268,0.00758628068119972
1493478843.7,40.4787897461835,-79.9204649551338,3.97000002861023,-0.061126708984375,-0.95892333984375,0.173629760742188,-0.0173126776143871,0.0139453767320909,0.0275083235316465
1493478843.9,40.4787897461835,-79.9204649551338,3.97000002861023,-0.0457763671875,-0.96905517578125,0.119705200195312,-0.0291293896871777,0.0618825426696262,-0.0164511450017465
1493478844.1,40.4787897461835,-79.9204649551338,3.97000002861023,-0.101318359375,-0.953857421875,0.140640258789062,-0.0431466717687008,0.0151680339885463,-0.0292686730121888
1493478844.3,40.4787756383111,-79.9204273525086,3.17000007629395,-0.0553436279296875,-0.947372436523438,0.2391357421875,-0.0148138335635658,0.0468905436291342,-0.0589144496347329
1493478844.5,40.4787756383111,-79.9204273525086,3.17000007629395,-0.0663909912109375,-0.925201416015625,0.230789184570312,-0.0351108494954957,-0.00615483159528213,-0.00567466365074084
1493478844.7,40.4787756383111,-79.9204273525086,3.17000007629395,-0.02740478515625,-0.920852661132812,0.319839477539062,-0.00947739137126499,-0.00738627728333477,-0.0118063257445393
1493478844.9,40.4787756383111,-79.9204273525086,3.17000007629395,0.0889892578125,-0.8603515625,0.424880981445312,-0.0160263708078788,0.0798783211036187,-0.0302242152113093
1493478845.1,40.4787756383111,-79.9204273525086,3.17000007629395,-0.08447265625,-0.947891235351562,0.445724487304688,0.00527305895835689,0.0478378300288753,0.0297845273153372
1493478845.3,40.4787638908201,-79.9203960411607,2.92000007629395,-0.0365753173828125,-0.981033325195312,0.373703002929688,0.0246190600650195,0.134917605036177,-0.0907243109590754
1493478845.5,40.4787638908201,-79.9203960411607,2.92000007629395,0.240554809570312,-0.945037841796875,0.395523071289062,-0.00692927884027717,0.127683926883304,-0.046247656541989
1493478845.7,40.4787638908201,-79.9203960411607,2.92000007629395,0.159652709960938,-0.945510864257812,0.328277587890625,0.00629012017865815,0.265875888479734,-0.0805877872180158
1493478845.9,40.4787638908201,-79.9203960411607,2.92000007629395,0.112167358398438,-0.906234741210938,0.319046020507812,-0.0578462557215021,0.347133194395795,-0.0963811314305127
1493478846.1,40.4787638908201,-79.9203960411607,2.92000007629395,0.166366577148438,-0.952560424804688,0.262130737304688,-0.0272401432098755,0.421391712967129,-0.113318835963417
1493478846.3,40.4787492062216,-79.9203569013502,4.19000005722046,0.127609252929688,-0.960464477539062,0.288162231445312,-0.000944889554760114,0.412701552014091,-0.171668961763162
1493478846.5,40.4787492062216,-79.9203569013502,4.19000005722046,0.18084716796875,-0.949996948242188,0.306259155273438,0.0433868888990259,0.418788206685467,-0.217077988877885
1493478846.7,40.4787492062216,-79.9203569013502,4.19000005722046,0.249114990234375,-0.94317626953125,0.26422119140625,0.00255556938204004,0.480759166303284,-0.156881759810497
1493478846.9,40.4787492062216,-79.9203569013502,4.19000005722046,0.139404296875,-0.908233642578125,0.301254272460938,0.0488751312734612,0.466634558829831,-0.125450866309273
1493478847.1,40.4787492062216,-79.9203569013502,4.19000005722046,0.176986694335938,-0.9422607421875,0.358840942382812,0.0210528210492944,0.482761863443024,-0.184419111798025
1493478847.3,40.4787982429283,-79.9202598451805,4.67999982833862,0.281829833984375,-0.91162109375,0.30352783203125,-0.0252773934864871,0.526673395076795,-0.198867559660032
1493478847.5,40.4787982429283,-79.9202598451805,4.67999982833862,0.25640869140625,-0.927276611328125,0.301116943359375,0.0196099203706895,0.510434770330037,-0.141856737572488
1493478847.7,40.4787982429283,-79.9202598451805,4.67999982833862,0.17169189453125,-0.935440063476562,0.341049194335938,-0.00319419541144104,0.478673911169752,-0.127081253528619
1493478847.9,40.4787982429283,-79.9202598451805,4.67999982833862,0.143341064453125,-0.980072021484375,0.302078247070312,0.00278939492574899,0.416938641308407,-0.131125529960013
1493478848.1,40.4787982429283,-79.9202598451805,4.67999982833862,0.171615600585938,-0.955352783203125,0.288253784179688,-0.021611552245993,0.405394370615132,-0.144140131891122
1493478848.3,40.4788257854399,-79.9202413766117,5.23000001907349,0.233489990234375,-0.966064453125,0.264572143554688,0.0283802424725384,0.441239453623162,-0.120264093770234
1493478848.5,40.4788257854399,-79.9202413766117,5.23000001907349,0.07110595703125,-0.933868408203125,0.305389404296875,-0.00389647099089493,0.346786450821867,-0.0702387432219678
1493478848.7,40.4788257854399,-79.9202413766117,5.23000001907349,0.17572021484375,-0.932113647460938,0.267379760742188,0.0128702586000259,0.267958480452176,-0.0933203603896846
1493478848.9,40.4788257854399,-79.9202413766117,5.23000001907349,0.2220458984375,-0.976821899414062,0.178131103515625,-0.030752586371581,0.345887633953965,-0.131285585941527
1493478849.1,40.4788257854399,-79.9202413766117,5.23000001907349,0.187850952148438,-0.95916748046875,0.23828125,0.0103804692969109,0.387113367628392,-0.0797925673165181
1493478849.3,40.478877399642,-79.9202104623496,5.63000011444092,0.1539306640625,-0.931198120117188,0.193252563476562,-0.00239364918776322,0.368047797384515,-0.0905362917861158
1493478849.5,40.478877399642,-79.9202104623496,5.63000011444092,0.238189697265625,-1.06869506835938,0.208938598632812,0.0581927329793214,0.429343645665996,-0.126325448411255
1493478849.7,40.478877399642,-79.9202104623496,5.63000011444092,0.35491943359375,-0.938247680664062,0.213180541992188,0.0150101085359046,0.468980004801864,-0.139664423363135
1493478849.9,40.478877399642,-79.9202104623496,5.63000011444092,0.332275390625,-0.977828979492188,0.188690185546875,0.00242374290808111,0.492463492978073,-0.140920103817107
1493478850.1,40.478877399642,-79.9202104623496,5.63000011444092,0.317947387695312,-0.9698486328125,0.134109497070312,-0.00247167980770254,0.493566574301584,-0.0940596539082906
1493478850.3,40.4789201955635,-79.9201850285498,5.92000007629395,0.247222900390625,-0.953765869140625,0.224990844726562,0.0152071824565705,0.503018399326384,-0.135485390980582
1493478850.5,40.4789201955635,-79.9201850285498,5.92000007629395,0.360549926757812,-0.940338134765625,0.228713989257812,-0.0370986329331308,0.586325007701262,-0.158626396640608
1493478850.7,40.4789201955635,-79.9201850285498,5.92000007629395,0.277435302734375,-0.97552490234375,0.12969970703125,-0.016973923523729,0.523430463817406,-0.184913394496344
1493478850.9,40.4789201955635,-79.9201850285498,5.92000007629395,0.328445434570312,-0.96942138671875,0.211318969726562,-0.00439821054026586,0.541435829631323,-0.160308182868993
1493478851.1,40.4789201955635,-79.9201850285498,5.92000007629395,0.325912475585938,-0.922622680664062,0.18646240234375,0.0372834563127823,0.569885846924421,-0.155689995222686
1493478851.3,40.4790236994546,-79.9203662266728,6.44000005722046,0.413070678710938,-0.946792602539062,0.251007080078125,-0.0595046061322945,0.593917946285187,-0.151411893247583
1493478851.5,40.4790236994546,-79.9203662266728,6.44000005722046,0.187179565429688,-0.925079345703125,0.2021484375,-0.00138777324404029,0.54035458622875,-0.14748000221419
1493478851.7,40.4790236994546,-79.9203662266728,6.44000005722046,0.193679809570312,-0.901092529296875,0.256683349609375,-0.0301760119955788,0.448003083843637,-0.117682425409511
1493478851.9,40.4790236994546,-79.9203662266728,6.44000005722046,0.0098876953125,-0.876632690429688,0.19970703125,-0.0282358991414561,0.272501034323524,0.0331265281672776
1493478852.1,40.4790236994546,-79.9203662266728,6.44000005722046,0.105606079101562,-0.975357055664062,0.253021240234375,-0.11645071340535,0.0762801241548126,-0.0088526137795324
1493478852.3,40.479020581358,-79.9203536010323,6.94000005722046,-0.0231475830078125,-0.930679321289062,0.26947021484375,0.0259828648592491,0.140236736681393,-0.0320823027038576
1493478852.5,40.479020581358,-79.9203536010323,6.94000005722046,-0.0484466552734375,-0.954879760742188,0.268844604492188,0.0393450093126127,0.13483637862293,5.48611184556323e-05
1493478852.7,40.479020581358,-79.9203536010323,6.94000005722046,-0.167922973632812,-0.966339111328125,0.223388671875,0.0891573069736727,-0.0314146482185747,0.0820261605227676
1493478852.9,40.479020581358,-79.9203536010323,6.94000005722046,-0.143524169921875,-0.888259887695312,0.262283325195312,0.0514458806737147,0.0539034457276398,-0.0721149402099287
1493478853.1,40.479020581358,-79.9203536010323,6.94000005722046,-0.0598297119140625,-1.02313232421875,0.248046875,0.0992685306843766,-0.0527628138327589,0.0320727153239333
1493478853.3,40.4790336628993,-79.9204065701529,8.06999969482422,-0.0278778076171875,-0.720977783203125,0.510986328125,-0.129551335439668,-0.0916758584165607,0.155643656219719
1493478853.5,40.4790336628993,-79.9204065701529,8.06999969482422,0.0016326904296875,-0.897750854492188,-0.212249755859375,-0.39849864760459,0.0920172756683088,0.453088389945143
1493478853.7,40.4790336628993,-79.9204065701529,8.06999969482422,-0.162887573242188,-0.861724853515625,0.259490966796875,-0.0221367276129566,0.135208155911105,-0.175434671544534
1493478853.9,40.4790336628993,-79.9204065701529,8.06999969482422,-0.491806030273438,-1.08497619628906,-0.56231689453125,-0.123415944920343,0.286942025334478,-0.00733514459040525
1493478854.1,40.4790336628993,-79.9204065701529,8.06999969482422,-0.227264404296875,-0.7728271484375,0.4580078125,-0.312498518103206,-0.292587660529337,0.185209271693452
1493478854.3,40.479058393079,-79.920496602856,8.68000030517578,0.066986083984375,-0.917022705078125,0.331649780273438,0.0100257362397123,-0.183008701684719,0.100799049362845
1493478854.5,40.479058393079,-79.920496602856,8.68000030517578,0.269638061523438,-1.01670837402344,0.335189819335938,-0.0357513397376597,0.291661945734426,-0.184507528746216
1493478854.7,40.479058393079,-79.920496602856,8.68000030517578,-0.0677642822265625,-0.906082153320312,0.338821411132812,0.10348751048328,-0.0113011240857512,0.0575980491079067
1493478854.9,40.479058393079,-79.920496602856,8.68000030517578,-0.14654541015625,-0.982101440429688,0.241912841796875,0.0257234729690754,-0.0139863894128781,0.057875017861275
1493478855.1,40.479058393079,-79.920496602856,8.68000030517578,-0.038909912109375,-0.895553588867188,0.281021118164062,-0.0510938107776062,0.00990642662287675,0.00371617498509657
1493478855.3,40.4790942760172,-79.9206059314201,9.60000038146973,-0.110214233398438,-0.879043579101562,0.339736938476562,-0.0102483765068429,-0.057371414099141,0.0171025542043799
1493478855.5,40.4790942760172,-79.9206059314201,9.60000038146973,-0.154037475585938,-0.750595092773438,0.3524169921875,0.0458865318981743,0.0401127986548825,-0.0625403434588758
1493478855.7,40.4790942760172,-79.9206059314201,9.60000038146973,-0.135406494140625,-0.9498291015625,0.261566162109375,0.0675915610984291,-0.0504322815628305,0.0136167426535751
1493478855.9,40.4790942760172,-79.9206059314201,9.60000038146973,0.08343505859375,-1.02357482910156,0.173675537109375,0.045440985047804,-0.209825135965163,0.143879408420403
1493478856.1,40.4790942760172,-79.9206059314201,9.60000038146973,-0.234237670898438,-0.913162231445312,0.339706420898438,-0.0359920895002029,-0.229514418536337,0.0919182060757579
1493478856.3,40.4791267727804,-79.9207047963006,10.0500001907349,-0.198135375976562,-1.16206359863281,0.360397338867188,-0.166457688142095,0.209531655613036,-0.24960663738044
1493478856.5,40.4791267727804,-79.9207047963006,10.0500001907349,-0.355224609375,-0.383712768554688,0.500030517578125,-0.477321025335992,0.271163594824086,0.0093402385751259
1493478856.7,40.4791267727804,-79.9207047963006,10.0500001907349,0.267669677734375,-0.926834106445312,0.134811401367188,0.0709884230688251,0.228224649620411,-0.0819606467599516
1493478856.9,40.4791267727804,-79.9207047963006,10.0500001907349,-0.528396606445312,-0.939071655273438,0.476882934570312,-0.17552415375716,-0.150973004299938,-0.0184668916308275
1493478857.1,40.4791267727804,-79.9207047963006,10.0500001907349,-0.194000244140625,-1.27206420898438,0.23431396484375,-0.00205755825819522,-0.0606247316867818,-0.038248319575718
1493478857.3,40.4791668804826,-79.9208268159354,10.6999998092651,-0.039581298828125,-0.967056274414062,0.330276489257812,0.000494549014427715,-0.0361910276336318,-0.133178294528247
1493478857.5,40.4791668804826,-79.9208268159354,10.6999998092651,0.100067138671875,-0.928146362304688,0.360061645507812,0.0480879008552338,0.00286422975238022,-0.0880108161243936
1493478857.7,40.4791668804826,-79.9208268159354,10.6999998092651,-0.283050537109375,-0.937530517578125,0.348724365234375,0.0428031239880805,0.230516566054534,-0.199538676254732
1493478857.9,40.4791668804826,-79.9208268159354,10.6999998092651,-0.171844482421875,-0.520538330078125,0.454757690429688,-0.0246667306485319,-0.219996813432612,0.202895857124886
1493478858.1,40.4791668804826,-79.9208268159354,10.6999998092651,-0.28936767578125,-0.957290649414062,0.22772216796875,-0.0507992651610435,0.259859541261136,-0.114209397031939
1493478858.3,40.4791668804826,-79.9208268159354,10.6999998092651,-0.19512939453125,-0.963668823242188,0.21612548828125,0.177696494258338,-0.338308011175491,0.291636379387961
1493478858.5,40.4792060892505,-79.9209461007431,10.9300003051758,-0.015167236328125,-0.617233276367188,0.257247924804688,0.0206059426183791,-0.318168388063985,0.109785886461318
1493478858.7,40.4792060892505,-79.9209461007431,10.9300003051758,-0.137191772460938,-1.01513671875,0.121841430664062,-0.0906550687707333,0.214380206693635,-0.105970375567561
1493478858.9,40.4792060892505,-79.9209461007431,10.9300003051758,0.153366088867188,-0.98272705078125,0.217803955078125,-0.132215029161965,0.197617471844349,-0.190583530773232
1493478859.1,40.4792060892505,-79.9209461007431,10.9300003051758,0.10162353515625,-1.04656982421875,0.0286865234375,0.123058016069836,-0.0146369996671845,-0.0509468042854338
1493478859.3,40.479247918712,-79.9210654669327,11.0500001907349,-0.098602294921875,-0.823165893554688,0.220413208007812,-0.0416803352725031,0.0438891610806149,0.0346450626208408
1493478859.5,40.479247918712,-79.9210654669327,11.0500001907349,-0.0652313232421875,-0.8355712890625,0.152572631835938,0.0161438162119513,0.156248460103276,-0.0823364187897618
1493478859.7,40.479247918712,-79.9210654669327,11.0500001907349,-0.0716705322265625,-1.11349487304688,0.205169677734375,4.23442613322599e-05,0.12337653013621,-0.090946152277879
1493478859.9,40.479247918712,-79.9210654669327,11.0500001907349,0.363723754882812,-1.0220947265625,0.237213134765625,-0.00466772244258188,0.352094663506613,-0.166219601540642
1493478860.1,40.479247918712,-79.9210654669327,11.0500001907349,-0.400634765625,-0.737564086914062,0.0232696533203125,0.118904550033749,-0.474090877249835,0.233809298426308
1493478860.3,40.4792903755323,-79.9211832891833,11.210000038147,-0.251693725585938,-1.09233093261719,0.25457763671875,-0.0244395630075482,0.311793046730444,-0.221761157654789
1493478860.5,40.4792903755323,-79.9211832891833,11.210000038147,0.310943603515625,-0.9627685546875,0.24609375,0.057641458633675,0.309142935129706,-0.151610032432685
1493478860.7,40.4792903755323,-79.9211832891833,11.210000038147,-0.277114868164062,-0.943923950195312,0.130126953125,0.14503708454626,-0.312593060321904,0.124906249866351
1493478860.9,40.4792903755323,-79.9211832891833,11.210000038147,0.0543670654296875,-1.33279418945312,0.50604248046875,0.248513143436853,0.0707055953610587,-0.0669420161085588
1493478861.1,40.4792903755323,-79.9211832891833,11.210000038147,-0.0509796142578125,-1.05657958984375,0.224578857421875,0.0485084139913573,-0.0875301155476343,0.0646953734129679
1493478861.3,40.4793349085554,-79.9213068731203,11.539999961853,-0.0500946044921875,-0.929473876953125,0.175491333007812,0.0839335164954823,-0.0707428796163199,0.0532863913030685
1493478861.5,40.4793349085554,-79.9213068731203,11.539999961853,-0.155105590820312,-0.80413818359375,0.298568725585938,0.0745219052031423,-0.0504836805718691,-0.0257620888048815
1493478861.7,40.4793349085554,-79.9213068731203,11.539999961853,-0.228622436523438,-0.967910766601562,0.271270751953125,0.0533633566585717,-0.181171653164782,0.047927312241502
1493478861.9,40.4793349085554,-79.9213068731203,11.539999961853,0.1275634765625,-0.8375244140625,0.274932861328125,-0.15443804319424,0.0233450037995256,0.014351775114437
1493478862.1,40.4793349085554,-79.9213068731203,11.539999961853,-0.11248779296875,-1.01484680175781,0.260818481445312,0.0428790240791478,-0.0917576174620261,0.00707308953914145
1493478862.3,40.4793831243744,-79.9214406772127,12.460000038147,-0.008575439453125,-1.06913757324219,0.174560546875,0.00774340718551439,0.0190948650158681,-0.0106321380199233
1493478862.5,40.4793831243744,-79.9214406772127,12.460000038147,-0.100128173828125,-0.815460205078125,0.285812377929688,0.0561663337058801,0.0262206851445932,-0.0432073918415546
1493478862.7,40.4793831243744,-79.9214406772127,12.460000038147,-0.21099853515625,-0.91668701171875,0.229293823242188,0.0329901743194656,-0.0778601776295566,0.0367899725627906
1493478862.9,40.4793831243744,-79.9214406772127,12.460000038147,-0.148971557617188,-0.961151123046875,0.208648681640625,0.0189739575023785,0.0264617012232453,-0.0489198723797745
1493478863.1,40.4793831243744,-79.9214406772127,12.460000038147,-0.131576538085938,-0.919357299804688,0.208877563476562,-0.0496248111203185,-0.0624346159635996,0.0124476149350304
1493478863.3,40.4794340637358,-79.9215820394287,12.7200002670288,-0.102142333984375,-0.985565185546875,0.2008056640625,-0.0744316240421886,0.121732560795304,-0.0970354701103451
1493478863.5,40.4794340637358,-79.9215820394287,12.7200002670288,-0.087982177734375,-1.01861572265625,0.263504028320312,0.0392619186866022,-0.00238139864674885,0.00893783493441493
1493478863.7,40.4794340637358,-79.9215820394287,12.7200002670288,-0.0308990478515625,-0.804733276367188,0.187286376953125,0.0127530795120624,-0.117077088893736,0.0931933276056878
1493478863.9,40.4794340637358,-79.9215820394287,12.7200002670288,-0.175750732421875,-1.03868103027344,0.160415649414062,0.0892406639157922,-0.125019167896571,0.10252664196198
1493478864.1,40.4794340637358,-79.9215820394287,12.7200002670288,-0.155960083007812,-0.849502563476562,0.0444183349609375,0.0458700202994158,-0.0492346580206219,-0.0324559442047957
1493478864.3,40.4794806776914,-79.9217113981773,12.4799995422363,-0.0644378662109375,-0.914260864257812,0.059906005859375,-0.0687393835282532,-0.0399708521687813,0.0207236543385606
1493478864.5,40.4794806776914,-79.9217113981773,12.4799995422363,0.257400512695312,-0.978729248046875,0.11737060546875,0.0527742654254462,0.088997517308268,-0.072191905565432
1493478864.7,40.4794806776914,-79.9217113981773,12.4799995422363,-0.268753051757812,-0.869354248046875,0.38714599609375,-0.0736939284202366,-0.0675771800285427,0.133762858387519
1493478864.9,40.4794806776914,-79.9217113981773,12.4799995422363,-0.0604248046875,-0.87188720703125,0.0639190673828125,0.0218983746953946,0.0913259190493243,-0.0714478183568638
1493478865.1,40.4794806776914,-79.9217113981773,12.4799995422363,0.260879516601562,-0.976776123046875,0.01190185546875,-0.0346216268032481,0.148076550298368,-0.0348554523469571
1493478865.3,40.4795263151939,-79.9218380471636,11.6000003814697,-0.093780517578125,-0.886749267578125,0.180511474609375,-0.156535282552677,-0.132997199574121,0.081905253009278
1493478865.5,40.4795263151939,-79.9218380471636,11.6000003814697,-0.198257446289062,-0.840850830078125,0.079833984375,0.0984149875550062,-0.0708320955128375,0.0843550948960419
1493478865.7,40.4795263151939,-79.9218380471636,11.6000003814697,0.002227783203125,-0.888809204101562,0.0533599853515625,-0.0533439155826142,0.0907597310015734,-0.021038439979408
1493478865.9,40.4795263151939,-79.9218380471636,11.6000003814697,0.317245483398438,-0.900009155273438,0.197433471679688,-0.169317390520622,0.2202093336876,-0.113188074753894
1493478866.1,40.4795263151939,-79.9218380471636,11.6000003814697,0.081024169921875,-0.928558349609375,0.153305053710938,-0.156052185130937,0.121220168601573,0.0300758771385919
1493478866.3,40.4795688795391,-79.9219561678075,10.8000001907349,0.0962982177734375,-1.02987670898438,0.016082763671875,0.0700443324623921,0.170795977557834,-0.0445046176085322
1493478866.5,40.4795688795391,-79.9219561678075,10.8000001907349,0.1756591796875,-0.9278564453125,0.04400634765625,0.0268390711497096,0.197667006640624,-0.0631419515491247
1493478866.7,40.4795688795391,-79.9219561678075,10.8000001907349,0.5408935546875,-0.07830810546875,-0.033721923828125,-0.0197143162854206,0.0426995270216765,0.140428217963769
1493478866.9,40.4795688795391,-79.9219561678075,10.8000001907349,0.332901000976562,-1.87557983398438,-0.339508056640625,0.879088969494763,0.287837380092963,-0.191124418790627
1493478867.1,40.4795688795391,-79.9219561678075,10.8000001907349,0.20916748046875,-1.00323486328125,-0.02197265625,-0.0067015785670754,0.0819358793618139,-0.0877096126051057
1493478867.3,40.4796064992301,-79.9220605665029,9.44999980926514,0.0290985107421875,-0.505859375,0.039581298828125,0.0953925660338753,-0.473936946538828,0.239965461602135
1493478867.5,40.4796064992301,-79.9220605665029,9.44999980926514,0.298080444335938,-1.58418273925781,-0.985015869140625,0.391871637548037,-0.0174050893042129,0.224763339151635
1493478867.7,40.4796064992301,-79.9220605665029,9.44999980926514,0.341888427734375,-1.45372009277344,-0.0594635009765625,0.106517921487681,0.626905990075781,0.0293267299239526
1493478867.9,40.4796064992301,-79.9220605665029,9.44999980926514,0.0374298095703125,-0.779052734375,0.132858276367188,0.145113517269546,0.140514770699197,-0.0991010178518106
1493478868.1,40.4796064992301,-79.9220605665029,9.44999980926514,0.205337524414062,-0.802963256835938,0.0839080810546875,-0.0847263395519989,0.436658816548226,-0.10648330039351
1493478868.3,40.4796663250986,-79.9222315615252,7.84999990463257,0.0955047607421875,-1.16227722167969,-0.015533447265625,0.0847372585124682,0.318547888519321,-0.103377255614151
1493478868.5,40.4796663250986,-79.9222315615252,7.84999990463257,0.34326171875,-0.974349975585938,0.032989501953125,0.085636608012588,0.425964094242686,-0.187876161209057
1493478868.7,40.4796663250986,-79.9222315615252,7.84999990463257,0.290847778320312,-1.011474609375,0.1019287109375,-0.0190698313016214,0.439427438817472,-0.0780966663343556
1493478868.9,40.4796663250986,-79.9222315615252,7.84999990463257,0.316497802734375,-0.977462768554688,0.08319091796875,0.00656815419646242,0.508395055251145,-0.123859361241841
1493478869.1,40.4796663250986,-79.9222315615252,7.84999990463257,0.267166137695312,-0.954086303710938,0.067718505859375,-0.0511356224067205,0.464105088426474,-0.0560981567819741
1493478869.3,40.479668139147,-79.9222536714942,6.67000007629395,0.23345947265625,-1.00273132324219,7.62939453125e-05,0.00233186385047338,0.532890012009367,-0.112237592560844
1493478869.5,40.479668139147,-79.9222536714942,6.67000007629395,0.23114013671875,-1.00607299804688,0.029052734375,-0.019797140595322,0.526648361362549,-0.132706116066975
1493478869.7,40.479668139147,-79.9222536714942,6.67000007629395,0.214935302734375,-1.04989624023438,0.030364990234375,0.0161507404307855,0.484928877622021,-0.13649526166594
1493478869.9,40.479668139147,-79.9222536714942,6.67000007629395,0.122940063476562,-0.991546630859375,0.04669189453125,0.0728419831875203,0.439889497266601,-0.101679756735334
1493478870.1,40.479668139147,-79.9222536714942,6.67000007629395,0.24493408203125,-0.917236328125,0.108856201171875,0.0487419732189572,0.45280742645014,-0.123284118446384
1493478870.3,40.47964812367,-79.9223097193122,5.15000009536743,0.077789306640625,-1.01925659179688,0.0943603515625,-0.00685897138749908,0.412759342609746,-0.0512474751725038
1493478870.5,40.47964812367,-79.9223097193122,5.15000009536743,0.07061767578125,-1.03865051269531,0.071319580078125,-0.0325757864538492,0.425681799167137,-0.110185893257047
1493478870.7,40.47964812367,-79.9223097193122,5.15000009536743,0.0924530029296875,-1.04061889648438,0.0541839599609375,0.0141578969870792,0.371124813707992,-0.130890905467977
1493478870.9,40.47964812367,-79.9223097193122,5.15000009536743,0.0864410400390625,-0.941162109375,0.185470581054688,0.0407303857116719,0.316710573683275,-0.0793001488309625
1493478871.1,40.47964812367,-79.9223097193122,5.15000009536743,0.121749877929688,-0.937515258789062,0.198440551757812,0.00945821661141641,0.357330970841927,-0.106380502375433
1493478871.3,40.479562072833,-79.9223663762504,4.23999977111816,0.154495239257812,-0.949020385742188,0.23541259765625,-0.0126769131048862,0.415969516987728,-0.168598869658518
1493478871.5,40.479562072833,-79.9223663762504,4.23999977111816,0.157745361328125,-0.96929931640625,0.213165283203125,0.0192179030582298,0.3944988459634,-0.098912998678851
1493478871.7,40.479562072833,-79.9223663762504,4.23999977111816,0.243026733398438,-0.968460083007812,0.167770385742188,0.00342189568464281,0.479692037654489,-0.143009353692274
1493478871.9,40.479562072833,-79.9223663762504,4.23999977111816,0.356063842773438,-0.979888916015625,0.183151245117188,-0.0154524595929668,0.609583991397578,-0.171259367587508
1493478872.1,40.479562072833,-79.9223663762504,4.23999977111816,0.268600463867188,-0.956024169921875,0.14154052734375,-0.0503427993502039,0.62365000932705,-0.104481402202098
1493478872.3,40.479534169872,-79.9223842156198,4.51999998092651,0.149887084960938,-0.959243774414062,0.13958740234375,-0.055894158642474,0.61092302879367,-0.0949094686121349
1493478872.5,40.479534169872,-79.9223842156198,4.51999998092651,0.201126098632812,-1.04154968261719,0.133056640625,0.0671659879562344,0.536724963979081,-0.100921554772989
1493478872.7,40.479534169872,-79.9223842156198,4.51999998092651,0.0698394775390625,-0.987289428710938,0.228744506835938,0.0696011824570029,0.435655870081702,-0.100635797588023
1493478872.9,40.479534169872,-79.9223842156198,4.51999998092651,0.250946044921875,-1.01608276367188,0.1690673828125,0.0473768368441826,0.550678063878334,-0.125683093956328
1493478873.1,40.479534169872,-79.9223842156198,4.51999998092651,0.249114990234375,-0.916580200195312,0.220489501953125,0.0897141739576083,0.427040810271405,0.0584582501400023
1493478873.3,40.4794378980152,-79.9222620753119,4.51000022888184,-0.224609375,-0.994094848632812,0.332748413085938,-0.0708589934398473,0.249387192906617,0.099921271467555
1493478873.5,40.4794378980152,-79.9222620753119,4.51000022888184,-0.223846435546875,-1.13711547851562,0.149520874023438,0.34275096282207,0.0519518812808297,-0.425242910219492
1493478873.7,40.4794378980152,-79.9222620753119,4.51000022888184,0.501235961914062,-0.651412963867188,-0.01385498046875,0.166011608659506,0.350980929538742,-0.187925962321441
1493478873.9,40.4794378980152,-79.9222620753119,4.51000022888184,-0.4742431640625,-0.934677124023438,0.2811279296875,-0.0592761069107657,-0.108065218081017,0.302476776605129
1493478874.1,40.4794378980152,-79.9222620753119,4.51000022888184,0.17230224609375,-0.94317626953125,0.4222412109375,-0.271620060634926,0.237846916954977,-0.408556075461274
1493478874.3,40.4794248801515,-79.9222251819102,4.28999996185303,0.195205688476562,-0.813735961914062,0.224349975585938,0.103163936410835,0.0216829249632071,0.0990919631041043
1493478874.5,40.4794248801515,-79.9222251819102,4.28999996185303,-0.130081176757812,-0.895584106445312,0.498031616210938,0.0591820973242859,0.115563348130135,0.0184333358010925
1493478874.7,40.4794248801515,-79.9222251819102,4.28999996185303,-0.0281219482421875,-0.869705200195312,0.487564086914062,-0.0166671273661519,0.0830565375485192,-0.13686038105139
1493478874.9,40.4794248801515,-79.9222251819102,4.28999996185303,0.14703369140625,-0.940536499023438,0.428131103515625,0.0675359010316464,0.213356753886717,-0.0712954855425113
1493478875.1,40.4794248801515,-79.9222251819102,4.28999996185303,-0.087249755859375,-0.909744262695312,0.472396850585938,-0.0610851922392565,0.070613449987342,0.0663638438359025
1493478875.3,40.4794075314216,-79.922176014575,5.0,-0.0870819091796875,-0.897201538085938,0.498046875,-0.0960202731028069,0.0176477032795191,0.0224280774362113
1493478875.5,40.4794075314216,-79.922176014575,5.0,-0.171646118164062,-0.746017456054688,0.26031494140625,-0.078812790351478,-0.0122529378593456,-0.00610636206344268
1493478875.7,40.4794075314216,-79.922176014575,5.0,-0.214614868164062,-1.16879272460938,0.387924194335938,-0.169651084605209,-0.213770076487897,-0.0150460612106207
1493478875.9,40.4794075314216,-79.922176014575,5.0,0.0595703125,-1.14024353027344,0.405654907226562,0.11128844194834,-0.119839852208585,0.128328145550994
1493478876.1,40.4794075314216,-79.922176014575,5.0,0.43841552734375,-0.911087036132812,0.141860961914062,0.0267429310343577,-0.0980336228869068,0.0154537911735118
1493478876.3,40.4793862827928,-79.9221157946939,6.0,0.376022338867188,-1.03298950195312,0.38494873046875,0.0898569193920365,0.0494098940203491,-0.00240616604488659
1493478876.5,40.4793862827928,-79.9221157946939,6.0,-0.0201416015625,-0.833786010742188,0.323516845703125,-0.0704022613128987,0.300441855216199,0.0944631228134376
1493478876.7,40.4793862827928,-79.9221157946939,6.0,-0.02587890625,-0.929428100585938,0.333404541015625,0.0105559716127471,0.0339619618012355,-0.0522240563442358
1493478876.9,40.4793862827928,-79.9221157946939,6.0,0.360076904296875,-0.971206665039062,0.676406860351562,-0.0508791599937458,0.155607437228894,-0.16511944969433
1493478877.1,40.4793862827928,-79.9221157946939,6.0,0.109542846679688,-0.877288818359375,0.302780151367188,0.0275964741637281,0.0370549570912535,0.0268422669430177
1493478877.3,40.4793627506083,-79.9220491030797,6.42999982833862,0.113616943359375,-0.94927978515625,0.289276123046875,0.0205665278342459,0.242386541349126,-0.0473283673123432
1493478877.5,40.4793627506083,-79.9220491030797,6.42999982833862,-0.047943115234375,-0.878890991210938,0.389083862304688,-0.0248092097668512,0.066108979319582,-0.0185502485729469
1493478877.7,40.4793627506083,-79.9220491030797,6.42999982833862,0.0118865966796875,-0.842910766601562,0.446273803710938,-0.00491939116559437,0.0213159413649942,0.0596026104604094
1493478877.9,40.4793627506083,-79.9220491030797,6.42999982833862,-0.1168212890625,-0.8626708984375,0.47662353515625,-0.0960056257168115,0.0410512966230264,0.0340961851201755
1493478878.1,40.4793627506083,-79.9220491030797,6.42999982833862,-0.106094360351562,-0.771194458007812,0.400955200195312,-0.114560135347503,0.029475334312779,0.0605914421731558
1493478878.3,40.4793351730758,-79.921970946708,7.44999980926514,0.117324829101562,-1.16285705566406,0.265380859375,0.0431402801820846,-0.174714819101885,0.0979180416955974
1493478878.5,40.4793351730758,-79.921970946708,7.44999980926514,0.0182342529296875,-0.74810791015625,0.076171875,-0.0803813922335346,0.055859537548303,0.14510419620573
1493478878.7,40.4793351730758,-79.921970946708,7.44999980926514,-0.703201293945312,-0.992202758789062,0.46136474609375,0.0456015736615358,-0.670383959084087,0.346584050579021
1493478878.9,40.4793351730758,-79.921970946708,7.44999980926514,0.0806884765625,-1.10810852050781,0.179977416992188,-0.0437554703938929,-0.0815904673684306,0.194879742243747
1493478879.1,40.4793351730758,-79.921970946708,7.44999980926514,-0.196792602539062,-0.678146362304688,0.369735717773438,-0.173511336605279,-0.0403607389523689,-0.0272614484985961
1493478879.3,40.4793068249869,-79.9218906065338,7.71999979019165,-0.102096557617188,-0.878326416015625,0.3515625,0.017174725869921,-0.101187870881997,-0.142435708793471
1493478879.5,40.4793068249869,-79.9218906065338,7.71999979019165,-0.294021606445312,-1.03012084960938,0.508346557617188,-0.189606949601499,0.0810075014058123,-0.0298718789990918
1493478879.7,40.4793068249869,-79.9218906065338,7.71999979019165,-0.0356903076171875,-1.07046508789062,0.344314575195312,-0.0256015001911497,0.00548611184556323,0.00612100944943812
1493478879.9,40.4793068249869,-79.9218906065338,7.71999979019165,0.091461181640625,-0.916595458984375,0.4205322265625,-0.134884049206442,-0.0459344687977957,-0.0513745079565006
1493478880.1,40.4793068249869,-79.9218906065338,7.71999979019165,-0.374786376953125,-0.834930419921875,0.639236450195312,-0.0238930823518639,-0.294477705954967,0.106070510424548
1493478880.3,40.4792763599159,-79.9218042667059,8.28999996185303,0.28424072265625,-1.09548950195312,0.26361083984375,0.0827502740231601,-0.131371073412519,0.0289078146844831
1493478880.5,40.4792763599159,-79.9218042667059,8.28999996185303,-0.104019165039062,-0.707550048828125,0.6971435546875,-0.000702275579453895,-0.0148681620498034,0.120513365648266
1493478880.7,40.4792763599159,-79.9218042667059,8.28999996185303,0.472244262695312,-1.03175354003906,0.484237670898438,-0.208480505930782,0.23112429941529,0.0303216869072062
1493478880.9,40.4792763599159,-79.9218042667059,8.28999996185303,0.68621826171875,-1.10929870605469,0.404861450195312,-0.00165462198526623,0.599883160810856,-0.405660154091922
1493478881.1,40.4792763599159,-79.9218042667059,8.28999996185303,-0.030242919921875,-0.965713500976562,0.461746215820312,0.0508205704497641,-0.249221810602923,0.118447018958473
1493478881.3,40.4792429108651,-79.9217094701012,9.26000022888184,0.128311157226562,-0.84759521484375,0.267318725585938,-0.145675444259552,0.18921493228904,-0.0680850448484208
1493478881.5,40.4792429108651,-79.9217094701012,9.26000022888184,0.0330657958984375,-0.906112670898438,0.23797607421875,-0.0655939239647606,0.108930479119184,0.0278350933973992
1493478881.7,40.4792429108651,-79.9217094701012,9.26000022888184,-0.282440185546875,-0.776718139648438,0.321823120117188,-0.0441184592504707,-0.142233574866734,0.110801616101074
1493478881.9,40.4792429108651,-79.9217094701012,9.26000022888184,-0.338272094726562,-0.9112548828125,0.350006103515625,0.147187054494281,0.133055256485885,-0.0990605378032414
1493478882.1,40.4792429108651,-79.9217094701012,9.26000022888184,-0.005828857421875,-0.828521728515625,0.36029052734375,-0.0402808441196665,-0.00188019172959594,-0.0921019641909734
1493478882.3,40.4792048816681,-79.921601693089,9.9399995803833,0.239044189453125,-0.720291137695312,0.441177368164062,-0.324561039944611,0.208463195383697,-0.0593040701022115
1493478882.5,40.4792048816681,-79.921601693089,9.9399995803833,0.03643798828125,-0.9552001953125,0.657257080078125,0.0178823277715551,0.0169321118946148,0.180329561628099
1493478882.7,40.4792048816681,-79.921601693089,9.9399995803833,-0.297286987304688,-0.710403442382812,0.250930786132812,-0.149343948661136,-0.35851927332032,0.28834018490677
1493478882.9,40.4792048816681,-79.921601693089,9.9399995803833,-0.259475708007812,-1.08871459960938,0.349258422851562,-0.169579711887995,-0.232907552081207,0.0468444709422758
1493478883.1,40.4792048816681,-79.921601693089,9.9399995803833,-0.343475341796875,-0.945465087890625,0.189483642578125,-0.0408204005565165,-0.151830542170943,0.0980655808199878
1493478883.3,40.4791666389772,-79.9214933110226,10.1300001144409,-0.138519287109375,-0.968780517578125,0.179916381835938,0.0812618332899148,0.264294503424445,-0.267469790392146
1493478883.5,40.4791666389772,-79.9214933110226,10.1300001144409,0.296951293945312,-0.9451904296875,0.096923828125,-0.0406169350492345,-0.343283062407868,0.211580425439634
1493478883.7,40.4791666389772,-79.9214933110226,10.1300001144409,-0.292648315429688,-0.966445922851562,0.284469604492188,0.0348155049306059,-0.100196109692051,0.124295853344505
1493478883.9,40.4791666389772,-79.9214933110226,10.1300001144409,-0.11492919921875,-1.02656555175781,0.144805908203125,-0.074412182966231,0.439762198166495,-0.235397607700431
1493478884.1,40.4791666389772,-79.9214933110226,10.1300001144409,-0.0467071533203125,-0.875991821289062,0.2010498046875,-0.0129418976333491,0.00540515174842482,0.0147805440499398
1493478884.3,40.4791310337828,-79.9213924037786,9.63000011444092,-0.0351715087890625,-1.00770568847656,0.272964477539062,-0.0044299021572378,-0.0201691841996061,0.0789065336218487
1493478884.5,40.4791310337828,-79.9213924037786,9.63000011444092,-0.233932495117188,-0.991989135742188,0.435531616210938,-0.213465410859192,-0.052835251814409,0.161081564849552
1493478884.7,40.4791310337828,-79.9213924037786,9.63000011444092,-0.809921264648438,-0.683456420898438,0.89788818359375,-0.237190447746272,-0.0654431890470622,0.17579819303333
1493478884.9,40.4791310337828,-79.9213924037786,9.63000011444092,-0.588546752929688,-0.92279052734375,0.269912719726562,-0.0530227383551506,-0.492127934680724,0.18091732128068
1493478885.1,40.4791310337828,-79.9213924037786,9.63000011444092,-0.01373291015625,-1.18516540527344,0.336669921875,0.0207521501622244,0.145563857809878,-0.191015495502042
1493478885.3,40.4790949534649,-79.9212901500061,9.51000022888184,0.135086059570312,-0.912948608398438,0.1380615234375,-0.0951315762470475,0.119745043673778,-0.0641896391219619
1493478885.5,40.4790949534649,-79.9212901500061,9.51000022888184,0.173507690429688,-1.06089782714844,0.119705200195312,0.028467860472402,0.461425415737636,-0.270651468946464
1493478885.7,40.4790949534649,-79.9212901500061,9.51000022888184,0.227020263671875,-1.005859375,0.20391845703125,0.0531527006163465,0.309162376205664,-0.212430240143479
1493478885.9,40.4790949534649,-79.9212901500061,9.51000022888184,-0.292617797851562,-0.971817016601562,0.0547637939453125,0.0164756460837752,-0.339406831441257,0.166307752172723
1493478886.1,40.4790949534649,-79.9212901500061,9.51000022888184,0.0111236572265625,-1.03843688964844,0.211151123046875,0.208465592228678,0.0465059831677267,-0.0331707366413729
1493478886.3,40.4790611425949,-79.9211943279842,9.13000011444092,0.24505615234375,-1.0079345703125,0.216110229492188,-0.0830019427461726,0.0920146125072187,-0.0320074678772263
1493478886.5,40.4790611425949,-79.9211943279842,9.13000011444092,-0.121551513671875,-1.02243041992188,0.145233154296875,0.0102137554126719,-0.00964809999713906,-0.0510488033551839
1493478886.7,40.4790611425949,-79.9211943279842,9.13000011444092,-0.023529052734375,-0.891021728515625,0.271377563476562,0.120000440822316,-0.0582225603835303,-0.00715085384297176
1493478886.9,40.4790611425949,-79.9211943279842,9.13000011444092,0.0061187744140625,-0.9088134765625,0.266952514648438,0.0327427666541972,0.160400860874927,-0.0480583397671339
1493478887.1,40.4790611425949,-79.9211943279842,9.13000011444092,-0.08734130859375,-0.920791625976562,0.206954956054688,0.0195473360850726,0.0371018287264389,-0.00735911304021596
1493478887.3,40.4790611425949,-79.9211943279842,9.13000011444092,0.0172119140625,-0.73681640625,0.230575561523438,-0.170756562773701,-0.0286715922957931,0.0111202954477349
1493478887.5,40.4790256933045,-79.9210938625813,8.85999965667725,-0.0388641357421875,-0.969680786132812,0.151229858398438,0.0135866489332572,-0.0724121489875815,0.056835319771708
1493478887.7,40.4790256933045,-79.9210938625813,8.85999965667725,0.17779541015625,-1.01896667480469,0.230926513671875,-0.0326074780708212,-0.0657116356849421,0.167231336438763
1493478887.9,40.4790256933045,-79.9210938625813,8.85999965667725,0.0405731201171875,-0.785369873046875,0.095703125,0.116310098499794,0.00775113035267562,-0.0126899625942276
1493478888.1,40.4790256933045,-79.9210938625813,8.85999965667725,-0.133987426757812,-0.821121215820312,0.1651611328125,-0.15287316973771,-0.129847478952884,-0.0278854271420017
1493478888.3,40.4789922026899,-79.9210045755594,8.47000026702881,-0.394271850585938,-0.9962158203125,0.328048706054688,0.0451102204404162,0.436866543113252,-0.177657079474205
1493478888.5,40.4789922026899,-79.9210045755594,8.47000026702881,0.550460815429688,-1.1395263671875,-0.014617919921875,0.0365420322653043,-0.0140463105374049,0.123024992872319
1493478888.7,40.4789922026899,-79.9210045755594,8.47000026702881,-0.48480224609375,-0.823745727539062,0.46173095703125,-0.131222202707583,-0.173596291444052,0.000170708625874079
1493478888.9,40.4789922026899,-79.9210045755594,8.47000026702881,-0.021759033203125,-1.04684448242188,0.3309326171875,-0.111290039844994,-0.00139736062396458,0.038314099654643
1493478889.1,40.4789922026899,-79.9210045755594,8.47000026702881,0.0818023681640625,-0.857772827148438,0.307296752929688,0.11572313779554,0.113041867210048,-0.145178232084035
1493478889.3,40.4789598656184,-79.9209183854705,8.14999961853027,0.114395141601562,-0.771881103515625,0.114105224609375,0.0592052668257696,0.110231433311688,-0.0636511479495478
1493478889.5,40.4789598656184,-79.9209183854705,8.14999961853027,-0.223709106445312,-1.03350830078125,0.316970825195312,-0.110516125232217,-0.154575462306488,0.0536443201535751
1493478889.7,40.4789598656184,-79.9209183854705,8.14999961853027,-0.144149780273438,-0.982696533203125,0.337005615234375,-0.0148654988887133,-0.0445714629518932,0.0500748853445419
1493478889.9,40.4789598656184,-79.9209183854705,8.14999961853027,-0.0251007080078125,-0.931045532226562,0.221237182617188,0.0265384002626396,-0.034213630524248,-0.012434565445689
1493478890.1,40.4789598656184,-79.9209183854705,8.14999961853027,-0.09515380859375,-1.05195617675781,0.233566284179688,0.0619824112105042,-0.101443001714426,0.0840610819116971
1493478890.3,40.4789290593843,-79.9208362756216,7.53000020980835,-0.0696258544921875,-0.880828857421875,0.205520629882812,0.0123093968744552,-0.00964889894546609,0.028938707353128
1493478890.5,40.4789290593843,-79.9208362756216,7.53000020980835,0.392135620117188,-1.11868286132812,0.254730224609375,-0.168835092047208,0.115971877041354,-0.0500075073689629
1493478890.7,40.4789290593843,-79.9208362756216,7.53000020980835,-0.410812377929688,-1.05032348632812,0.11712646484375,-0.0323185250925476,-0.200820988319605,0.0726899166892768
1493478890.9,40.4789290593843,-79.9208362756216,7.53000020980835,-0.1756591796875,-0.989334106445312,0.258712768554688,0.106820989219732,-0.167692329623455,0.0399101320959275
1493478891.1,40.4789290593843,-79.9208362756216,7.53000020980835,-0.0673828125,-1.05003356933594,-0.0007781982421875,0.112319884238528,-0.0103357281905975,-0.197139168112571
1493478891.3,40.4789029455329,-79.9207666726837,7.01999998092651,0.233245849609375,-0.9949951171875,0.194534301757812,-0.196540223183412,0.272520209083372,-0.0410992335226478
1493478891.5,40.4789029455329,-79.9207666726837,7.01999998092651,0.193939208984375,-0.819198608398438,0.26654052734375,-0.212810273231033,0.185384507693179,-0.144463705963566
1493478891.7,40.4789029455329,-79.9207666726837,7.01999998092651,-0.107742309570312,-1.1783447265625,0.183761596679688,-0.00518224516518519,0.00643978983192061,0.148134074577913
1493478891.9,40.4789029455329,-79.9207666726837,7.01999998092651,-0.249435424804688,-0.728012084960938,0.442626953125,-0.405479325453905,0.549347015965512,-0.26252669709285
1493478892.1,40.4789029455329,-79.9207666726837,7.01999998092651,0.0516815185546875,-1.10328674316406,-0.01708984375,-0.00859215662492265,-0.0701921379028915,-0.265394122638538
1493478892.3,40.4788749975882,-79.9206921812187,6.80000019073486,0.11895751953125,-0.637557983398438,0.190963745117188,-0.0692552378314016,-0.0729272043424028,0.117828899269466
1493478892.5,40.4788749975882,-79.9206921812187,6.80000019073486,-0.10638427734375,-0.96917724609375,0.424957275390625,-0.135291246537115,-0.178878671466224,0.0609168804583635
1493478892.7,40.4788749975882,-79.9206921812187,6.80000019073486,-0.33294677734375,-0.98272705078125,0.247299194335938,0.0827609266675204,-0.114350278253604,0.0373937111819116
1493478892.9,40.4788749975882,-79.9206921812187,6.80000019073486,-0.0416259765625,-0.889068603515625,0.212203979492188,-0.0630117229718198,0.11848270531708,0.000115314875200431
1493478893.1,40.4788749975882,-79.9206921812187,6.80000019073486,0.012664794921875,-1.24549865722656,0.184051513671875,-0.0146423259893647,-0.160518572595109,0.0482439620951124
1493478893.3,40.4788483823781,-79.9206212419772,6.53999996185303,-0.074432373046875,-0.64630126953125,0.260452270507812,-0.170795711241725,0.0330426385929401,0.125045533191363
1493478893.5,40.4788483823781,-79.9206212419772,6.53999996185303,0.255966186523438,-0.911575317382812,0.111679077148438,-0.0396845623515978,-0.0688738731633022,0.0605456358024064
1493478893.7,40.4788483823781,-79.9206212419772,6.53999996185303,0.164443969726562,-1.00096130371094,0.274002075195312,-0.0128745196577701,0.329816788355882,-0.123597572506686
1493478893.9,40.4788483823781,-79.9206212419772,6.53999996185303,-0.30596923828125,-0.823089599609375,0.13201904296875,-0.0820384110637819,-0.220688968999923,0.192714325961404
1493478894.1,40.4788483823781,-79.9206212419772,6.53999996185303,-0.10833740234375,-0.870437622070312,0.28118896484375,-0.108525146001274,-0.095013331894648,0.0961595564278181
1493478894.3,40.4788211385185,-79.9205486271555,6.46000003814697,-0.008087158203125,-0.943023681640625,0.205108642578125,0.0511500034766069,0.0464372736116027,-0.209640312585512
1493478894.5,40.4788211385185,-79.9205486271555,6.46000003814697,-0.0815582275390625,-0.953933715820312,0.177764892578125,-0.0392264986441041,0.00771224820076047,0.0688823952787905
1493478894.7,40.4788211385185,-79.9205486271555,6.46000003814697,-0.079010009765625,-0.846847534179688,0.253616333007812,-0.0598454907518246,0.00357076638957824,-0.06032991975411
1493478894.9,40.4788211385185,-79.9205486271555,6.46000003814697,-0.231658935546875,-0.963134765625,0.166259765625,0.042649725909292,0.124175478463234,-0.0137445743858989
1493478895.1,40.4788211385185,-79.9205486271555,6.46000003814697,-0.242645263671875,-0.891769409179688,0.100799560546875,-0.00716869702227529,-0.0414329276072348,0.0341523778191761
1493478895.3,40.4787949369468,-79.9204787904111,5.94999980926514,-0.07684326171875,-0.999221801757812,0.152694702148438,-0.00703287580668125,-0.0350525262676229,0.0277400185464834
1493478895.5,40.4787949369468,-79.9204787904111,5.94999980926514,-0.110626220703125,-0.965957641601562,0.231307983398438,-0.00177979055649995,-0.0542344766511367,0.0225122333266578
1493478895.7,40.4787949369468,-79.9204787904111,5.94999980926514,0.0755462646484375,-0.936920166015625,0.210464477539062,0.0721146738938197,0.0484572812984278,-0.029240709820743
1493478895.9,40.4787949369468,-79.9204787904111,5.94999980926514,0.0992889404296875,-1.00489807128906,0.117233276367188,-0.0490748683552171,-0.0262750136308308,-0.007898136844848
1493478896.1,40.4787949369468,-79.9204787904111,5.94999980926514,0.0449676513671875,-0.91143798828125,0.306930541992188,-0.0525111451097464,0.208815265279805,-0.0949033433416277
1493478896.3,40.4787753962614,-79.920426707358,5.0,0.257583618164062,-0.864654541015625,0.211380004882812,-0.0172013574808218,0.291548495071989,-0.139536325314702
1493478896.5,40.4787753962614,-79.920426707358,5.0,0.195205688476562,-0.977935791015625,0.22418212890625,0.0385931989368833,0.201857756931973,0.0137349870059747
1493478896.7,40.4787753962614,-79.920426707358,5.0,0.0295562744140625,-0.935714721679688,0.231582641601562,-0.00833622684416603,0.212802017431654,0.0249546183623695
1493478896.9,40.4787753962614,-79.920426707358,5.0,0.12359619140625,-1.01676940917969,0.216842651367188,-0.0130268524721226,0.316002439149423,-0.0425312152407835
1493478897.1,40.4787753962614,-79.920426707358,5.0,0.015625,-0.962661743164062,0.313095092773438,0.0541551144506523,0.294288088885353,-0.0609791984278713
1493478897.3,40.4787549681424,-79.9203722589706,4.96000003814697,0.135147094726562,-1.00762939453125,0.281341552734375,0.0529729372427661,0.36129242296342,-0.170984263046902
1493478897.5,40.4787549681424,-79.9203722589706,4.96000003814697,0.217529296875,-0.984634399414062,0.300048828125,0.093368829921524,0.317414180843274,-0.189649293862832
1493478897.7,40.4787549681424,-79.9203722589706,4.96000003814697,0.282867431640625,-0.948638916015625,0.235580444335938,-0.0329835164167404,0.508641663968087,-0.190370211569916
1493478897.9,40.4787549681424,-79.9203722589706,4.96000003814697,0.085418701171875,-0.921340942382812,0.295257568359375,-0.0192173704260118,0.568114045851191,-0.229832666286601
1493478898.1,40.4787549681424,-79.9203722589706,4.96000003814697,0.265090942382812,-0.904830932617188,0.247772216796875,-0.0409213343618305,0.459763603217427,-0.181795631808188
1493478898.3,40.4787405005215,-79.9203336974844,5.15000009536743,0.359939575195312,-0.955841064453125,0.238632202148438,-0.0132910380522585,0.543613230138571,-0.209450695515898
1493478898.5,40.4787405005215,-79.9203336974844,5.15000009536743,0.225265502929688,-0.912933349609375,0.21563720703125,0.0173925724470895,0.475344427174935,-0.154583451789758
1493478898.7,40.4787405005215,-79.9203336974844,5.15000009536743,0.236434936523438,-0.942626953125,0.287689208984375,-0.035560391087501,0.507599835349648,-0.158407484799003
1493478898.9,40.4787405005215,-79.9203336974844,5.15000009536743,0.165756225585938,-0.945343017578125,0.283859252929688,0.0495204152055874,0.440039965868191,-0.109382417556171
1493478899.1,40.4787405005215,-79.9203336974844,5.15000009536743,0.143020629882812,-0.951324462890625,0.282608032226562,-0.0149440621408706,0.39046682007302,-0.0949874992320742
1493478899.3,40.4788314888297,-79.9202377473424,5.34999990463257,0.128280639648438,-0.949874877929688,0.309829711914062,0.023458188145854,0.352982827730154,-0.120086727241635
1493478899.5,40.4788314888297,-79.9202377473424,5.34999990463257,0.243331909179688,-0.951034545898438,0.293075561523438,-0.0203569370564567,0.364971580009364,-0.10244062185877
1493478899.7,40.4788314888297,-79.9202377473424,5.34999990463257,0.178817749023438,-0.971481323242188,0.2471923828125,-0.010687798086706,0.362780064748338,-0.109799468582877
1493478899.9,40.4788314888297,-79.9202377473424,5.34999990463257,0.261199951171875,-0.955230712890625,0.2415771484375,-0.0154362143103173,0.404292887188275,-0.129147067586194
1493478900.1,40.4788314888297,-79.9202377473424,5.34999990463257,0.247268676757812,-0.943634033203125,0.233673095703125,0.0206834406061004,0.40299512878908,-0.123442842847353
1493478900.3,40.4788824862912,-79.9202074393322,5.82000017166138,0.2958984375,-1.01316833496094,0.221435546875,-0.00356437480296205,0.448893911228268,-0.11634605117451
1493478900.5,40.4788824862912,-79.9202074393322,5.82000017166138,0.218185424804688,-0.937255859375,0.212478637695312,0.0641683338332412,0.448458218073931,-0.0857974629424288
1493478900.7,40.4788824862912,-79.9202074393322,5.82000017166138,0.261917114257812,-0.926681518554688,0.223388671875,-0.0211574832801345,0.463895763964793,-0.145352669135435
1493478900.9,40.4788824862912,-79.9202074393322,5.82000017166138,0.295501708984375,-1.01052856445312,0.1942138671875,0.0365604080768258,0.549686569004497,-0.114062923171985
1493478901.1,40.4788824862912,-79.9202074393322,5.82000017166138,0.292678833007812,-0.939178466796875,0.176422119140625,0.0854808130888183,0.528092859937808,-0.120969831459105
1493478901.3,40.478922241168,-79.9201838128383,6.19000005722046,0.2802734375,-0.881484985351562,0.216812133789062,0.0105999137707334,0.571123950515199,-0.150635315473716
1493478901.5,40.478922241168,-79.9201838128383,6.19000005722046,0.460723876953125,-1.06022644042969,0.148086547851562,-0.000918524259968329,0.662671977199436,-0.192571846843085
1493478901.7,40.478922241168,-79.9201838128383,6.19000005722046,0.2149658203125,-0.951034545898438,0.221832275390625,0.0312953386017391,0.538018195004424,-0.124748857045928
1493478901.9,40.478922241168,-79.9201838128383,6.19000005722046,0.206390380859375,-0.981246948242188,0.231002807617188,-0.0367862441372645,0.519311618875489,-0.140324620997365
1493478902.1,40.478922241168,-79.9201838128383,6.19000005722046,0.0976104736328125,-0.984161376953125,0.186279296875,0.0339403901964058,0.405043365983459,-0.0795976239247243
1493478902.3,40.4790212327765,-79.9203562387236,6.30999994277954,0.15618896484375,-0.902847290039062,0.263519287109375,0.0296255365982595,0.362519607593728,-0.0987239142414554
1493478902.5,40.4790212327765,-79.9203562387236,6.30999994277954,0.116287231445312,-0.82696533203125,0.322036743164062,-0.0629214418108661,0.306750883838597,-0.0590113886984118
1493478902.7,40.4790212327765,-79.9203562387236,6.30999994277954,0.116104125976562,-0.951019287109375,0.271896362304688,-0.0415615582878856,0.293845471512182,-0.0704877487838902
1493478902.9,40.4790212327765,-79.9203562387236,6.30999994277954,0.0599822998046875,-0.957778930664062,0.29534912109375,0.0437216482480489,0.22202667481547,-0.0385090430464368
1493478903.1,40.4790212327765,-79.9203562387236,6.30999994277954,-0.02740478515625,-0.909622192382812,0.323867797851562,0.0392411460300996,0.0859029241215959,-0.0190117743898577
1493478903.3,40.4790217479273,-79.9203583246464,6.51999998092651,0.0049285888671875,-0.9388427734375,0.314056396484375,-0.0328303846540608,0.122537368076726,-0.0241090647162693
1493478903.5,40.4790217479273,-79.9203583246464,6.51999998092651,-0.196624755859375,-0.857330322265625,0.338546752929688,-0.059521650363271,-0.0847066321599323,0.0230659045172853
1493478903.7,40.4790217479273,-79.9203583246464,6.51999998092651,-0.0217437744140625,-0.95574951171875,0.296798706054688,0.0894739568272832,0.0270643745779303,-0.06419283491527
1493478903.9,40.4790217479273,-79.9203583246464,6.51999998092651,0.049835205078125,-0.956787109375,0.253494262695312,0.020837371317107,-0.138413270283015,0.0357556007954039
1493478904.1,40.4790217479273,-79.9203583246464,6.51999998092651,-0.0757904052734375,-1.02606201171875,0.474227905273438,0.0991391010553987,-0.0049137985273052,-0.0874680638942355
1493478904.3,40.4790463111931,-79.9204575039724,7.8600001335144,0.336624145507812,-0.75408935546875,0.263427734375,-0.0197465405346105,0.128843999854143,0.034650388943021
1493478904.5,40.4790463111931,-79.9204575039724,7.8600001335144,0.328079223632812,-0.9259033203125,0.0906829833984375,0.0273629149361281,0.173177376204583,-0.192085287311927
1493478904.7,40.4790463111931,-79.9204575039724,7.8600001335144,0.256881713867188,-0.841506958007812,-0.293914794921875,0.110340356600272,0.306703745887302,0.0419205524028283
1493478904.9,40.4790463111931,-79.9204575039724,7.8600001335144,-0.046356201171875,-1.09120178222656,0.333969116210938,-0.167071813089467,0.092560826846794,-0.0360682559073792
1493478905.1,40.4790463111931,-79.9204575039724,7.8600001335144,-0.0727081298828125,-0.953872680664062,0.312271118164062,-0.00984836971111302,0.0245223873174496,-0.0449451044528313
1493478905.3,40.4790672740946,-79.9205237834894,8.35000038146973,0.129196166992188,-0.943283081054688,0.23516845703125,0.00369220653528586,0.0116721024255993,-0.029846312652627
1493478905.5,40.4790672740946,-79.9205237834894,8.35000038146973,0.0150604248046875,-0.97869873046875,0.348434448242188,-0.012266786297014,0.0777320795811238,0.00500487863658591
1493478905.7,40.4790672740946,-79.9205237834894,8.35000038146973,-0.122894287109375,-0.940231323242188,0.24169921875,-0.0684570884527048,0.0132146053289732,0.0291190033589264
1493478905.9,40.4790672740946,-79.9205237834894,8.35000038146973,-0.11053466796875,-0.993377685546875,0.240615844726562,0.0312748322613455,-0.036365198368923,0.0292018276688279
1493478906.1,40.4790672740946,-79.9205237834894,8.35000038146973,-0.090240478515625,-0.944992065429688,0.287612915039062,-0.0395828295979567,-0.0305909324934132,-0.00352496001882888
1493478906.3,40.479098631117,-79.9206191809372,8.89000034332275,-0.0671234130859375,-0.955657958984375,0.328872680664062,-0.0219977106040545,-0.034954521939508,0.0318514066373477
1493478906.5,40.479098631117,-79.9206191809372,8.89000034332275,-0.0338287353515625,-0.952056884765625,0.36480712890625,0.0604612135958509,0.0251285227815517,-0.0463592429916633
1493478906.7,40.479098631117,-79.9206191809372,8.89000034332275,-0.0966949462890625,-0.973876953125,0.247100830078125,0.117902402515552,-0.0241548710870187,0.0865665838652437
1493478906.9,40.479098631117,-79.9206191809372,8.89000034332275,-0.449722290039062,-1.04257202148438,0.177017211914062,0.0244289103631878,-0.0139877209934232,-0.00291243296811065
1493478907.1,40.479098631117,-79.9206191809372,8.89000034332275,0.123077392578125,-1.14106750488281,0.174163818359375,-0.0180439816497229,0.11818736075219,-0.0175491663191861
1493478907.3,40.4791317914436,-79.9207200645759,9.59000015258789,-0.202377319335938,-0.587890625,0.178634643554688,-0.302133761456727,0.0476809698406697,-0.151420149046962
1493478907.5,40.4791317914436,-79.9207200645759,9.59000015258789,0.26470947265625,-1.14801025390625,0.07281494140625,-0.00943318289716967,-0.0041707765831731,0.141720650040785
1493478907.7,40.4791317914436,-79.9207200645759,9.59000015258789,-0.19256591796875,-0.61260986328125,0.42681884765625,0.0206195247399385,-0.445801182254359,0.194346311077404
1493478907.9,40.4791317914436,-79.9207200645759,9.59000015258789,0.349349975585938,-1.30123901367188,-0.037750244140625,0.241964696632457,0.361083631133957,-0.439867126713445
1493478908.1,40.4791317914436,-79.9207200645759,9.59000015258789,-0.628143310546875,-1.05152893066406,0.166336059570312,0.13387258062443,-0.511434787319362,0.131702370652125
1493478908.3,40.479167587708,-79.9208289675267,9.64999961853027,-0.23602294921875,-0.892562866210938,0.264205932617188,-0.147277335655235,-0.00649731411146632,-0.0580004527486177
1493478908.5,40.479167587708,-79.9208289675267,9.64999961853027,-0.113937377929688,-0.990264892578125,0.355712890625,0.21903354806633,0.111318269352549,-0.0694810738918403
1493478908.7,40.479167587708,-79.9208289675267,9.64999961853027,-0.0765228271484375,-1.04556274414062,0.224624633789062,0.0599711919552764,0.0262012440686356,-0.010115751084557
1493478908.9,40.479167587708,-79.9208289675267,9.64999961853027,-0.030487060546875,-1.14888000488281,0.222198486328125,0.0740971310092746,0.194138584512378,-0.249236457988919
1493478909.1,40.479167587708,-79.9208289675267,9.64999961853027,-0.022613525390625,-0.90863037109375,0.292922973632812,-0.148023287076566,0.0392352870757014,-0.133827306885899
1493478909.3,40.4792015240684,-79.9209322120927,9.85999965667725,-0.124374389648438,-0.881546020507812,0.187225341796875,-0.172533157536892,-0.317958797286195,0.21549553855816
1493478909.5,40.4792015240684,-79.9209322120927,9.85999965667725,0.127456665039062,-0.909011840820312,0.316253662109375,-0.0663364132766747,0.306738366981473,-0.275487769486048
1493478909.7,40.4792015240684,-79.9209322120927,9.85999965667725,0.29852294921875,-0.719894409179688,0.237960815429688,0.0170527530919954,-0.511705098170005,0.340551191761665
1493478909.9,40.4792015240684,-79.9209322120927,9.85999965667725,-0.196075439453125,-0.863632202148438,0.227996826171875,-0.012974654514757,0.086243009792799,-0.0163486132997784
1493478910.1,40.4792015240684,-79.9209322120927,9.85999965667725,-0.14593505859375,-0.8345947265625,0.248275756835938,0.0391828228022268,0.228417462483333,-0.169716332051916
1493478910.3,40.4792395338157,-79.9210421979422,10.0799999237061,0.173355102539062,-1.03985595703125,0.203903198242188,-0.0237386190086393,0.138428716617338,-0.0571096253639862
1493478910.5,40.4792395338157,-79.9210421979422,10.0799999237061,0.0540924072265625,-0.747055053710938,0.119552612304688,0.0508402778418307,-0.0566971017111329,0.0667721064310117
1493478910.7,40.4792395338157,-79.9210421979422,10.0799999237061,-0.25811767578125,-0.845870971679688,0.16229248046875,-0.0151134391861997,0.0713636624664173,-0.023795610655967
1493478910.9,40.4792395338157,-79.9210421979422,10.0799999237061,-0.08966064453125,-0.806732177734375,0.16729736328125,-0.019794477434232,0.0288465619794113,-0.0162703163637301
