timestamp,latitude,longitude,speed,accelerometerX,accelerometerY,accelerometerZ,gyroX,gyroY,gyroZ
1493477801.3,40.4542528884862,-79.9126797728985,6.48000001907349,0.006805419921875,-0.927703857421875,0.233993530273438,-0.011493670632564,0.0564542214197177,0.0146636312780853
1493477801.5,40.4542528884862,-79.9126797728985,6.48000001907349,0.0203704833984375,-0.978134155273438,0.164230346679688,0.0264217538068941,0.0881144130907977,-0.0148838747002348
1493477801.7,40.4542528884862,-79.9126797728985,6.48000001907349,0.0195159912109375,-0.983169555664062,0.242568969726562,-0.0323049429709882,0.0682858471946127,-0.0143677540809775
1493477801.9,40.4542528884862,-79.9126797728985,6.48000001907349,0.0208892822265625,-0.95654296875,0.23321533203125,0.00374147501545232,0.0435855607163458,-0.0160673834886661
1493477802.1,40.4542954685543,-79.91274456501,6.82999992370605,-0.0395355224609375,-0.9229736328125,0.2154541015625,-0.00919243313462651,0.0383524491743401,-0.00765658813397781
1493477802.3,40.4542954685543,-79.91274456501,6.82999992370605,-0.0197906494140625,-0.960708618164062,0.240982055664062,-0.0180551669263012,0.0256483718263351,0.0104110956494468
1493477802.5,40.4542954685543,-79.91274456501,6.82999992370605,-0.0284576416015625,-0.9234619140625,0.284011840820312,-0.0107751497704606,-0.0286513522715085,-0.00643366456141342
1493477802.7,40.4542954685543,-79.91274456501,6.82999992370605,-0.01513671875,-0.959976196289062,0.319961547851562,0.0130644030434927,0.00310311530216033,-0.0190661028760953
1493477802.9,40.4542954685543,-79.91274456501,6.82999992370605,0.029541015625,-0.965667724609375,0.276885986328125,-0.00879429055165966,0.0308985275993173,-0.0406859109214675
1493477803.1,40.4543380905319,-79.9128103629499,7.78999996185303,-0.095947265625,-0.93304443359375,0.324874877929688,-0.00578838062928722,-0.0403817779249805,0.0117733025470223
1493477803.3,40.4543380905319,-79.9128103629499,7.78999996185303,0.0199737548828125,-0.981536865234375,0.240753173828125,-0.00222800056796029,-0.0053034189947838,0.00425573142194662
1493477803.5,40.4543380905319,-79.9128103629499,7.78999996185303,0.0393218994140625,-0.983657836914062,0.255386352539062,0.00312495322309898,-0.017040502550981,-0.00418888607858563
1493477803.7,40.4543380905319,-79.9128103629499,7.78999996185303,-0.016326904296875,-0.934646606445312,0.2825927734375,0.00234784281701386,0.0329603469152567,0.00207140669586363
1493477803.9,40.4543380905319,-79.9128103629499,7.78999996185303,-0.0496826171875,-0.95440673828125,0.268814086914062,-0.0021542310057651,0.0702134431916121,-0.0375207439659084
1493477804.1,40.4543380905319,-79.9128103629499,7.78999996185303,0.0142822265625,-0.94244384765625,0.225082397460938,0.0550563281635351,0.0358027387466983,-0.0347137721769649
1493477804.3,40.4543888429557,-79.9128887337445,8.90999984741211,0.066680908203125,-0.927627563476562,0.338790893554688,-0.0501902002197423,0.00990243188124163,0.0154537911735118
1493477804.5,40.4543888429557,-79.9128887337445,8.90999984741211,-0.040130615234375,-0.940536499023438,0.294113159179688,-0.00641289190491081,-0.0435618585826441,0.055489890789
1493477804.7,40.4543888429557,-79.9128887337445,8.90999984741211,0.003662109375,-0.899749755859375,0.337432861328125,0.0340101650169659,0.0189281511316292,0.015226357216419
1493477804.9,40.4543888429557,-79.9128887337445,8.90999984741211,-0.0010528564453125,-0.92559814453125,0.221908569335938,-0.0274699740119493,0.0480476871227736,0.0102568986223312
1493477805.1,40.4544446245213,-79.9129778333753,9.94999980926514,0.0040283203125,-0.881759643554688,0.257064819335938,-0.0406116087270543,-0.00824461410266731,0.0060027650970386
1493477805.3,40.4544446245213,-79.9129778333753,9.94999980926514,-0.140304565429688,-0.999588012695312,0.216705322265625,0.0556206519985229,-0.105657187823368,0.0797419672558066
1493477805.5,40.4544446245213,-79.9129778333753,9.94999980926514,-0.0899200439453125,-0.893936157226562,0.152374267578125,-0.0990200577546722,-0.0344618371378434,-0.0201167199261315
1493477805.7,40.4544446245213,-79.9129778333753,9.94999980926514,-0.132247924804688,-0.964706420898438,0.246231079101562,0.00466399401705577,-0.098944690295823,0.0717394344962275
1493477805.9,40.4544446245213,-79.9129778333753,9.94999980926514,-0.086456298828125,-0.912384033203125,0.2598876953125,-0.0600545488973958,0.00889362646031962,-0.0422201580254622
1493477806.1,40.454508704171,-79.9130732194333,10.8100004196167,-0.106918334960938,-0.989288330078125,0.177215576171875,0.0140553652851112,-0.0841226009328779,0.0163542059380676
1493477806.3,40.454508704171,-79.9130732194333,10.8100004196167,-0.0281982421875,-0.921218872070312,0.247207641601562,-0.0353731708628685,-0.0508301578296884,-0.0108931278067511
1493477806.5,40.454508704171,-79.9130732194333,10.8100004196167,-0.0735015869140625,-0.942596435546875,0.244293212890625,-0.0344908655937252,-0.0497699533997278,0.00297395198929149
1493477806.7,40.454508704171,-79.9130732194333,10.8100004196167,-0.0079193115234375,-0.907669067382812,0.180755615234375,-0.0167339727095129,-0.0605195368237237,0.0223753468466277
1493477806.9,40.454508704171,-79.9130732194333,10.8100004196167,-0.007110595703125,-0.999526977539062,0.220977783203125,-0.00400725849224223,-0.00742356153859588,-0.0224123647857798
1493477807.1,40.4545838479329,-79.9131789990514,11.6099996566772,-0.0462188720703125,-0.943191528320312,0.175857543945312,-0.0117519972583017,0.0064597635400962,0.00626029277444926
1493477807.3,40.4545838479329,-79.9131789990514,11.6099996566772,-0.007843017578125,-0.915206909179688,0.205886840820312,0.0479922933720999,-0.0768950480505119,0.0305437945421188
1493477807.5,40.4545838479329,-79.9131789990514,11.6099996566772,-0.0729522705078125,-0.905181884765625,0.235321044921875,-0.00209537514567434,-0.0552925505522251,0.044902227559281
1493477807.7,40.4545838479329,-79.9131789990514,11.6099996566772,0.0809326171875,-0.912857055664062,0.199798583984375,-0.0160495403093625,0.00329672711340909,0.00729066980020092
1493477807.9,40.4545838479329,-79.9131789990514,11.6099996566772,-0.029693603515625,-0.92352294921875,0.268478393554688,-0.0144034404395846,-0.0435160522118948,0.0170242572683315
1493477808.1,40.4546558903907,-79.9132778216898,12.3299999237061,0.07391357421875,-0.96942138671875,0.171249389648438,0.0149035820923014,0.00734979197640068,0.00439847685637487
1493477808.3,40.4546558903907,-79.9132778216898,12.3299999237061,0.06085205078125,-0.970169067382812,0.217758178710938,-0.0134721330063838,0.114962538988214,-0.0420169588342892
1493477808.5,40.4546558903907,-79.9132778216898,12.3299999237061,-0.0395660400390625,-0.906448364257812,0.13677978515625,-0.00559796461134656,-0.0169813803747813,0.0106486496186818
1493477808.7,40.4546558903907,-79.9132778216898,12.3299999237061,0.032073974609375,-0.971420288085938,0.15948486328125,0.0199428155069494,0.0722004276809202,-0.017041567815417
1493477808.9,40.4546558903907,-79.9132778216898,12.3299999237061,-0.0166778564453125,-0.914199829101562,0.191390991210938,-0.0131150031042042,-0.00203838349834665,0.0233276932524401
1493477809.1,40.4547352670137,-79.9133910612016,13.039999961853,-0.0455780029296875,-0.9547119140625,0.219345092773438,-0.00780679041945828,0.0362120666062434,-0.0321598006915789
1493477809.3,40.4547352670137,-79.9133910612016,13.039999961853,-0.0180206298828125,-0.939697265625,0.20574951171875,-0.0469808247900878,0.0853995866755709,-0.0220256737955003
1493477809.5,40.4547352670137,-79.9133910612016,13.039999961853,0.0138702392578125,-0.929168701171875,0.180221557617188,-0.0122561336526537,0.0596470852506137,-0.00561048146846993
1493477809.7,40.4547352670137,-79.9133910612016,13.039999961853,-0.0196533203125,-0.979446411132812,0.236923217773438,-0.0675974200528273,-0.0335963097835676,0.018586467563772
1493477809.9,40.4547352670137,-79.9133910612016,13.039999961853,-0.0671539306640625,-0.935653686523438,0.167037963867188,-0.014788267217101,-0.0732957858372698,0.0288255230067997
1493477810.1,40.4547352670137,-79.9133910612016,13.039999961853,-0.0010528564453125,-0.951141357421875,0.200836181640625,-0.0150367401468054,-0.00947499452628391,0.00413535654067504
1493477810.3,40.4548155237366,-79.9135130178928,13.6800003051758,0.0077056884765625,-0.979385375976562,0.169204711914062,-0.0232203678605099,0.00972293482377029,-0.00985875603936433
1493477810.5,40.4548155237366,-79.9135130178928,13.6800003051758,-0.035888671875,-0.899993896484375,0.181320190429688,-0.0387971970763833,0.0427977976659004,-0.0207657322837839
1493477810.7,40.4548155237366,-79.9135130178928,13.6800003051758,0.074249267578125,-0.963546752929688,0.173843383789062,0.0201119262361694,0.0498573050834824,-0.0415050992727759
1493477810.9,40.4548155237366,-79.9135130178928,13.6800003051758,0.0364837646484375,-0.942520141601562,0.180740356445312,-0.0332245324953925,0.031056719368068,-0.0452013005496969
1493477811.1,40.4548155237366,-79.9135130178928,13.6800003051758,0.114822387695312,-0.835479736328125,0.196929931640625,-0.00121306987653109,-0.0542323461222646,0.0587693073553236
1493477811.3,40.4548989655827,-79.9136399199068,14.1899995803833,0.0228118896484375,-0.948471069335938,0.139938354492188,-0.0330492964956653,0.0257469087866681,0.0166546105090285
1493477811.5,40.4548989655827,-79.9136399199068,14.1899995803833,-0.0318756103515625,-0.967620849609375,0.254608154296875,0.0134287234806156,-0.00433775678352106,0.0278702471237882
1493477811.7,40.4548989655827,-79.9136399199068,14.1899995803833,-0.057525634765625,-1.02275085449219,0.335128784179688,0.0766660161967651,-0.0270939356660301,-0.0140721431999787
1493477811.9,40.4548989655827,-79.9136399199068,14.1899995803833,-0.0587005615234375,-1.00907897949219,0.162994384765625,0.0031023163538333,-0.0298058326040578,-0.00948724506729828
1493477812.1,40.4548989655827,-79.9136399199068,14.1899995803833,-0.034210205078125,-0.982177734375,0.190322875976562,0.0217409818749709,-0.115013405365034,0.060227388052142
1493477812.3,40.4549840418999,-79.9137703423201,14.5900001525879,-0.133132934570312,-0.973052978515625,0.170028686523438,-0.0121221766498227,8.36232582284881e-05,0.0297296661968816
1493477812.5,40.4549840418999,-79.9137703423201,14.5900001525879,-0.10748291015625,-1.0064697265625,0.147552490234375,-0.0120587934158788,-0.102031027683116,0.047053262771738
1493477812.7,40.4549840418999,-79.9137703423201,14.5900001525879,-0.0205535888671875,-0.951675415039062,0.212387084960938,-0.101733019957136,0.0368131420642743,-0.0938972010817958
1493477812.9,40.4549840418999,-79.9137703423201,14.5900001525879,-0.1123046875,-1.17074584960938,0.146163940429688,0.172704931427203,0.00844861224216738,-0.00891573069736727
1493477813.1,40.4549840418999,-79.9137703423201,14.5900001525879,0.16717529296875,-0.924652099609375,0.2177734375,-0.0447150073346484,0.143880473684839,-0.0775965246816388
1493477813.3,40.455070417412,-79.9139009323715,14.7200002670288,-0.016632080078125,-0.862045288085938,0.205841064453125,0.0320612637312459,-0.0480689924114942,0.0431008653979514
1493477813.5,40.455070417412,-79.9139009323715,14.7200002670288,0.1103515625,-0.958343505859375,0.160491943359375,0.0295222059479644,-0.0193372126750654,0.0110143016363497
1493477813.7,40.455070417412,-79.9139009323715,14.7200002670288,-0.0341949462890625,-1.10104370117188,0.16448974609375,0.0439331032386012,-0.061977617520542,0.0240664541388281
1493477813.9,40.455070417412,-79.9139009323715,14.7200002670288,-0.00921630859375,-1.06269836425781,0.128555297851562,0.0420611673083845,0.0146135638495918,-0.0305272829433603
1493477814.1,40.455070417412,-79.9139009323715,14.7200002670288,0.126861572265625,-0.68328857421875,0.288253784179688,0.164197995957162,-0.123383986987262,0.073435868110608
1493477814.3,40.4551580083002,-79.9140314386039,14.6099996566772,-0.0127716064453125,-0.851913452148438,0.106735229492188,-0.0749978120899394,-0.0707697775433297,0.0719173336570448
1493477814.5,40.4551580083002,-79.9140314386039,14.6099996566772,0.0672607421875,-0.938446044921875,0.222183227539062,-0.0014823154627381,0.027661188978217,-0.0320729816400423
1493477814.7,40.4551580083002,-79.9140314386039,14.6099996566772,-0.099609375,-0.914871215820312,0.154891967773438,0.0164772439804293,-0.0777464606510102,0.0760705333770234
1493477814.9,40.4551580083002,-79.9140314386039,14.6099996566772,-0.107757568359375,-1.06288146972656,0.1861572265625,0.0308913370643741,-0.0640173325994337,0.0420638304694745
1493477815.1,40.4551580083002,-79.9140314386039,14.6099996566772,0.024932861328125,-0.897018432617188,0.215911865234375,0.00814421292957132,0.0393000018901903,-0.0288058156147331
1493477815.3,40.455248574764,-79.9141623639315,14.8500003814697,-0.06488037109375,-1.00900268554688,0.115982055664062,0.00848003754303031,-0.064934791594966,0.045035385613785
1493477815.5,40.455248574764,-79.9141623639315,14.8500003814697,-0.08819580078125,-1.02684020996094,0.143325805664062,-0.0107613013327922,0.0447389757844591,-0.0450066234740121
1493477815.7,40.455248574764,-79.9141623639315,14.8500003814697,-0.0379180908203125,-0.930404663085938,0.157867431640625,-0.158689513558443,-0.0978895458719335,0.0252832524408853
1493477815.9,40.455248574764,-79.9141623639315,14.8500003814697,0.0409088134765625,-0.931869506835938,0.149826049804688,-0.0139512356864891,-0.0626604520240384,0.0511971414279013
1493477816.1,40.455248574764,-79.9141623639315,14.8500003814697,-0.131729125976562,-0.91900634765625,0.134963989257812,-0.0247077433293191,-0.0966312022568711,0.0405125391345034
1493477816.3,40.4553379258518,-79.9142901041358,14.6199998855591,-0.01812744140625,-0.98297119140625,0.170806884765625,-0.0377569663545984,-0.0359183199380077,0.0156993346260171
1493477816.5,40.4553379258518,-79.9142901041358,14.6199998855591,-0.042572021484375,-0.957672119140625,0.137741088867188,-0.00871439571895728,0.0766409824825183,-0.021611285929884
1493477816.7,40.4553379258518,-79.9142901041358,14.6199998855591,-0.0209503173828125,-0.931640625,0.169342041015625,-0.00416172183546683,0.0149192947427329,0.00098510328722031
1493477816.9,40.4553379258518,-79.9142901041358,14.6199998855591,-0.024993896484375,-0.967819213867188,0.127517700195312,0.00585895439817432,0.0244233177248987,-0.0255921791273345
1493477817.1,40.4553379258518,-79.9142901041358,14.6199998855591,0.038787841796875,-0.973724365234375,0.18267822265625,-0.00392976050452092,-0.0914412339245247,0.0812280111440708
1493477817.3,40.455426983573,-79.9144161679595,14.3699998855591,-0.11785888671875,-0.934295654296875,0.176101684570312,0.00733274774542417,-0.0798197315596369,0.0429296241398593
1493477817.5,40.455426983573,-79.9144161679595,14.3699998855591,0.0071868896484375,-0.992568969726562,0.083526611328125,-0.0427352133802835,0.0172881765323584,-0.0580577107120544
1493477817.7,40.455426983573,-79.9144161679595,14.3699998855591,0.073699951171875,-0.91119384765625,0.145431518554688,-0.0396302338653601,0.0619491216968782,-0.0272209684500269
1493477817.9,40.455426983573,-79.9144161679595,14.3699998855591,0.0881805419921875,-0.93304443359375,0.1009521484375,-0.00756497539247908,-0.00314093218963945,0.00632793706613728
1493477818.1,40.455426983573,-79.9144161679595,14.3699998855591,-0.0229949951171875,-0.94720458984375,0.113540649414062,0.0377862611265893,0.0359177873057897,-0.0178314613947345
1493477818.3,40.4555135686327,-79.9145406392216,14.1499996185303,-0.056793212890625,-1.0479736328125,0.13677978515625,0.00436145891722277,0.0116723687417083,-0.00105168231447229
1493477818.5,40.4555135686327,-79.9145406392216,14.1499996185303,0.055908203125,-1.0015869140625,0.088165283203125,0.0105170894608319,0.203083876297845,-0.112368886402585
1493477818.7,40.4555135686327,-79.9145406392216,14.1499996185303,0.210662841796875,-0.956558227539062,0.0530242919921875,0.00367196651100125,-0.186159221254283,0.0964772715458645
1493477818.9,40.4555135686327,-79.9145406392216,14.1499996185303,0.0716705322265625,-0.978500366210938,0.102401733398438,-0.0339957839470795,-0.196547680034464,0.119575133996231
1493477819.1,40.4555135686327,-79.9145406392216,14.1499996185303,-0.121963500976562,-0.930511474609375,0.11175537109375,-0.0822826229357422,0.0154319532525732,0.028971730550645
1493477819.3,40.4556006985162,-79.914658069685,13.6800003051758,0.021240234375,-1.02969360351562,0.01666259765625,-0.00761291229210051,0.013880928233711,0.0190780871010006
1493477819.5,40.4556006985162,-79.914658069685,13.6800003051758,-0.031982421875,-1.01164245605469,0.04156494140625,0.0132143390128642,-0.0309291539518532,0.0290028895353989
1493477819.7,40.4556006985162,-79.914658069685,13.6800003051758,-0.0700225830078125,-0.993606567382812,0.0813446044921875,-0.011528291726735,-0.0222672225063705,-0.0256497034068802
1493477819.9,40.4556006985162,-79.914658069685,13.6800003051758,-0.05303955078125,-0.937667846679688,0.0688323974609375,0.00231987962556802,0.0116846192827227,-0.00746990054156325
1493477820.1,40.4556006985162,-79.914658069685,13.6800003051758,-0.048797607421875,-0.981765747070312,0.058868408203125,-0.0278814324003666,-0.0242840343998875,0.000843423117228095
1493477820.3,40.4556812486057,-79.9147699680924,12.5900001525879,0.0188751220703125,-1.07025146484375,0.0239715576171875,0.023662452601463,0.0179281341423044,-0.00726750029871723
1493477820.5,40.4556812486057,-79.9147699680924,12.5900001525879,-0.087127685546875,-0.920516967773438,0.07855224609375,-0.0386419347848317,-0.0178298634980805,0.0124449517739403
1493477820.7,40.4556812486057,-79.9147699680924,12.5900001525879,-0.0772857666015625,-0.974761962890625,-0.009185791015625,-0.0889628962140969,0.0846017036129832,-0.0672344311962495
1493477820.9,40.4556812486057,-79.9147699680924,12.5900001525879,-0.08294677734375,-0.99493408203125,-0.0036773681640625,0.027627899464591,-0.0927182196672177,0.0314423450939115
1493477821.1,40.4556812486057,-79.9147699680924,12.5900001525879,-0.07598876953125,-0.970932006835938,0.0351409912109375,-0.00639504872560727,0.00110547816849189,0.000997886460452691
1493477821.3,40.4557473818217,-79.9148636777698,11.1300001144409,-0.0716094970703125,-0.992340087890625,-0.050323486328125,0.0160069297319213,0.0105336010595904,0.00333534294921524
1493477821.5,40.4557473818217,-79.9148636777698,11.1300001144409,-0.074249267578125,-1.0367431640625,-0.0623779296875,0.00741184362979953,-0.00749440162359198,-0.00097098853344289
1493477821.7,40.4557473818217,-79.9148636777698,11.1300001144409,-0.065826416015625,-1.00340270996094,-0.0277557373046875,0.00136167426535751,0.0180724774733867,-0.0117610520060079
1493477821.9,40.4557473818217,-79.9148636777698,11.1300001144409,-0.0543670654296875,-1.01856994628906,-0.0198974609375,-0.00901986029598937,-0.0297222093458293,0.0202424211295833
1493477822.1,40.4557473818217,-79.9148636777698,11.1300001144409,-0.0238494873046875,-1.00466918945312,-0.0010528564453125,0.0248864414384635,-0.0480255828857259,0.0227692283718505
1493477822.3,40.4558126768474,-79.9149530288576,9.22000026702881,-0.04156494140625,-0.920211791992188,0.0805206298828125,0.0371990341062268,-0.00130494893413883,0.00464908031495133
1493477822.5,40.4558126768474,-79.9149530288576,9.22000026702881,-0.02001953125,-0.973922729492188,-0.0231475830078125,-0.0353665129601433,-0.0167883011957505,0.00714472857246458
1493477822.7,40.4558126768474,-79.9149530288576,9.22000026702881,-0.0374908447265625,-1.02761840820312,-0.0151519775390625,-0.0019190738815111,-0.00318141223820866,-0.0170708625874079
1493477822.9,40.4558126768474,-79.9149530288576,9.22000026702881,-0.0387725830078125,-0.97027587890625,0.0218658447265625,-0.0295994376195767,0.00125381624120931,-0.0152332814352532
1493477823.1,40.4558126768474,-79.9149530288576,9.22000026702881,-0.0273895263671875,-1.01210021972656,-0.0270233154296875,-0.0154535248574028,-0.0318074644793614,0.0223143604576649
1493477823.3,40.4558628006284,-79.915022850111,7.59999990463257,-0.0357666015625,-0.978317260742188,-0.0827484130859375,0.0382864027793062,-0.0119504027595126,-0.00277581280418959
1493477823.5,40.4558628006284,-79.915022850111,7.59999990463257,-0.030426025390625,-1.05123901367188,-0.050384521484375,-0.0243796418830214,0.0107953897947452,-0.0024098944704127
1493477823.7,40.4558628006284,-79.915022850111,7.59999990463257,-0.051849365234375,-1.03083801269531,-0.03509521484375,-0.000543284862376165,-0.0372235351882555,0.0192823515566097
1493477823.9,40.4558628006284,-79.915022850111,7.59999990463257,0.005218505859375,-1.01007080078125,-0.065704345703125,0.00327275866359838,0.0201902231722177,0.00531247374249006
1493477824.1,40.4558628006284,-79.915022850111,7.59999990463257,-0.06488037109375,-1.01254272460938,-0.0561981201171875,0.0066009110778704,-0.0627978711362865,0.0279512072209266
1493477824.3,40.4559004772831,-79.9150732253491,5.48000001907349,-0.0511016845703125,-1.03823852539062,-0.01202392578125,-0.0115309548878251,0.0202852980231336,-0.00230283539459152
1493477824.5,40.4559004772831,-79.9150732253491,5.48000001907349,-0.0074310302734375,-0.984542846679688,-0.010528564453125,-0.0361769128798544,0.0151283528883041,0.00598785139493416
1493477824.7,40.4559004772831,-79.9150732253491,5.48000001907349,-0.010894775390625,-1.02110290527344,-0.013397216796875,-0.0334008337595558,-0.0210544189459484,0.016771789596992
1493477824.9,40.4559004772831,-79.9150732253491,5.48000001907349,-0.0374908447265625,-0.984268188476562,0.0164337158203125,0.0103783387680388,-0.00857484607783713,0.0150553822744359
1493477825.1,40.4559004772831,-79.9150732253491,5.48000001907349,-0.019805908203125,-1.00352478027344,0.0181732177734375,0.02151035212457,0.0168785823567042,-0.00622061167420708
1493477825.3,40.4559254972641,-79.9151075073331,3.52999997138977,-0.0210723876953125,-1.02369689941406,0.0437164306640625,-0.00949736507944058,0.00750745111293337,-0.00224903954057192
1493477825.5,40.4559254972641,-79.9151075073331,3.52999997138977,0.008392333984375,-0.994842529296875,0.0202178955078125,-0.0232762942434015,0.0139791988779349,-0.00347302837757233
1493477825.7,40.4559254972641,-79.9151075073331,3.52999997138977,-0.023712158203125,-0.992584228515625,0.035736083984375,-0.0308159696055249,0.0161568657012927,0.00390765626747327
1493477825.9,40.4559254972641,-79.9151075073331,3.52999997138977,-0.006439208984375,-0.994583129882812,0.0586395263671875,-0.0156407450820354,0.0245655305271089,-0.0108856709556989
1493477826.1,40.4559254972641,-79.9151075073331,3.52999997138977,0.0115814208984375,-0.99615478515625,0.041107177734375,-0.00775272824932967,-0.0105842011203019,0.0159411496529963
1493477826.3,40.455939788409,-79.915128462091,2.05999994277954,-0.0222930908203125,-0.968170166015625,0.042572021484375,-0.00648559620266997,-0.0148500525543908,-0.00109429289191356
1493477826.5,40.455939788409,-79.915128462091,2.05999994277954,-0.0331268310546875,-0.98626708984375,0.051055908203125,-0.00750771742904238,-0.00526959684893979,0.00100294646652384
1493477826.7,40.455939788409,-79.915128462091,2.05999994277954,-0.0264739990234375,-0.983291625976562,0.0792694091796875,-0.00623925380183764,0.00429408094164376,-0.00860467348204602
1493477826.9,40.455939788409,-79.915128462091,2.05999994277954,-0.0235443115234375,-0.97344970703125,0.115631103515625,-0.0150647033382512,-0.00734686249920159,0.00732822037157104
1493477827.1,40.455939788409,-79.915128462091,2.05999994277954,-0.0194854736328125,-0.980484008789062,0.125595092773438,-0.0106912601961231,7.0041136669084e-05,0.00308900054838291
1493477827.3,40.4559461586554,-79.9151380174606,0.699999988079071,-0.0095672607421875,-0.98193359375,0.112213134765625,-0.00636841711470648,-0.00315025325345473,-0.00325571443262187
1493477827.5,40.4559461586554,-79.9151380174606,0.699999988079071,-0.012542724609375,-0.987319946289062,0.1258544921875,-0.00742249627415984,0.00217553629448573,-0.00114782242982415
1493477827.7,40.4559461586554,-79.9151380174606,0.699999988079071,-0.0203094482421875,-0.969741821289062,0.123428344726562,0.00105274757890832,-0.00745338894280476,-0.00316862906497628
1493477827.9,40.4559461586554,-79.9151380174606,0.699999988079071,-0.018402099609375,-0.973663330078125,0.134552001953125,-0.00750904900958742,-0.00739719624380409,-5.77905956547195e-05
1493477828.1,40.4559461586554,-79.9151380174606,0.699999988079071,-0.020233154296875,-0.950653076171875,0.1878662109375,-0.00529436424707753,3.40884619530142e-05,-0.00218672157106406
1493477828.3,40.4559461586554,-79.9151380174606,0.0,-0.0267486572265625,-0.963912963867188,0.174896240234375,-0.0107711550288255,-0.0105666242571074,0.0031156321592837
1493477828.5,40.4559461586554,-79.9151380174606,0.0,-0.0160980224609375,-0.961044311523438,0.174270629882812,-0.0106113653634207,-0.000995223299362611,-0.00330471659667933
1493477828.7,40.4559461586554,-79.9151380174606,0.0,-0.012847900390625,-0.975677490234375,0.159881591796875,-0.00742382785470488,4.79368996214263e-05,-0.00220855949200271
1493477828.9,40.4559461586554,-79.9151380174606,0.0,-0.022613525390625,-0.959701538085938,0.173294067382812,-0.0106699549074025,-0.00099415803492658,0.00095953694075555
1493477829.1,40.4559461586554,-79.9151380174606,0.0,-0.0164947509765625,-0.956680297851562,0.185470581054688,-0.0096158757479491,-0.00631994758286704,-0.00114835506204217
1493477829.3,40.4559461586554,-79.9151380174606,0.0,-0.0245361328125,-0.967025756835938,0.167633056640625,-0.0107312076124743,-0.00524829156021915,0.0031023163538333
1493477829.5,40.4559461586554,-79.9151380174606,0.0,-0.01898193359375,-0.954742431640625,0.1773681640625,-0.00748641214032175,-0.00633379602053545,-0.00112651714110352
1493477829.7,40.4559461586554,-79.9151380174606,0.0,-0.019500732421875,-0.962783813476562,0.1710205078125,-0.0107165602264789,-0.00524855787632816,0.00203625296947459
1493477829.9,40.4559461586554,-79.9151380174606,0.0,-0.01531982421875,-0.964263916015625,0.173126220703125,-0.00847391227252313,5.45948023466244e-05,-0.00328554183683076
1493477830.1,40.4559461586554,-79.9151380174606,0.0,-0.016143798828125,-0.963043212890625,0.173004150390625,-0.00642034875596303,-0.00421312084450535,-5.48611184556323e-05
1493477830.3,40.4559461586554,-79.9151380174606,0.0,-0.0231781005859375,-0.964553833007812,0.172988891601562,-0.0085804387161263,-0.00632633916948323,0.000994690667144596
1493477830.5,40.4559461586554,-79.9151380174606,0.0,-0.0242462158203125,-0.966094970703125,0.174789428710938,-0.0116747655866894,0.0011393003143359,-0.00225489849497009
1493477830.7,40.4559461586554,-79.9151380174606,0.0,-0.01971435546875,-0.96142578125,0.173843383789062,-0.00853383339704991,-0.00207193932808165,-8.20253615744405e-05
1493477830.9,40.4559461586554,-79.9151380174606,0.0,-0.0122528076171875,-0.962799072265625,0.17022705078125,-0.00852717549432471,-0.0031358721835683,-0.00114542558484308
1493477831.1,40.4559461586554,-79.9151380174606,0.0,-0.027069091796875,-0.96234130859375,0.166961669921875,-0.00753035429830805,-0.00633299707220843,0.00207167301197264
1493477831.3,40.4559461586554,-79.9151380174606,0.0,-0.019744873046875,-0.956085205078125,0.1717529296875,-0.0117892815135628,-0.0063053001968716,0.00202799717009534
1493477831.5,40.4559461586554,-79.9151380174606,0.0,-0.02032470703125,-0.967361450195312,0.17401123046875,-0.00961321258685903,-0.00206474879313843,0.000973119062314954
1493477831.7,40.4559461586554,-79.9151380174606,0.0,-0.0201263427734375,-0.96551513671875,0.167266845703125,-0.0106566391019521,-0.00312202374589989,-0.00116726350578173
1493477831.9,40.4559461586554,-79.9151380174606,0.0,-0.01959228515625,-0.959335327148438,0.17694091796875,-0.00960655468413383,-0.00312868164862509,-9.02811609536862e-05
1493477832.1,40.4559461586554,-79.9151380174606,0.0,-0.0151519775390625,-0.963226318359375,0.171524047851562,-0.0085737808134011,-0.00739027202496989,-6.87095561240443e-05
1493477832.3,40.4559461586554,-79.9151380174606,0.0,-0.0196533203125,-0.96295166015625,0.174896240234375,-0.00857111765231102,-0.00313507323524128,0.00205276456823308
1493477832.5,40.4559461586554,-79.9151380174606,0.0,-0.021026611328125,-0.962860107421875,0.178237915039062,-0.00854848078304535,-0.00207167301197264,0.000984038022784279
1493477832.7,40.4559461586554,-79.9151380174606,0.0,-0.022552490234375,-0.96435546875,0.166946411132812,-0.012770123743039,-0.000980842229476183,-0.00119442774890054
1493477832.9,40.4559461586554,-79.9151380174606,0.0,-0.0187225341796875,-0.9661865234375,0.177642822265625,-0.0084965491417888,-0.00100880542092202,-0.00221681529138196
1493477833.1,40.4559461586554,-79.9151380174606,0.0,-0.017181396484375,-0.960678100585938,0.176376342773438,-0.00750771742904238,-0.00526959684893979,0.00100294646652384
1493477833.3,40.4559461586554,-79.9151380174606,0.0,-0.020233154296875,-0.964157104492188,0.1700439453125,-0.0118052604801032,-0.0084326332756269,0.0020333234922755
1493477833.5,40.4559461586554,-79.9151380174606,0.0,-0.024078369140625,-0.964553833007812,0.173095703125,-0.0117733025470223,-0.00417796711811631,0.00202267084791518
1493477833.7,40.4559461586554,-79.9151380174606,0.0,-0.018829345703125,-0.9669189453125,0.17510986328125,-0.00954663355960705,-0.00100214751819682,-0.00329379763621
1493477833.9,40.4559461586554,-79.9151380174606,0.0,-0.0192718505859375,-0.9656982421875,0.174468994140625,-0.0116667761034191,0.00220296685371355,-0.00225756165606017
1493477834.1,40.4559461586554,-79.9151380174606,0.0,-0.0182647705078125,-0.961166381835938,0.173477172851562,-0.00963718103666974,-0.00525574841127138,0.000981108545585191
1493477834.3,40.4559461586554,-79.9151380174606,0.0,-0.0217437744140625,-0.963211059570312,0.174530029296875,-0.00859508610212173,-0.00632607285337422,0.00206075405150331
1493477834.5,40.4559461586554,-79.9151380174606,0.0,-0.018310546875,-0.966461181640625,0.175018310546875,-0.0117373498723062,-0.00524243260582098,-0.0011728561440709
1493477834.7,40.4559461586554,-79.9151380174606,0.0,-0.0221710205078125,-0.961013793945312,0.17266845703125,-0.00959057571759335,-0.00100134856986979,-9.56074831338447e-05
1493477834.9,40.4559461586554,-79.9151380174606,0.0,-0.0145416259765625,-0.958450317382812,0.170242309570312,-0.0138654818993885,-0.00310098477328826,-0.000133957002830986
1493477835.1,40.4559461586554,-79.9151380174606,0.0,-0.02001953125,-0.964584350585938,0.172256469726562,-0.0117200393252207,-0.000987500132201381,-0.000117445404072494
1493477835.3,40.4559461586554,-79.9151380174606,0.0,-0.0194854736328125,-0.963592529296875,0.173385620117188,-0.0138734713826588,-0.00416465131266591,-0.000131293841740906
1493477835.5,40.4559461586554,-79.9151380174606,0.0,-0.0236053466796875,-0.961212158203125,0.168197631835938,-0.0117453393555765,-0.00630609914519863,-0.00117019298298082
1493477835.7,40.4559461586554,-79.9151380174606,0.0,-0.0184783935546875,-0.96295166015625,0.176727294921875,-0.014922224219932,-0.00203039401507641,-0.00014753912439039
1493477835.9,40.4559461586554,-79.9151380174606,0.0,-0.01708984375,-0.970565795898438,0.169845581054688,-0.00957592833159792,-0.0010016148859788,-0.00116167086749256
1493477836.1,40.4559461586554,-79.9151380174606,0.0,-0.01568603515625,-0.96295166015625,0.170745849609375,-0.0117373498723062,-0.00524243260582098,-0.0011728561440709
1493477836.3,40.4559461586554,-79.9151380174606,0.0,-0.021484375,-0.961944580078125,0.169998168945312,-0.00964383893939494,-0.00419181555578472,0.00204450876885383
1493477836.5,40.4559461586554,-79.9151380174606,0.0,-0.020660400390625,-0.957489013671875,0.170333862304688,-0.00961454416740407,-0.00419234818800274,-8.76179998636069e-05
1493477836.7,40.4559461586554,-79.9151380174606,0.0,-0.020233154296875,-0.963226318359375,0.171920776367188,-0.00961454416740407,-0.00419234818800274,-8.76179998636069e-05
1493477836.9,40.4559461586554,-79.9151380174606,0.0,-0.0167083740234375,-0.964889526367188,0.168502807617188,-0.0128167290621153,-0.00523524207087777,-0.000117711720181502
1493477837.1,40.4559461586554,-79.9151380174606,0.0,-0.0195770263671875,-0.960617065429688,0.16973876953125,-0.00954397039851697,0.00325305127153179,-0.00117232351185288
1493477837.3,40.4559461586554,-79.9151380174606,0.0,-0.0190277099609375,-0.96240234375,0.17620849609375,-0.0106952549377582,-0.00631275704792383,-9.32106381527733e-05
1493477837.5,40.4559461586554,-79.9151380174606,0.0,-0.0232391357421875,-0.965301513671875,0.175033569335938,-0.0128087395788451,-0.00417157553150012,-0.000120374881271582
1493477837.7,40.4559461586554,-79.9151380174606,0.0,-0.016143798828125,-0.965438842773438,0.1690673828125,-0.0106726180684925,-0.00524935682465519,-0.00116193718360157
1493477837.9,40.4559461586554,-79.9151380174606,0.0,-0.014923095703125,-0.960494995117188,0.173049926757812,-0.00959989678140863,-0.00419261450411174,-0.00115368138422233
1493477838.1,40.4559461586554,-79.9151380174606,0.0,-0.019134521484375,-0.959854125976562,0.175018310546875,-0.00856579133013086,-0.00632660548559224,-7.13727172141236e-05
1493477838.3,40.4559461586554,-79.9151380174606,0.0,-0.019989013671875,-0.9622802734375,0.1685791015625,-0.00540222227122573,-0.00847444490474114,0.00103277387073273
1493477838.5,40.4559461586554,-79.9151380174606,0.0,-0.0214996337890625,-0.962844848632812,0.174789428710938,-0.0085870966188515,-0.00526240631399657,0.00205809089041324
1493477838.7,40.4559461586554,-79.9151380174606,0.0,-0.018890380859375,-0.95989990234375,0.170623779296875,-0.0106646285852223,-0.00418569028527754,-0.00116460034469165
1493477838.9,40.4559461586554,-79.9151380174606,0.0,-0.0188140869140625,-0.966156005859375,0.1690673828125,-0.0159949455070159,-0.00308713633561985,-0.000155794923769635
1493477839.1,40.4559461586554,-79.9151380174606,0.0,-0.0206146240234375,-0.963577270507812,0.173385620117188,-0.010687265454488,-0.00524909050854618,-9.58737992428526e-05
1493477839.3,40.4559461586554,-79.9151380174606,0.0,-0.0180206298828125,-0.962631225585938,0.171676635742188,-0.0128473554146513,-0.00736230883352405,0.000953677986357375
1493477839.5,40.4559461586554,-79.9151380174606,0.0,-0.021331787109375,-0.961212158203125,0.169540405273438,-0.00856579133013086,-0.00632660548559224,-7.13727172141236e-05
1493477839.7,40.4559461586554,-79.9151380174606,0.0,-0.017547607421875,-0.965057373046875,0.175933837890625,-0.00853516497759495,-0.00419953872294595,-0.001142762423753
1493477839.9,40.4559461586554,-79.9151380174606,0.0,-0.0201416015625,-0.960922241210938,0.171920776367188,-0.0064496435279539,-0.00421258821228734,0.00207726565026181
1493477840.1,40.4559461586554,-79.9151380174606,0.0,-0.016845703125,-0.960464477539062,0.1729736328125,-0.0117426761944864,-0.00205090035547002,0.000951281141376304
1493477840.3,40.4559461586554,-79.9151380174606,0.0,-0.022308349609375,-0.957656860351562,0.174575805664062,-0.00854981236359039,-0.00419927240683694,-7.66990393942821e-05
1493477840.5,40.4559461586554,-79.9151380174606,0.0,-0.023406982421875,-0.967422485351562,0.172531127929688,-0.0128446922535612,-0.00310711004379545,0.0030751521107145
1493477840.7,40.4559461586554,-79.9151380174606,0.0,-0.0158538818359375,-0.962112426757812,0.1761474609375,-0.0116987340365001,-0.00205169930379704,-0.00224690901169985
1493477840.9,40.4559461586554,-79.9151380174606,0.0,-0.0170745849609375,-0.960494995117188,0.171707153320312,-0.00964517051993998,-0.00631941495064902,0.000983771706675271
1493477841.1,40.4559461586554,-79.9151380174606,0.0,-0.02154541015625,-0.961776733398438,0.168563842773438,-0.00956927042887272,-0.00206554774146546,-0.0022250710907612
1493477841.3,40.4559461586554,-79.9151380174606,0.0,-0.021759033203125,-0.962127685546875,0.178329467773438,-0.00960655468413383,-0.00312868164862509,-9.02811609536862e-05
1493477841.5,40.4559461586554,-79.9151380174606,0.0,-0.02325439453125,-0.963592529296875,0.172637939453125,-0.00961321258685903,-0.00206474879313843,0.000973119062314954
1493477841.7,40.4559461586554,-79.9151380174606,0.0,-0.01678466796875,-0.962417602539062,0.171493530273438,-0.0117346867112161,-0.000987233816092374,0.000948617980286225
1493477841.9,40.4559461586554,-79.9151380174606,0.0,-0.01763916015625,-0.959930419921875,0.17218017578125,-0.0106792759712177,-0.00418542396916853,-9.85369603329318e-05
1493477842.1,40.4559461586554,-79.9151380174606,0.0,-0.0243377685546875,-0.96356201171875,0.177597045898438,-0.00852850707486975,-0.00526347157843261,-0.00220616264702164
1493477842.3,40.4559461586554,-79.9151380174606,0.0,-0.021820068359375,-0.983291625976562,0.173538208007812,-0.0138042291943167,0.00115314875200431,-0.00227673641590874
1493477842.5,40.4559461586554,-79.9151380174606,0.0,-0.0170440673828125,-0.95843505859375,0.178634643554688,-0.014887603125761,-0.00522245889764539,-0.00440380317855503
1493477842.7,40.4559461586554,-79.9151380174606,0.0,-0.0144195556640625,-0.960952758789062,0.193862915039062,-0.00947739137126499,0.00431565254647341,-0.00543924021037784
1493477842.9,40.4559461586554,-79.9151380174606,0.0,-0.0170440673828125,-0.955459594726562,0.222640991210938,-0.0107352023541094,-0.0116310897448121,-7.98948327023771e-05
1493477843.1,40.4559461586554,-79.9151380174606,0.0,-0.0186767578125,-0.947006225585938,0.224029541015625,-0.00751570691231262,-0.00633326338831744,0.00100560962761392
1493477843.3,40.4559461586554,-79.9151380174606,0.0,-0.0076904296875,-0.952789306640625,0.258377075195312,0.00309565845110811,-0.00533804008895482,0.00431032622429325
1493477843.5,40.4559461586554,-79.9151380174606,0.0,-0.0208282470703125,-0.941848754882812,0.274200439453125,-0.0129685292442499,-0.0137429764892449,0.00629997387469145
1493477843.7,40.4559461586554,-79.9151380174606,0.0,-0.016998291015625,-0.925628662109375,0.338821411132812,0.005444832848667,0.00634604656154982,-0.00529170108598745
1493477843.9,40.4559461586554,-79.9151380174606,0.0,-0.0063018798828125,-0.93841552734375,0.279281616210938,-0.00642434349759815,0.00110601080070991,0.00313001322917013
1493477844.1,40.4559461586554,-79.9151380174606,0.0,-0.013153076171875,-0.954421997070312,0.1968994140625,-0.0329414384715171,-0.000850347336062301,-0.00566614153525259
1493477844.3,40.4559396626804,-79.915147069916,0.870000004768372,0.0130462646484375,-0.9603271484375,0.260345458984375,0.00244637977734679,0.0148737546880925,-0.0149403337153445
1493477844.5,40.4559396626804,-79.915147069916,0.870000004768372,0.009490966796875,-0.969680786132812,0.219207763671875,-0.0217034313036008,-0.0211303190370157,0.0179579615465133
1493477844.7,40.4559396626804,-79.915147069916,0.870000004768372,-0.0314788818359375,-0.942901611328125,0.248123168945312,-0.00346983258426424,-0.019122828207314,0.00960975047744192
1493477844.9,40.4559396626804,-79.915147069916,0.870000004768372,-0.00738525390625,-0.925384521484375,0.340377807617188,-0.000669252381936913,0.0234035933435073,-0.0160604592698319
1493477845.1,40.4559396626804,-79.915147069916,0.870000004768372,-0.006683349609375,-0.936904907226562,0.34527587890625,-0.0022786006286718,-0.00423868719097012,0.00851732179829142
1493477845.3,40.4559461586554,-79.9151564576476,1.48000001907349,-0.0326080322265625,-0.92822265625,0.32568359375,0.00221069002087478,0.0010484865211642,-0.00531114216194502
1493477845.5,40.4559461586554,-79.9151564576476,1.48000001907349,-0.0079345703125,-0.93634033203125,0.30645751953125,0.00143624277587973,0.00849681545789781,-0.0223977173997844
1493477845.7,40.4559461586554,-79.9151564576476,1.48000001907349,-0.0076141357421875,-0.932830810546875,0.276718139648438,-0.0123906232877027,0.0319904236462498,-0.0108715562019215
1493477845.9,40.4559461586554,-79.9151564576476,1.48000001907349,0.007720947265625,-0.959991455078125,0.310760498046875,0.00548877500665331,0.00634524761322279,-0.0084898912390636
1493477846.1,40.4559461586554,-79.9151564576476,1.48000001907349,0.0185699462890625,-0.929794311523438,0.312423706054688,-0.0145027763482445,0.0245572747277297,-0.0162050689170232
1493477846.3,40.4559603659813,-79.9151779153197,2.70000004768372,-0.037445068359375,-0.923477172851562,0.344680786132812,-0.00755831748975389,-0.00420486504512611,0.00526453684286864
1493477846.5,40.4559603659813,-79.9151779153197,2.70000004768372,-0.0356292724609375,-0.958206176757812,0.300064086914062,-0.0140026346955276,-0.0233109153375726,-0.0011494203264782
1493477846.7,40.4559603659813,-79.9151779153197,2.70000004768372,0.0058135986328125,-0.949142456054688,0.256393432617188,-0.0158825601090146,0.0171108100037591,-0.0748417508500608
1493477846.9,40.4559603659813,-79.9151779153197,2.70000004768372,0.108657836914062,-0.990814208984375,0.278594970703125,-0.0239753740295474,-0.0147310092536643,0.0317789686556975
1493477847.1,40.4559603659813,-79.9151779153197,2.70000004768372,-0.0822601318359375,-0.891708374023438,0.2891845703125,-0.000264984528462884,0.00957912412490601,0.0244954893904398
1493477847.3,40.455983416215,-79.9152115267514,3.92000007629395,-0.0840606689453125,-0.910842895507812,0.292312622070312,-0.0208099407578792,-0.0211465643196652,-0.0470719048993685
1493477847.5,40.455983416215,-79.9152115267514,3.92000007629395,0.08245849609375,-0.989089965820312,0.328399658203125,-0.0189148353261788,0.00224770796002688,-0.0172588817603675
1493477847.7,40.455983416215,-79.9152115267514,3.92000007629395,-0.0007781982421875,-0.943130493164062,0.26617431640625,-0.0158870874828677,0.0288252566906907,0.00935888070275646
1493477847.9,40.455983416215,-79.9152115267514,3.92000007629395,-0.026702880859375,-0.94720458984375,0.300613403320312,-0.0256933792487575,-0.0125970182721838,0.00296809303489331
1493477848.1,40.455983416215,-79.9152115267514,3.92000007629395,0.0081329345703125,-0.95672607421875,0.297332763671875,-0.0202964832997119,-0.000931041117091702,0.00405945644960778
1493477848.3,40.4560102802147,-79.9152525142579,5.1100001335144,0.0243072509765625,-0.9200439453125,0.309158325195312,-0.0196919457322639,0.0288446977666482,-0.0237327600542411
1493477848.5,40.4560102802147,-79.9152525142579,5.1100001335144,0.0759124755859375,-0.838333129882812,0.242965698242188,0.0354224393430349,0.0125320371415859,-0.0135304562342566
1493477848.7,40.4560102802147,-79.9152525142579,5.1100001335144,0.07586669921875,-0.825851440429688,0.28631591796875,0.0772553737459996,-0.0260284049138894,0.0211162042832383
1493477848.9,40.4560102802147,-79.9152525142579,5.1100001335144,-0.086029052734375,-0.95489501953125,0.241851806640625,-0.0141419180205388,0.0394440789051636,-0.0343654307063825
1493477849.1,40.4560434555406,-79.915307669251,6.21999979019165,-0.0421600341796875,-0.93994140625,0.300125122070312,0.0191079145052095,-0.0213998309393317,-0.0072126391802616
1493477849.3,40.4560434555406,-79.915307669251,6.21999979019165,-0.0499420166015625,-0.915618896484375,0.289886474609375,0.00599557456209539,-0.0308849454777579,0.0118694426623742
1493477849.5,40.4560434555406,-79.915307669251,6.21999979019165,-0.054290771484375,-0.850006103515625,0.200332641601562,-0.0359172546735717,-0.0029611688160591,-0.0227505862442199
1493477849.7,40.4560434555406,-79.915307669251,6.21999979019165,-0.0811920166015625,-0.973907470703125,0.254119873046875,-0.022617694505825,-0.0147432597946787,0.0104686199289925
1493477849.9,40.4560434555406,-79.915307669251,6.21999979019165,-0.0228729248046875,-0.892715454101562,0.23040771484375,0.0534863947009334,-0.0386355431982155,0.0390310226200923
1493477850.1,40.4560434555406,-79.915307669251,6.21999979019165,-0.0770111083984375,-0.924560546875,0.284912109375,-0.0262867315396271,0.00335851245069893,-0.0226682945665365
1493477850.3,40.4560883490463,-79.9153733339238,7.15000009536743,-0.06201171875,-0.937164306640625,0.257278442382812,0.0268286848214582,0.00833356368307595,-0.0104089651205747
1493477850.5,40.4560883490463,-79.9153733339238,7.15000009536743,-0.0176239013671875,-0.965438842773438,0.275955200195312,0.00985689182660128,-0.00645017616017191,-0.0233391448451274
1493477850.7,40.4560883490463,-79.9153733339238,7.15000009536743,0.020172119140625,-0.949508666992188,0.276107788085938,-0.00726137502821005,0.0138745366470948,-0.00650743412360862
1493477850.9,40.4560883490463,-79.9153733339238,7.15000009536743,-0.10430908203125,-0.915695190429688,0.3238525390625,-0.0166279788981277,-0.106252936959218,0.0672754438770367
1493477851.1,40.4560883490463,-79.9153733339238,7.15000009536743,-0.067352294921875,-0.9481201171875,0.223770141601562,-0.00841479009632337,0.0638697934750433,-0.0503630393744885
1493477851.3,40.4561149832751,-79.9154122911825,8.09000015258789,0.02587890625,-0.930862426757812,0.307968139648438,-0.0732542405242646,0.0866302334152965,-0.0468207688085741
1493477851.5,40.4561149832751,-79.9154122911825,8.09000015258789,-0.0390472412109375,-0.944305419921875,0.3046875,0.0248616740403257,0.0104720820384096,-0.0210967632072807
1493477851.7,40.4561149832751,-79.9154122911825,8.09000015258789,0.0149078369140625,-0.994155883789062,0.246063232421875,0.0774902645541446,0.0377835979654992,-0.0387540538667241
1493477851.9,40.4561149832751,-79.9154122911825,8.09000015258789,0.064117431640625,-1.0225830078125,0.254791259765625,0.0917099468785137,0.0334314601120917,-0.0684512294983067
1493477852.1,40.4561149832751,-79.9154122911825,8.09000015258789,0.106155395507812,-0.88873291015625,0.123992919921875,-0.04853184980895,-0.154968811199493,0.115054151729712
1493477852.3,40.4561919872196,-79.9155239452029,8.97000026702881,-0.137435913085938,-0.962020874023438,0.241973876953125,-0.0111019196362133,-0.0754406957792196,0.0693849337764884
1493477852.5,40.4561919872196,-79.9155239452029,8.97000026702881,-0.142593383789062,-0.9798583984375,0.219573974609375,-0.0155083859758584,0.100081327449069,-0.0569263998809888
1493477852.7,40.4561919872196,-79.9155239452029,8.97000026702881,-0.0385284423828125,-0.944381713867188,0.253005981445312,-0.00342189568464281,-0.0361446886306644,-0.00314039955742144
1493477852.9,40.4561919872196,-79.9155239452029,8.97000026702881,0.0451202392578125,-0.952926635742188,0.20147705078125,-0.00191321492711292,0.0808471791081895,-0.0492740728047551
1493477853.1,40.4561919872196,-79.9155239452029,8.97000026702881,-0.0200042724609375,-1.01683044433594,0.169403076171875,-0.0221702834426916,0.00971627692104509,-0.00878177369453629
1493477853.3,40.4562406348078,-79.9155944704443,9.71000003814697,-0.0328521728515625,-0.936965942382812,0.225006103515625,0.017139572143532,0.00201494768075395,-0.00622700326082327
1493477853.5,40.4562406348078,-79.9155944704443,9.71000003814697,0.069732666015625,-0.93316650390625,0.139053344726562,0.00957246622218081,0.081838940298135,-0.0320996132509431
1493477853.7,40.4562406348078,-79.9155944704443,9.71000003814697,-0.027496337890625,-0.994735717773438,0.20672607421875,-0.0306242220070392,0.0182810029867399,-0.00889043066701152
1493477853.9,40.4562406348078,-79.9155944704443,9.71000003814697,-0.145416259765625,-0.979507446289062,0.195877075195312,0.0615781433570302,-0.0876185324958249,0.0435051332514254
1493477854.1,40.4562406348078,-79.9155944704443,9.71000003814697,0.010467529296875,-1.01866149902344,0.170150756835938,0.0738246896297595,0.0218557641179533,-0.0131613421071716
1493477854.3,40.4563010037262,-79.9156819882988,10.0100002288818,-0.00531005859375,-0.906753540039062,0.272705078125,-0.030617564104314,0.0172170701312533,-0.00995383089028016
1493477854.5,40.4563010037262,-79.9156819882988,10.0100002288818,-0.061370849609375,-0.919265747070312,0.235504150390625,0.00111133712289007,0.00424747562256738,-0.00106579706824971
1493477854.7,40.4563010037262,-79.9156819882988,10.0100002288818,0.0863189697265625,-1.02281188964844,0.215057373046875,0.0124124612086413,0.0541655007789036,-0.0213369803376058
1493477854.9,40.4563010037262,-79.9156819882988,10.0100002288818,-0.0080413818359375,-0.914291381835938,0.259506225585938,-0.0529734698749841,-0.0400709870257683,0.0358123261266225
1493477855.1,40.4563010037262,-79.9156819882988,10.0100002288818,-0.0256805419921875,-0.943161010742188,0.228790283203125,-0.00308234264565771,-0.00849175545182666,-0.012804212204992
1493477855.3,40.4563699406275,-79.9157819273046,10.6000003814697,-0.0381011962890625,-0.988739013671875,0.197601318359375,-0.0691090302875562,0.0291712013162919,0.0077468692949315
1493477855.5,40.4563699406275,-79.9157819273046,10.6000003814697,-0.015716552734375,-0.941390991210938,0.143417358398438,-0.00165941567522837,0.0255367853766608,-0.0203409580899162
1493477855.7,40.4563699406275,-79.9157819273046,10.6000003814697,0.0428466796875,-1.03105163574219,0.103363037109375,-0.00606082200880233,0.00854608393806428,-0.0192759599699935
1493477855.9,40.4563699406275,-79.9157819273046,10.6000003814697,-0.110183715820312,-0.92120361328125,0.18792724609375,-0.0395047989780174,-0.0741962006018256,0.0445680008424761
1493477856.1,40.4563699406275,-79.9157819273046,10.6000003814697,-0.014129638671875,-0.953262329101562,0.1236572265625,-0.0383857386879661,0.080023729699137,-0.0304535133811651
1493477856.3,40.4564321758796,-79.9158722146866,10.8400001525879,-0.0223236083984375,-0.981399536132812,0.136459350585938,0.010586065333065,-0.00432337571363464,0.002251969017771
1493477856.5,40.4564321758796,-79.9158722146866,10.8400001525879,-0.0314788818359375,-0.927352905273438,0.149917602539062,-0.0210221946967585,-0.0253855178267443,0.0435650543759522
1493477856.7,40.4564321758796,-79.9158722146866,10.8400001525879,-0.066558837890625,-1.0115966796875,0.134170532226562,0.00170868415539484,-0.00532525691572244,0.0277528017197157
1493477856.9,40.4564321758796,-79.9158722146866,10.8400001525879,-0.0226287841796875,-0.971221923828125,0.0438232421875,0.00638839082288208,0.0116603845168029,0.00643259929697739
1493477857.1,40.4564321758796,-79.9158722146866,10.8400001525879,-0.0916290283203125,-0.973922729492188,0.1119384765625,-0.0294883838021204,0.089535742164573,-0.0527774612187543
1493477857.3,40.4565008981648,-79.9159720778412,10.6000003814697,0.0261383056640625,-1.01768493652344,0.0526275634765625,0.0307720274475386,-0.00445413692315753,0.00565761941976433
1493477857.5,40.4565008981648,-79.9159720778412,10.6000003814697,-0.0446929931640625,-1.01937866210938,0.083465576171875,-0.068966551169237,0.0110838101408008,-0.0124630612693528
1493477857.7,40.4565008981648,-79.9159720778412,10.6000003814697,-0.064483642578125,-0.94366455078125,-0.0525360107421875,-0.00710611273665843,-0.0935608438361188,0.00123490779746974
1493477857.9,40.4565008981648,-79.9159720778412,10.6000003814697,-0.0406036376953125,-0.943984985351562,0.141189575195312,-0.0254297263008396,-0.0126018119621459,-0.0162210478835636
1493477858.1,40.4565008981648,-79.9159720778412,10.6000003814697,0.00872802734375,-0.9517822265625,0.117462158203125,-0.0301094329683269,-0.0646932428840959,-0.0140021020633096
1493477858.3,40.456556710407,-79.9160531808861,10.0100002288818,0.0382232666015625,-0.973861694335938,0.102737426757812,0.000739826150824012,-0.027660123713781,0.00860866822368114
1493477858.5,40.456556710407,-79.9160531808861,10.0100002288818,-0.119232177734375,-0.924667358398438,0.182083129882812,-0.0181989776251655,0.00650237411753747,0.0104590325490682
1493477858.7,40.456556710407,-79.9160531808861,10.0100002288818,-0.004150390625,-0.95379638671875,0.1885986328125,0.0119402827473703,0.064799769327699,-0.0586867493615311
1493477858.9,40.456556710407,-79.9160531808861,10.0100002288818,0.0691986083984375,-0.980056762695312,0.160430908203125,-0.0181755418075728,-0.0658248200312705,0.0468972015318594
1493477859.1,40.456556710407,-79.9160531808861,10.0100002288818,-0.0180511474609375,-0.925979614257812,0.172744750976562,0.0168333086181728,0.00414813971390742,0.0172210648728884
1493477859.3,40.4566200005533,-79.9161451503781,9.93000030517578,0.009033203125,-0.946395874023438,0.222503662109375,-0.0054514907513922,-0.00528211370606316,0.00635510130925609
1493477859.5,40.4566200005533,-79.9161451503781,9.93000030517578,-0.01654052734375,-0.951766967773438,0.237762451171875,0.00621661693257197,-0.0287613408245287,-0.00306077104082807
1493477859.7,40.4566200005533,-79.9161451503781,9.93000030517578,-0.0247039794921875,-0.96319580078125,0.195220947265625,-0.0199089933611054,0.0214019614682038,-0.0119874206986647
1493477859.9,40.4566200005533,-79.9161451503781,9.93000030517578,0.03265380859375,-0.975479125976562,0.158645629882812,0.0215604195530635,-0.0480024133842422,0.032331041949671
1493477860.1,40.4566200005533,-79.9161451503781,9.93000030517578,-0.034271240234375,-0.960617065429688,0.187881469726562,-0.0367201977422306,-0.0454990419595678,0.012536031883221
1493477860.3,40.4566785618051,-79.9162302481208,10.0799999237061,-0.0875701904296875,-0.858047485351562,0.177520751953125,0.003831489860297,-0.0510828918171369,0.00336969772727726
1493477860.5,40.4566785618051,-79.9162302481208,10.0799999237061,0.03485107421875,-0.9976806640625,0.237380981445312,-0.0231165045779968,0.0469544594952961,0.00284079393478752
1493477860.7,40.4566785618051,-79.9162302481208,10.0799999237061,-0.0926971435546875,-1.0133056640625,0.171981811523438,-0.0168626033901637,0.00755432274811877,-0.00872185257000951
1493477860.9,40.4566785618051,-79.9162302481208,10.0799999237061,-0.0312347412109375,-0.880325317382812,0.2437744140625,-0.00651276044578878,-0.0861125148993851,0.0396054664672224
1493477861.1,40.4566785618051,-79.9162302481208,10.0799999237061,-0.059112548828125,-1.02639770507812,0.1575927734375,0.00432816940359678,-0.00641182664047477,-0.00846885226645198
1493477861.3,40.4567419943479,-79.9163224245351,10.2399997711182,-0.00665283203125,-0.948989868164062,0.172714233398438,-0.0369327179972189,-0.00614657579590288,-0.0280838326432126
1493477861.5,40.4567419943479,-79.9163224245351,10.2399997711182,-0.0799102783203125,-0.944610595703125,0.172897338867188,-0.0410092186778032,0.0279197819200637,-0.0228824127181788
1493477861.7,40.4567419943479,-79.9163224245351,10.2399997711182,0.0191650390625,-0.990142822265625,0.16363525390625,0.00338327984883666,0.00955009566902415,-0.00851971864327249
1493477861.9,40.4567419943479,-79.9163224245351,10.2399997711182,-0.0691986083984375,-0.893447875976562,0.173492431640625,-0.00630370230021756,-0.0680315153105102,0.0342298758068975
1493477862.1,40.4567419943479,-79.9163224245351,10.2399997711182,0.0135955810546875,-0.984237670898438,0.097320556640625,-0.0109823437032688,0.0309134413014218,-0.0364434953049713
1493477862.3,40.4568037390136,-79.9164122721117,10.25,-0.0489349365234375,-0.965576171875,0.143661499023438,-0.0310583172647221,-0.00830639943995714,0.00823316250997996
1493477862.5,40.4568037390136,-79.9164122721117,10.25,-0.0129852294921875,-1.07673645019531,0.0535430908203125,-0.0316535337683548,-0.0582947320490715,0.0243492818465945
1493477862.7,40.4568037390136,-79.9164122721117,10.25,0.03424072265625,-0.959152221679688,0.109283447265625,-0.0782482002003812,0.0239063981573143,-0.0275181772276798
1493477862.9,40.4568037390136,-79.9164122721117,10.25,0.0280609130859375,-0.915847778320312,0.149612426757812,-0.0346767542378128,0.0438364304910313,-0.0100640857594094
1493477863.1,40.4568037390136,-79.9164122721117,10.25,-0.0110626220703125,-0.98126220703125,0.132827758789062,-0.0164511450017465,0.021376395121739,-0.0311438047357136
1493477863.3,40.4568640774735,-79.9165005008261,9.8100004196167,-0.041961669921875,-0.921783447265625,0.191085815429688,-0.0479374322536443,-0.0666956737077264,0.0423298802623735
1493477863.5,40.4568640774735,-79.9165005008261,9.8100004196167,0.02288818359375,-0.872283935546875,0.225082397460938,-0.202056162433184,0.0427874113376491,-0.074681694868547
1493477863.7,40.4568640774735,-79.9165005008261,9.8100004196167,0.065521240234375,-0.942550659179688,0.223251342773438,-0.116226741557674,0.225172400695072,-0.17663016455787
1493477863.9,40.4568640774735,-79.9165005008261,9.8100004196167,-0.0601043701171875,-0.8695068359375,0.229034423828125,-0.0778439323469071,-0.0016200008910952,0.00667068589843048
1493477864.1,40.4568640774735,-79.9165005008261,9.8100004196167,-0.144515991210938,-0.925888061523438,0.255584716796875,-0.0458750803054869,-0.154992247017086,0.076697707813737
1493477864.3,40.4569226496225,-79.9165861467875,9.72999954223633,-0.0164794921875,-0.972488403320312,0.19158935546875,-0.0218831946771811,-0.0275099214283005,0.0275685109722823
1493477864.5,40.4569226496225,-79.9165861467875,9.72999954223633,0.045440673828125,-0.971923828125,0.16455078125,-0.037442713345969,-0.0135839857721672,0.00498277439953825
1493477864.7,40.4569226496225,-79.9165861467875,9.72999954223633,0.04620361328125,-0.979293823242188,0.158554077148438,-0.0306993231497794,-0.0593634585945203,0.0318253076586649
1493477864.9,40.4569226496225,-79.9165861467875,9.72999954223633,-0.0002593994140625,-0.949462890625,0.206146240234375,-0.0287197955115235,0.00976075171124942,0.00287940977059367
1493477865.1,40.4569226496225,-79.9165861467875,9.72999954223633,0.0062408447265625,-0.90728759765625,0.227615356445312,-0.0221614950110944,-0.0275048614222294,0.0478237152750979
1493477865.3,40.4569822029182,-79.9166732274111,9.90999984741211,0.0868682861328125,-0.956817626953125,0.188186645507812,0.0121160513793155,0.0764985033641991,-0.0651124244396743
1493477865.5,40.4569822029182,-79.9166732274111,9.90999984741211,-0.0263214111328125,-0.944381713867188,0.211624145507812,0.0235806935559976,-0.0586523945834691,0.0345116382502278
1493477865.7,40.4569822029182,-79.9166732274111,9.90999984741211,-0.0998077392578125,-0.945465087890625,0.186080932617188,-0.0554033380535724,0.0109988553020273,0.00793408951956407
1493477865.9,40.4569822029182,-79.9166732274111,9.90999984741211,-0.00067138671875,-0.943496704101562,0.20880126953125,-0.0316197116225108,0.0236057272702444,-0.0110467922016487
1493477866.1,40.4569822029182,-79.9166732274111,9.90999984741211,-0.106185913085938,-0.944717407226562,0.182418823242188,0.0320412900230703,-0.0682810535046506,0.0335568949994344
1493477866.3,40.4570445072713,-79.9167643307137,10.3599996566772,-0.0269317626953125,-0.945205688476562,0.231063842773438,0.011157313386887,0.0424739572773467,-0.0138561608355733
1493477866.5,40.4570445072713,-79.9167643307137,10.3599996566772,0.0245361328125,-0.978271484375,0.2626953125,0.00427890092343031,0.00848243438801138,0.00322056070623282
1493477866.7,40.4570445072713,-79.9167643307137,10.3599996566772,0.0009307861328125,-0.873779296875,0.303085327148438,-0.0235372840302293,-0.028568527961607,-0.00763075547140404
1493477866.9,40.4570445072713,-79.9167643307137,10.3599996566772,0.0094146728515625,-1.00360107421875,0.2432861328125,0.0528917108295187,-0.0131056820403889,0.0187009834906454
1493477867.1,40.4570445072713,-79.9167643307137,10.3599996566772,0.00421142578125,-1.00384521484375,0.196578979492188,0.0501350727851777,-0.0322290428799209,0.0539071741531659
1493477867.3,40.4571085239591,-79.9168579378439,10.8000001907349,-0.0059814453125,-0.954864501953125,0.257354736328125,-0.0901826239933532,0.0080294306865889,-0.0201358946859801
1493477867.5,40.4571085239591,-79.9168579378439,10.8000001907349,-0.035552978515625,-0.972824096679688,0.144424438476562,0.0503055150949428,-0.0524445660824944,0.0305043797579856
1493477867.7,40.4571085239591,-79.9168579378439,10.8000001907349,-0.0127410888671875,-1.02401733398438,0.156982421875,0.0444111406542704,-0.0470929438719802,-0.00262241472540103
1493477867.9,40.4571085239591,-79.9168579378439,10.8000001907349,-0.04119873046875,-0.906082153320312,0.243438720703125,-0.00588105863522198,0.00322375649954092,-0.0352535949299239
1493477868.1,40.4571085239591,-79.9168579378439,10.8000001907349,-0.0549774169921875,-0.968582153320312,0.145645141601562,-0.0573911214912076,0.0663159069362811,-0.0498045744938989
1493477868.3,40.4571694554718,-79.9169470337379,11.0699996948242,0.0926513671875,-1.05514526367188,0.139450073242188,-0.077637537362426,0.0122057999080512,-0.000826378886251588
1493477868.5,40.4571694554718,-79.9169470337379,11.0699996948242,-0.06048583984375,-1.00027465820312,0.106735229492188,0.0173267923681645,-0.0660599771555245,0.0206059426183791
1493477868.7,40.4571694554718,-79.9169470337379,11.0699996948242,-0.076812744140625,-0.970993041992188,0.166397094726562,0.0259298679535565,-0.0235644482733481,0.03764378200827
1493477868.9,40.4571694554718,-79.9169470337379,11.0699996948242,-0.0044403076171875,-0.967376708984375,0.118682861328125,-0.0274705066441673,-0.0391724364739755,0.0403359715542311
1493477869.1,40.4571694554718,-79.9169470337379,11.0699996948242,-0.0095672607421875,-0.96875,0.123291015625,-0.00804833913032847,-0.0382379332474667,0.0224067721474907
1493477869.3,40.4572498483135,-79.9170612659939,11.0699996948242,-0.015960693359375,-0.937347412109375,0.15985107421875,-0.0750532058406131,-0.00269724955203225,0.0354898173186139
1493477869.5,40.4572498483135,-79.9170612659939,11.0699996948242,-0.0625,-1.00399780273438,0.1854248046875,0.059120311986996,-0.0344205581409471,0.018819760475263
1493477869.7,40.4572498483135,-79.9170612659939,11.0699996948242,-0.018524169921875,-0.94244384765625,0.112594604492188,0.0307746906086287,-0.000198938133428919,0.00777909354412145
1493477869.9,40.4572498483135,-79.9170612659939,11.0699996948242,-0.0870361328125,-0.986190795898438,0.12677001953125,-0.0396986771053752,-0.0518650622292932,-0.00666988695010345
1493477870.1,40.4572498483135,-79.9170612659939,11.0699996948242,-0.000640869140625,-1.00141906738281,0.09295654296875,-0.0182908566827732,-0.0349846156598259,-0.0054280549337995
1493477870.3,40.4573104323101,-79.9171469751448,10.6899995803833,-0.0379791259765625,-0.981216430664062,0.0611114501953125,0.0239908203638698,-0.0703617812643295,-0.00170522204597774
1493477870.5,40.4573104323101,-79.9171469751448,10.6899995803833,-0.0787200927734375,-0.9866943359375,0.0902862548828125,0.0265104370711938,-0.0320854984971657,-0.00924170161479297
1493477870.7,40.4573104323101,-79.9171469751448,10.6899995803833,0.04522705078125,-0.925994873046875,0.148162841796875,-0.0386334126693435,0.0821558564678544,-0.0112696987848883
1493477870.9,40.4573104323101,-79.9171469751448,10.6899995803833,-0.050140380859375,-0.967697143554688,0.107009887695312,0.00990296451345965,-0.0426081805962867,0.0311315541946993
1493477871.1,40.4573104323101,-79.9171469751448,10.6899995803833,0.0269317626953125,-0.9593505859375,0.142868041992188,0.0236984052761791,0.0168636686545998,-0.0104630272907033
1493477871.3,40.4573741388168,-79.9172358279261,10.0100002288818,-0.077789306640625,-0.88348388671875,0.206802368164062,0.0534355283241129,0.0528283275955748,-0.0624958686686715
1493477871.5,40.4573741388168,-79.9172358279261,10.0100002288818,0.0009613037109375,-0.954605102539062,0.11883544921875,-0.0245735200103791,0.0448284579970858,-0.0472806967288308
1493477871.7,40.4573741388168,-79.9172358279261,10.0100002288818,-0.00579833984375,-0.926788330078125,0.133087158203125,-0.0325699274994511,0.0310572520002861,-0.0153406068271834
1493477871.9,40.4573741388168,-79.9172358279261,10.0100002288818,-0.0099945068359375,-0.965576171875,0.142929077148438,-0.0637299775178142,-0.0506378775989847,0.0378618949015475
1493477872.1,40.4573741388168,-79.9172358279261,10.0100002288818,-0.159408569335938,-0.861160278320312,0.16473388671875,0.0559689934691053,0.152793008588898,-0.114972392684247
1493477872.3,40.4574344903592,-79.9173200014695,9.57999992370605,-0.100189208984375,-1.20689392089844,0.016754150390625,0.0602550849274788,-0.114202206496996,0.047825046855643
1493477872.5,40.4574344903592,-79.9173200014695,9.57999992370605,-0.16815185546875,-0.92889404296875,0.0850830078125,0.0783637813916906,0.122872660057967,-0.0560241209036699
1493477872.7,40.4574344903592,-79.9173200014695,9.57999992370605,0.108306884765625,-0.929092407226562,0.139633178710938,0.00168977571165528,0.055287490546154,-0.0928859988158927
1493477872.9,40.4574344903592,-79.9173200014695,9.57999992370605,-0.101699829101562,-0.93536376953125,0.1456298828125,0.0178535656317822,-0.0830781091533489,0.0505092469183338
1493477873.1,40.4574344903592,-79.9173200014695,9.57999992370605,-0.139297485351562,-0.941818237304688,0.142593383789062,-0.0290087484897971,-0.018956913271402,0.00828163204181941
1493477873.3,40.457492967762,-79.9174015611116,9.39999961853027,-0.01971435546875,-0.995925903320312,0.0643463134765625,0.00577506482383683,0.054211573465762,-0.00327941656632357
1493477873.5,40.457492967762,-79.9174015611116,9.39999961853027,0.015777587890625,-0.945846557617188,-0.178359985351562,-0.0151999919216273,0.0617909299281275,-0.0227055788217976
1493477873.7,40.457492967762,-79.9174015611116,9.39999961853027,0.00531005859375,-1.07341003417969,-0.149948120117188,-0.042650524857619,0.00772476505788384,0.0080731065284662
1493477873.9,40.457492967762,-79.9174015611116,9.39999961853027,-0.043853759765625,-1.06968688964844,-0.1793212890625,-0.0692634936307808,0.00470633827838803,0.00567599523128588
1493477874.1,40.457492967762,-79.9174015611116,9.39999961853027,-0.0529632568359375,-1.06536865234375,-0.178009033203125,0.0147456566396597,0.0520203245208448,-0.0373007668598678
1493477874.3,40.4575378829754,-79.9174708942696,7.53000020980835,-0.03399658203125,-0.993499755859375,-0.0977630615234375,-0.0388797550701758,0.0279059334823953,-0.0228605747972402
1493477874.5,40.4575378829754,-79.9174708942696,7.53000020980835,0.0533905029296875,-1.06193542480469,-0.114532470703125,-0.0484474276023945,-0.0741330836839907,0.0753964873051243
1493477874.7,40.4575378829754,-79.9174708942696,7.53000020980835,-0.103271484375,-1.01063537597656,-0.156402587890625,0.0186413286822276,-0.0926543038010558,0.0654690217096359
1493477874.9,40.4575378829754,-79.9174708942696,7.53000020980835,-0.126678466796875,-0.991943359375,-0.0771636962890625,-0.00863902826010804,-0.0063252739050472,0.00525894420457947
1493477875.1,40.4575378829754,-79.9174708942696,7.53000020980835,-0.0335540771484375,-1.06074523925781,-0.0927734375,0.0251266585687886,0.0711045368923526,-0.00738973939275187
1493477875.3,40.4574857180816,-79.9173914498326,4.6100001335144,0.0017242431640625,-1.003662109375,-0.08807373046875,0.022013689570595,0.0253799251884551,-0.0382238184936893
1493477875.5,40.4574857180816,-79.9173914498326,4.6100001335144,-0.0791778564453125,-0.97979736328125,-0.0157928466796875,-0.0261674219227916,-0.0328008235659609,0.0264720875514966
1493477875.7,40.4574857180816,-79.9173914498326,4.6100001335144,-0.03680419921875,-1.04405212402344,-0.059539794921875,0.00324080073051743,0.00423362718489897,-0.00104395914731106
1493477875.9,40.4574857180816,-79.9173914498326,4.6100001335144,-0.0302886962890625,-0.987701416015625,-0.0125274658203125,0.0128034132566649,0.0190650376116593,0.00861159770088022
1493477876.1,40.4574857180816,-79.9173914498326,4.6100001335144,-0.0178070068359375,-0.977249145507812,0.054840087890625,-0.0223993152964385,-0.00517292410136991,-0.000215982364405426
1493477876.3,40.4575904552128,-79.9175528951242,2.26999998092651,-0.038421630859375,-0.984390258789062,0.07769775390625,-0.00140428484279878,-0.0159440791301954,0.0160199792212627
1493477876.5,40.4575904552128,-79.9175528951242,2.26999998092651,-0.0491790771484375,-0.96478271484375,0.080780029296875,-0.0137909133888663,0.0107272128708392,0.00196354867171542
1493477876.7,40.4575904552128,-79.9175528951242,2.26999998092651,-0.0205078125,-0.970932006835938,0.17108154296875,0.00547545920120291,0.0084731133241961,-0.00636309079252632
1493477876.9,40.4575904552128,-79.9175528951242,2.26999998092651,-0.0291595458984375,-0.942214965820312,0.204635620117188,-0.0117533288388467,-0.00736976568457628,-0.00116752982189074
1493477877.1,40.4575904552128,-79.9175528951242,2.26999998092651,-0.040496826171875,-0.972518920898438,0.198638916015625,-0.018921493228904,0.0150135706453217,-0.00982839600293743
1493477877.3,40.4575984799665,-79.9175654119333,1.16999995708466,-0.045501708984375,-0.955337524414062,0.23370361328125,-0.00775006508823959,-0.0180309321603815,0.011695538243192
1493477877.5,40.4575984799665,-79.9175654119333,1.16999995708466,-0.0382080078125,-0.974655151367188,0.216293334960938,-0.0125464182114723,0.0170998910432898,-0.0076360817935842
1493477877.7,40.4575984799665,-79.9175654119333,1.16999995708466,-0.017425537109375,-0.968490600585938,0.1922607421875,-0.0237223737259898,-0.0200546682727327,0.0104710167739735
1493477877.9,40.4575984799665,-79.9175654119333,1.16999995708466,-0.03314208984375,-0.950531005859375,0.224456787109375,-0.010554107399984,0.00857804187114523,-0.00226262166213132
1493477878.1,40.4575984799665,-79.9175654119333,1.16999995708466,-0.0102386474609375,-0.964584350585938,0.184219360351562,-0.0231937362496091,0.00546720340182367,-0.0141123569324389
1493477878.3,40.4576058905263,-79.9175769707383,1.35000002384186,-0.0236968994140625,-0.974594116210938,0.151107788085938,-0.00241042710263072,-0.0276401500056054,0.00537772118919701
1493477878.5,40.4576058905263,-79.9175769707383,1.35000002384186,-0.0314178466796875,-0.99267578125,0.130599975585938,-0.043827109427216,-0.00715964227456902,0.00809947182325799
1493477878.7,40.4576058905263,-79.9175769707383,1.35000002384186,-0.045562744140625,-0.968063354492188,0.1217041015625,0.00197500026440276,-0.0127767816457642,0.00431804939145448
1493477878.9,40.4576058905263,-79.9175769707383,1.35000002384186,-0.0512237548828125,-0.967041015625,0.122879028320312,-0.0237223737259898,-0.0200546682727327,0.0104710167739735
1493477879.1,40.4576058905263,-79.9175769707383,1.35000002384186,-0.0679779052734375,-0.98455810546875,0.134262084960938,-0.0132148716450822,-0.0328871099852795,0.0138103544648239
1493477879.3,40.4576137231914,-79.9175891879324,1.28999996185303,-0.026641845703125,-0.977569580078125,0.151885986328125,-0.0103317334489624,0.0128292459192387,-0.016132098303155
1493477879.5,40.4576137231914,-79.9175891879324,1.28999996185303,-0.0027008056640625,-0.9671630859375,0.128265380859375,-0.0110822122441467,0.0351705043039134,-0.0268595774901032
1493477879.7,40.4576137231914,-79.9175891879324,1.28999996185303,-0.039459228515625,-0.965774536132812,0.1162109375,-0.0175598189635465,0.0330860481187084,-0.0215894480089454
1493477879.9,40.4576137231914,-79.9175891879324,1.28999996185303,-0.0183563232421875,-0.968795776367188,0.125839233398438,-0.0135765289211149,0.013914750379555,-0.0119032648082182
1493477880.1,40.4576137231914,-79.9175891879324,1.28999996185303,-0.0295257568359375,-0.978500366210938,0.127899169921875,-0.00330737975776941,-0.00529622845984058,0.00531087584583602
1493477880.3,40.4576186907305,-79.917596936175,0.779999971389771,-0.05670166015625,-0.97979736328125,0.115966796875,-0.00761424387264555,-0.0116505308207696,0.00528317897049919
1493477880.5,40.4576186907305,-79.917596936175,0.779999971389771,-0.0363006591796875,-0.975296020507812,0.10247802734375,-0.0117213709057658,-0.00311509952706569,-0.00117818246625105
1493477880.7,40.4576186907305,-79.917596936175,0.779999971389771,-0.0336456298828125,-0.977981567382812,0.10894775390625,-0.0138215397414022,-0.00310178372161529,-0.00333214715590714
1493477880.9,40.4576186907305,-79.917596936175,0.779999971389771,-0.03692626953125,-0.983108520507812,0.106185913085938,-0.0116215023648878,0.00432976730025083,-0.00439501474695777
1493477881.1,40.4576186907305,-79.917596936175,0.779999971389771,-0.0346221923828125,-0.982208251953125,0.126541137695312,-0.0137669449390556,0.00221628265916394,-0.00441152634571626
1493477881.3,40.4576209476593,-79.9176004564758,0.180000007152557,-0.02496337890625,-0.948348999023438,0.197677612304688,-0.0128020816761199,-0.00523550838698677,-0.00118377510454022
1493477881.5,40.4576209476593,-79.9176004564758,0.180000007152557,-0.045440673828125,-0.9691162109375,0.164825439453125,-0.0129525502777094,-0.0116156434104896,0.00629464755251129
1493477881.7,40.4576209476593,-79.9176004564758,0.180000007152557,-0.034820556640625,-0.971878051757812,0.17303466796875,-0.0149302137032022,-0.00309406055445406,-0.000144875963300311
1493477881.9,40.4576209476593,-79.9176004564758,0.180000007152557,-0.0383148193359375,-0.958694458007812,0.179092407226562,-0.00636708553416144,-0.00102265385859043,-0.00219497737044331
1493477882.1,40.4576209476593,-79.9176004564758,0.180000007152557,-0.033477783203125,-0.969436645507812,0.164047241210938,-0.0137842554861411,-0.00203864981445566,-0.00546693708571466
1493477882.3,40.4576208690346,-79.917600333839,0.0,-0.0288238525390625,-0.955047607421875,0.187667846679688,-0.0118052604801032,-0.0084326332756269,0.0020333234922755
1493477882.5,40.4576208690346,-79.917600333839,0.0,-0.03204345703125,-0.963180541992188,0.166671752929688,-0.00956927042887272,-0.00206554774146546,-0.0022250710907612
1493477882.7,40.4576208690346,-79.917600333839,0.0,-0.029541015625,-0.9617919921875,0.164779663085938,-0.00960522310358879,-0.00100108225376079,0.000970455901224874
1493477882.9,40.4576208690346,-79.917600333839,0.0,-0.03564453125,-0.96539306640625,0.174285888671875,-0.0159802981210205,-0.00308740265172886,-0.00122185830812835
1493477883.1,40.457620651209,-79.9175999940802,0.0,-0.0326995849609375,-0.965744018554688,0.169326782226562,-0.0106939233572132,-0.00418515765305952,0.000967526424025787
1493477883.3,40.457620651209,-79.9175999940802,0.0,-0.0308380126953125,-0.953598022460938,0.172439575195312,-0.00963718103666974,-0.00525574841127138,0.000981108545585191
1493477883.5,40.457620651209,-79.9175999940802,0.0,-0.0304412841796875,-0.964736938476562,0.17364501953125,-0.00747842265705151,-0.0052701294811578,-0.0011291803021936
1493477883.7,40.457620651209,-79.9175999940802,0.0,-0.0333709716796875,-0.960220336914062,0.177932739257812,-0.00855647026631558,-0.00313533955135029,0.000986701183874358
1493477883.9,40.457620651209,-79.9175999940802,0.0,-0.03240966796875,-0.96258544921875,0.172821044921875,-0.0127927606123046,-0.00204424245274482,-0.00012570120345174
1493477884.1,40.457620651209,-79.9175999940802,0.0,-0.029052734375,-0.962814331054688,0.167083740234375,-0.0128247185453856,-0.00629890861025541,-0.000115048559091423
1493477884.3,40.4576206566457,-79.9176000025601,0.0,-0.031890869140625,-0.959869384765625,0.172576904296875,-0.00642034875596303,-0.00421312084450535,-5.48611184556323e-05
1493477884.5,40.4576206566457,-79.9176000025601,0.0,-0.030426025390625,-0.959060668945312,0.171234130859375,-0.00966114948648045,-0.00844674802940432,0.000989098028855429
1493477884.7,40.4576206566457,-79.9176000025601,0.0,-0.0319671630859375,-0.960067749023438,0.176559448242188,-0.00958258623432312,6.23179695078542e-05,-9.82706442239239e-05
1493477884.9,40.4576206566457,-79.9176000025601,0.0,-0.03466796875,-0.96240234375,0.173721313476562,-0.008503207044514,5.51274345646402e-05,-0.00115341506811332
1493477885.1,40.4576206566457,-79.9176000025601,0.0,-0.031036376953125,-0.95855712890625,0.1746826171875,-0.013812218677587,8.94822126266624e-05,-0.00227407325481866
1493477885.3,40.4576199585686,-79.917598913717,0.0,-0.0343017578125,-0.962493896484375,0.172225952148438,-0.00854049129977511,-0.00100800647259499,0.000981374861694199
1493477885.5,40.4576199585686,-79.917598913717,0.0,-0.027862548828125,-0.960708618164062,0.170318603515625,-0.00747043317378127,-0.00420646294178016,-0.00113184346328368
1493477885.7,40.4576199585686,-79.917598913717,0.0,-0.0335540771484375,-0.961273193359375,0.169815063476562,-0.00750771742904238,-0.00526959684893979,0.00100294646652384
1493477885.9,40.4576199585686,-79.917598913717,0.0,-0.0316009521484375,-0.962738037109375,0.172378540039062,-0.00960655468413383,-0.00312868164862509,-9.02811609536862e-05
1493477886.1,40.4576199585686,-79.917598913717,0.0,-0.0323028564453125,-0.964385986328125,0.1741943359375,-0.0117133814224955,-0.00205143298768804,-0.00118084562734113
1493477886.3,40.4576203235127,-79.9175994829477,0.0,-0.0285797119140625,-0.965728759765625,0.176727294921875,-0.0138295292246725,-0.00416545026099294,-0.00332948399481706
1493477886.5,40.4576203235127,-79.9175994829477,0.0,-0.0307769775390625,-0.958816528320312,0.172988891601562,-0.00854981236359039,-0.00419927240683694,-7.66990393942821e-05
1493477886.7,40.4576203235127,-79.9175994829477,0.0,-0.0323333740234375,-0.96148681640625,0.174423217773438,-0.00644431720577374,-0.0074041204626383,-4.68716351853946e-05
1493477886.9,40.4576203235127,-79.9175994829477,0.0,-0.036041259765625,-0.960891723632812,0.171066284179688,-0.0117133814224955,-0.00205143298768804,-0.00118084562734113
1493477887.1,40.4576203235127,-79.9175994829477,0.0,-0.037933349609375,-0.96435546875,0.16497802734375,-0.00959057571759335,-0.00100134856986979,-9.56074831338447e-05
1493477887.3,40.4576203289348,-79.917599491405,0.0,-0.032440185546875,-0.963699340820312,0.180633544921875,-0.00854182288032015,-0.0031356058674593,-7.93622004843613e-05
1493477887.5,40.4576203289348,-79.917599491405,0.0,-0.0178375244140625,-0.963409423828125,0.173751831054688,-0.0104262756676602,0.0138947766713794,-0.00867231777373403
1493477887.7,40.4576203289348,-79.917599491405,0.0,-0.036163330078125,-0.95794677734375,0.170822143554688,-0.0107778129315507,-0.00950269140162074,0.00417903238255234
1493477887.9,40.4576203289348,-79.917599491405,0.0,-0.03558349609375,-0.960479736328125,0.176101684570312,-0.0117440077750314,-0.00417849975033432,-0.000109455920802257
1493477888.1,40.4576203289348,-79.917599491405,0.0,-0.0346832275390625,-0.963470458984375,0.175018310546875,-0.00963851261721478,-0.00738334780613568,-7.96285165933692e-05
1493477888.3,40.4576203343602,-79.9175994998674,0.0,-0.038543701171875,-0.959335327148438,0.169235229492188,-0.00857910713558126,-0.00419873977461893,0.00205542772932316
1493477888.5,40.4576203343602,-79.9175994998674,0.0,-0.0322418212890625,-0.958084106445312,0.173812866210938,-0.010619354846691,-0.00205888983874026,-0.00330205343558925
1493477888.7,40.4576203343602,-79.9175994998674,0.0,-0.030517578125,-0.958831787109375,0.169174194335938,-0.0138428450301229,-0.00203758455001963,-0.00120268354827978
1493477888.9,40.4576203343602,-79.9175994998674,0.0,-0.032867431640625,-0.958999633789062,0.17559814453125,-0.00749440162359198,-0.0073974625599131,-0.00112385398001344
1493477889.1,40.4576203343602,-79.9175994998674,0.0,-0.0330352783203125,-0.9605712890625,0.17462158203125,-0.00958391781486815,-0.00206528142535645,-0.00115900770640248
1493477889.3,40.4576203397852,-79.9175995083291,0.0,-0.0341339111328125,-0.961532592773438,0.170135498046875,-0.00642034875596303,-0.00421312084450535,-5.48611184556323e-05
1493477889.5,40.4576203397852,-79.9175995083291,0.0,-0.0301513671875,-0.95745849609375,0.170730590820312,-0.00956793884832768,6.20516533988463e-05,-0.00116433402858264
1493477889.7,40.4576203397852,-79.9175995083291,0.0,-0.029296875,-0.963455200195312,0.1683349609375,-0.00851918601105447,-0.00207220564419066,-0.00114808874593316
1493477889.9,40.4576203397852,-79.9175995083291,0.0,-0.0269775390625,-0.963226318359375,0.165130615234375,-0.0117666446442971,-0.00524189997360296,0.000959270624646542
1493477890.1,40.4576203397852,-79.9175995083291,0.0,-0.0366058349609375,-0.964248657226562,0.181411743164062,-0.0170916352439105,-0.00733487827429624,-0.000156061239878643
1493477890.3,40.4576203452148,-79.917599516798,0.0,-0.032806396484375,-0.962646484375,0.164596557617188,-0.00636708553416144,-0.00102265385859043,-0.00219497737044331
1493477890.5,40.4576203452148,-79.917599516798,0.0,-0.0291595458984375,-0.957366943359375,0.175018310546875,-0.0116987340365001,-0.00205169930379704,-0.00224690901169985
1493477890.7,40.4576203452148,-79.917599516798,0.0,-0.030059814453125,-0.961502075195312,0.162765502929688,-0.00532232743852336,0.00216222048903533,0.00100614225983194
1493477890.9,40.4576203452148,-79.917599516798,0.0,-0.0303802490234375,-0.96044921875,0.175018310546875,-0.0128167290621153,-0.00523524207087777,-0.000117711720181502
1493477891.1,40.4576203452148,-79.917599516798,0.0,-0.0326690673828125,-0.96734619140625,0.178466796875,-0.0159949455070159,-0.00308713633561985,-0.000155794923769635
1493477891.3,40.457620237276,-79.9175993484378,0.0,-0.0324859619140625,-0.963287353515625,0.167770385742188,-0.00220669527923966,-0.00636761816637946,0.00212626781431926
1493477891.5,40.457620237276,-79.9175993484378,0.0,-0.0388641357421875,-0.963668823242188,0.178314208984375,-0.00428955356779063,-0.00209936988730946,0.00102771386466158
1493477891.7,40.457620237276,-79.9175993484378,0.0,-0.0318756103515625,-0.960052490234375,0.174468994140625,-0.0138588239966633,-0.00416491762877492,-0.00119735722609963
1493477891.9,40.457620237276,-79.9175993484378,0.0,-0.0339508056640625,-0.957916259765625,0.168121337890625,-0.0107085707432086,-0.00418489133695051,0.00203358980838451
1493477892.1,40.457620237276,-79.9175993484378,0.0,-0.0337066650390625,-0.961257934570312,0.175430297851562,-0.0106646285852223,-0.00418569028527754,-0.00116460034469165
1493477892.3,40.4576202427054,-79.9175993569064,0.0,-0.0311279296875,-0.963714599609375,0.17694091796875,-0.0117440077750314,-0.00417849975033432,-0.000109455920802257
1493477892.5,40.4576202427054,-79.9175993569064,0.0,-0.0395050048828125,-0.9599609375,0.177032470703125,-0.0106406601354116,-0.000994690667144596,-0.00117258982796189
1493477892.7,40.4576202427054,-79.9175993569064,0.0,-0.02783203125,-0.954544067382812,0.234237670898438,0.0042549324736196,-0.00641049505992973,-0.00313853534465838
1493477892.9,40.4576202427054,-79.9175993569064,0.0,-0.0232696533203125,-0.945571899414062,0.258316040039062,-0.00648160146103485,-0.00846725436979793,0.00208791829462212
1493477893.1,40.4576202427054,-79.9175993569064,0.0,-0.027191162109375,-0.939376831054688,0.28021240234375,-0.00323946914997239,-0.00210602779003466,0.00210469620948962
1493477893.3,40.4576202481348,-79.9175993653751,0.0,-0.0306549072265625,-0.93731689453125,0.30548095703125,-0.00436545365885789,-0.00635323709649303,0.00423655666209805
1493477893.5,40.4576202481348,-79.9175993653751,0.0,-0.035369873046875,-0.930908203125,0.320098876953125,-0.00309965319274323,-0.00104475809563809,-0.00749253741082893
1493477893.7,40.4576202481348,-79.9175993653751,0.0,-0.0050048828125,-0.927780151367188,0.365829467773438,-0.0129165976029933,-0.0126801088981943,0.00309912056052521
1493477893.9,40.4576202481348,-79.9175993653751,0.0,-0.0247650146484375,-0.911468505859375,0.406951904296875,-0.0181244091146433,-0.00307328789795144,-0.000177632844708285
1493477894.1,40.4576202481348,-79.9175993653751,0.0,0.001434326171875,-0.927398681640625,0.355819702148438,-0.0213279255898996,-0.00624378117569077,-0.00126846362720474
1493477894.3,40.4576316269523,-79.9176171137687,1.4099999666214,-0.0300445556640625,-0.931777954101562,0.350372314453125,-0.00516386935366364,0.00960602205191581,-0.00647494355830965
1493477894.5,40.4576316269523,-79.9176171137687,1.4099999666214,0.0158843994140625,-0.9034423828125,0.36822509765625,-0.0352972707718012,-0.0114705011310803,0.00499928599829675
1493477894.7,40.4576316269523,-79.9176171137687,1.4099999666214,-0.0308380126953125,-0.920928955078125,0.385650634765625,-0.0249775215477442,-0.0434481416040977,0.0115847507418447
1493477894.9,40.4576316269523,-79.9176171137687,1.4099999666214,0.004730224609375,-0.90142822265625,0.375869750976562,-0.0280073999199273,0.0363430941318753,-0.0344993877092135
1493477895.1,40.4576316269523,-79.9176171137687,1.4099999666214,-0.0448150634765625,-0.927459716796875,0.387664794921875,-0.0190879407970339,0.00650610254306358,-0.00234464702370576
1493477895.3,40.4576461328728,-79.9176397397389,3.1800000667572,-0.0383453369140625,-0.931686401367188,0.388916015625,0.000414920497834345,-0.0436113933789196,0.0235735030210544
1493477895.5,40.4576461328728,-79.9176397397389,3.1800000667572,-0.0369873046875,-0.97955322265625,0.32666015625,-0.0500296116060106,-0.0656186913628984,0.0401732524116273
1493477895.7,40.4576461328728,-79.9176397397389,3.1800000667572,-0.200515747070312,-0.977935791015625,0.288818359375,0.0173907082343264,-0.0575506448405033,0.0205846373296585
1493477895.9,40.4576461328728,-79.9176397397389,3.1800000667572,0.004302978515625,-0.978179931640625,0.35406494140625,0.0619573774962574,0.0474538021996859,-0.0655933913325426
1493477896.1,40.4576461328728,-79.9176397397389,3.1800000667572,0.044097900390625,-0.906509399414062,0.3603515625,-0.00942679131055348,-0.00845100908714845,-0.0160679161208841
1493477896.3,40.4576693335069,-79.9176759275048,4.76000022888184,-0.00830078125,-0.952392578125,0.260269165039062,-0.0900033932519909,-0.0260033711996427,0.0258009709567967
1493477896.5,40.4576693335069,-79.9176759275048,4.76000022888184,0.01611328125,-0.969467163085938,0.333480834960938,-0.0650050990477441,-0.0474356927042734,0.0549000006075475
1493477896.7,40.4576693335069,-79.9176759275048,4.76000022888184,-0.088714599609375,-0.895523071289062,0.350601196289062,0.00721130759971656,0.0393045292640434,-0.0384113050344309
1493477896.9,40.4576693335069,-79.9176759275048,4.76000022888184,0.05059814453125,-0.921371459960938,0.371109008789062,0.0189348090343544,-0.00543950652648684,0.0140686810905616
1493477897.1,40.457703224085,-79.9177278888722,6.28000020980835,-0.0260772705078125,-0.935775756835938,0.321914672851562,-0.0121288345525479,-0.010554373716093,0.0244259808859888
1493477897.3,40.457703224085,-79.9177278888722,6.28000020980835,-0.035614013671875,-0.927352905273438,0.30633544921875,-0.0361462865273185,-0.0178503698384741,-0.014184794914089
1493477897.5,40.457703224085,-79.9177278888722,6.28000020980835,0.000946044921875,-1.05546569824219,0.2830810546875,-0.0316223747836009,0.0193505284805157,-0.0131682663260058
1493477897.7,40.457703224085,-79.9177278888722,6.28000020980835,-0.0774078369140625,-0.886306762695312,0.352874755859375,-0.00968911267792628,-0.006318616002322,0.00418196185975143
1493477897.9,40.457703224085,-79.9177278888722,6.28000020980835,-0.142486572265625,-0.93829345703125,0.141311645507812,-0.0636873669403729,-0.0644682057719841,0.0272358821521314
1493477898.1,40.457703224085,-79.9177278888722,6.28000020980835,-0.0208587646484375,-0.928329467773438,0.285598754882812,-0.084730334293634,-0.0366751903198082,0.0237500706013266
1493477898.3,40.4577481012099,-79.9177958795985,7.51999998092651,0.0247955322265625,-0.985733032226562,0.328079223632812,-0.070243803228039,0.0738470601829162,-0.0403596736879328
1493477898.5,40.4577481012099,-79.9177958795985,7.51999998092651,0.04742431640625,-0.972305297851562,0.221511840820312,0.0188194941591539,0.0371026276747659,-0.0318894898409358
1493477898.7,40.4577481012099,-79.9177958795985,7.51999998092651,-0.008026123046875,-0.91424560546875,0.227081298828125,-0.0157486031061836,0.0277589269902229,-0.00129908997974065
1493477898.9,40.4577481012099,-79.9177958795985,7.51999998092651,-0.052337646484375,-0.921539306640625,0.246795654296875,-0.0142396560325447,-0.00415799340994071,0.0265202907672271
1493477899.1,40.4577481012099,-79.9177958795985,7.51999998092651,0.0018768310546875,-0.955169677734375,0.146209716796875,-0.016099607737856,0.0447738631947392,-0.043995154892
1493477899.3,40.4577908255585,-79.9178589511344,8.22999954223633,0.01123046875,-0.94769287109375,0.175201416015625,-0.0545569854591453,0.0014215953898843,0.0186296107734313
1493477899.5,40.4577908255585,-79.9178589511344,8.22999954223633,-0.01751708984375,-0.898056030273438,0.202529907226562,-0.0509686422063725,-0.000733967196425838,-0.0111820807850247
1493477899.7,40.4577908255585,-79.9178589511344,8.22999954223633,0.0405426025390625,-1.00909423828125,0.149246215820312,-0.0205295098950938,-0.0339049701539078,0.00307595105904152
1493477899.9,40.4577908255585,-79.9178589511344,8.22999954223633,-0.02362060546875,-0.974716186523438,0.161834716796875,0.0223700205244476,-0.0299323327558366,-0.0167531474693615
1493477900.1,40.4577908255585,-79.9178589511344,8.22999954223633,-0.0334320068359375,-0.945648193359375,0.144134521484375,-0.000647947093216279,0.0223393941719117,-0.0181899228774592
1493477900.3,40.4578426687622,-79.9179349864913,8.51000022888184,-0.019134521484375,-0.977310180664062,0.150558471679688,0.0192810199760647,-0.00225436586275208,-0.00939270284860047
1493477900.5,40.4578426687622,-79.9179349864913,8.51000022888184,-0.0987548828125,-0.967803955078125,0.153396606445312,-0.020099942011264,-0.05411277018932,0.0383175617640601
1493477900.7,40.4578426687622,-79.9179349864913,8.51000022888184,-0.0482635498046875,-0.909881591796875,0.165420532226562,0.0118904816349858,0.00417583658924425,-0.0105511779227849
1493477900.9,40.4578426687622,-79.9179349864913,8.51000022888184,0.0084228515625,-0.957504272460938,0.181350708007812,-0.0194655770396072,0.0394786999993346,-0.0344200255087291
1493477901.1,40.4578426687622,-79.9179349864913,8.51000022888184,0.009674072265625,-0.999710083007812,0.118576049804688,0.0125637287585578,-0.0245468883994784,0.00232440699942116
1493477901.3,40.4578926595439,-79.9180083050105,8.39999961853027,-0.117630004882812,-0.934219360351562,0.171035766601562,0.0377625589928876,-0.104480070621553,0.0624966676169985
1493477901.5,40.4578926595439,-79.9180083050105,8.39999961853027,0.0027618408203125,-1.00152587890625,0.2027587890625,-0.0223726836855377,-0.0328325151829329,-0.0172037543258029
1493477901.7,40.4578926595439,-79.9180083050105,8.39999961853027,-0.0750579833984375,-0.968429565429688,0.159027099609375,-0.00910374987032687,-0.0584436027540069,0.010719756019787
1493477901.9,40.4578926595439,-79.9180083050105,8.39999961853027,-0.0754852294921875,-0.984054565429688,0.132949829101562,-0.00746643843214615,-0.0329294542466118,-0.0170508888792323
1493477902.1,40.4578926595439,-79.9180083050105,8.39999961853027,-0.0074005126953125,-0.983673095703125,0.1947021484375,-0.00676469548491027,0.0234398123343324,-0.0374472407198222
1493477902.3,40.4579435151608,-79.9180828919323,8.18000030517578,-0.0361785888671875,-0.96783447265625,0.145492553710938,0.016704145305304,-0.0384019839706156,0.00346876731982821
1493477902.5,40.4579435151608,-79.9180828919323,8.18000030517578,-0.0570068359375,-0.949752807617188,0.124847412109375,-0.000376837294246212,-0.0404179969158056,0.00543151704321661
1493477902.7,40.4579435151608,-79.9180828919323,8.18000030517578,-0.0820159912109375,-0.960800170898438,0.135910034179688,-0.0148729557397655,-0.00522272521375439,-0.00546986656291375
1493477902.9,40.4579435151608,-79.9180828919323,8.18000030517578,0.0177001953125,-1.0096435546875,0.119232177734375,-0.0561431642043965,0.0152551193561919,-0.01340874977244
1493477903.1,40.4579435151608,-79.9180828919323,8.18000030517578,-0.0588531494140625,-0.943099975585938,0.145492553710938,-0.0408965669636928,-0.042281410730534,0.00822011302063858
1493477903.3,40.4579913740492,-79.9181530837297,7.84999990463257,0.0039520263671875,-0.961135864257812,0.148147583007812,-0.041643051017242,-0.0135573541612664,0.000674845020226079
1493477903.5,40.4579913740492,-79.9181530837297,7.84999990463257,-0.0117645263671875,-0.945388793945312,0.1553955078125,0.00289592136935216,-0.0202277737435878,0.0107439907857067
1493477903.7,40.4579913740492,-79.9181530837297,7.84999990463257,-0.01470947265625,-0.996688842773438,0.149871826171875,-0.0291645434135667,-0.0455493757041703,0.00515002091599523
1493477903.9,40.4579913740492,-79.9181530837297,7.84999990463257,-0.025604248046875,-0.983352661132812,0.177230834960938,0.0286785165146273,0.00619717585661439,0.00880734004100105
1493477904.1,40.4579913740492,-79.9181530837297,7.84999990463257,-0.018524169921875,-1.01863098144531,0.110641479492188,0.0524448323986034,0.00284718552140371,-0.0175960379543715
1493477904.3,40.458037501166,-79.9182207356405,7.6100001335144,-0.061981201171875,-0.982818603515625,0.161956787109375,0.0184727505852256,-0.0416007067559098,0.0280180525642876
1493477904.5,40.458037501166,-79.9182207356405,7.6100001335144,-0.0552825927734375,-0.963943481445312,0.17041015625,-0.0436313670870952,-0.0103546366343371,-0.00788348945885256
1493477904.7,40.458037501166,-79.9182207356405,7.6100001335144,-0.0066986083984375,-0.969406127929688,0.135299682617188,0.0280992789775351,-0.0416638236737446,0.0249181330554354
1493477904.9,40.458037501166,-79.9182207356405,7.6100001335144,-0.0451812744140625,-0.968475341796875,0.157196044921875,-0.000382962564753394,0.00105834021719749,-0.0490524978020605
1493477905.1,40.458037501166,-79.9182207356405,7.6100001335144,-0.07415771484375,-0.952102661132812,0.168914794921875,-0.0146612344331042,-0.00629038649476716,-0.0214581541672045
1493477905.3,40.4580844692031,-79.9182891571954,7.42999982833862,-0.0338287353515625,-0.946624755859375,0.140869140625,-0.0448638780395839,-0.00928085008281714,0.00489568903189266
1493477905.5,40.4580844692031,-79.9182891571954,7.42999982833862,0.005462646484375,-0.953842163085938,0.124832153320312,-0.0222754783057498,-0.0179409173155368,-0.0161749751967053
1493477905.7,40.4580844692031,-79.9182891571954,7.42999982833862,0.0250244140625,-0.9525146484375,0.158050537109375,0.000423442613322599,0.00956660726778264,-0.02560948967442
1493477905.9,40.4580844692031,-79.9182891571954,7.42999982833862,0.032012939453125,-0.996780395507812,0.136398315429688,0.00340671566642936,-0.0393732388201675,0.0406526214078416
1493477906.1,40.4580844692031,-79.9182891571954,7.42999982833862,-0.01458740234375,-0.957260131835938,0.210205078125,-0.0296154165861172,0.0225303428220704,-0.0024937840447502
1493477906.3,40.458128649574,-79.9183535107106,7.48000001907349,-0.011871337890625,-1.00482177734375,0.15887451171875,0.0404358400951091,0.0082478098959754,0.00678999551526603
1493477906.5,40.458128649574,-79.9183535107106,7.48000001907349,-0.01171875,-0.940673828125,0.17681884765625,-0.0109735552716715,0.0053942327879555,0.0265290791988243
1493477906.7,40.458128649574,-79.9183535107106,7.48000001907349,0.0414886474609375,-0.941604614257812,0.182891845703125,0.0439868990926208,0.028432973062122,-0.00815273504505957
1493477906.9,40.458128649574,-79.9183535107106,7.48000001907349,0.0209197998046875,-0.938232421875,0.147003173828125,0.00605283252553209,-0.00960975047744192,0.0192786231310836
1493477907.1,40.458128649574,-79.9183535107106,7.48000001907349,-0.03607177734375,-0.965087890625,0.226425170898438,-0.0441767824783434,0.0353867529844279,-0.0208016849584999
1493477907.3,40.4581733563621,-79.9184186310098,7.48999977111816,-0.052459716796875,-0.97540283203125,0.17962646484375,-0.00498730177339139,-0.00527811896442804,0.0500746190284329
1493477907.5,40.4581733563621,-79.9184186310098,7.48999977111816,-0.04302978515625,-0.952133178710938,0.211776733398438,-0.0141744085858377,-0.0052229915298634,0.0211926370065236
1493477907.7,40.4581733563621,-79.9184186310098,7.48999977111816,-0.0506591796875,-0.969757080078125,0.227890014648438,0.0248757887941031,-0.0533444482148322,0.0206504174085834
1493477907.9,40.4581733563621,-79.9184186310098,7.48999977111816,-0.0540924072265625,-1.00161743164062,0.180755615234375,-0.0424555814658252,0.0428145755807679,-0.0645180068843686
1493477908.1,40.4581733563621,-79.9184186310098,7.48999977111816,-0.0741119384765625,-0.965835571289062,0.209060668945312,-0.00458116970715431,-0.0350722336596895,0.00430846201153019
1493477908.3,40.4582191045545,-79.9184852682276,7.57999992370605,-0.072113037109375,-0.905654907226562,0.175674438476562,-0.00725125501606775,-0.068026721620548,0.0256904497715584
1493477908.5,40.4582191045545,-79.9184852682276,7.57999992370605,-0.042083740234375,-0.979736328125,0.196334838867188,-0.00409247964712477,0.0202370948074031,-0.00116033928694752
1493477908.7,40.4582191045545,-79.9184852682276,7.57999992370605,-0.0265350341796875,-0.9892578125,0.185714721679688,0.0566797911640474,-0.000371510972066054,-0.017544372629224
1493477908.9,40.4582191045545,-79.9184852682276,7.57999992370605,-0.256103515625,-0.954071044921875,0.134201049804688,0.0230174349854458,-0.0926841312052647,0.0569841904766435
1493477909.1,40.4582191045545,-79.9184852682276,7.57999992370605,0.0760498046875,-0.942703247070312,0.204971313476562,0.00304665628705065,-0.186160286518719,0.0644844510546336
1493477909.3,40.4582661341637,-79.9185537719682,7.8600001335144,-0.021270751953125,-1.03778076171875,0.240310668945312,0.127980869344848,-0.0348767576356777,-0.0327185318882775
1493477909.5,40.4582661341637,-79.9185537719682,7.8600001335144,-0.0990447998046875,-0.937408447265625,0.293197631835938,0.0746923475129073,-0.000487624795593509,-0.0109623699950932
1493477909.7,40.4582661341637,-79.9185537719682,7.8600001335144,0.001800537109375,-0.912307739257812,0.2364501953125,-0.00152093129854425,0.0244704556761931,-0.0309989287724133
1493477909.9,40.4582661341637,-79.9185537719682,7.8600001335144,-0.015106201171875,-0.95294189453125,0.1646728515625,0.0113738283835104,-0.0490053598507661,-0.00188951279341122
1493477910.1,40.4582661341637,-79.9185537719682,7.8600001335144,-0.128158569335938,-0.891754150390625,0.306610107421875,-0.0312500648632078,-0.0221324665552125,0.0146641639103033
1493477910.3,40.4583145195665,-79.9186242505699,8.23999977111816,-0.11602783203125,-0.95709228515625,0.29754638671875,-0.0267581110525711,-0.0125900940533496,0.00295717407442399
1493477910.5,40.4583145195665,-79.9186242505699,8.23999977111816,-0.0226593017578125,-0.931121826171875,0.221328735351562,0.0294881174860114,0.0476711161446364,-0.0275426783097085
1493477910.7,40.4583145195665,-79.9186242505699,8.23999977111816,-0.05035400390625,-0.95721435546875,0.309707641601562,0.0324154641562265,-0.0672240448679981,0.00690264722937638
1493477910.9,40.4583145195665,-79.9186242505699,8.23999977111816,-0.0101776123046875,-0.93798828125,0.163742065429688,-0.0193009936842403,-0.0179576952304043,-0.000151267549916501
1493477911.1,40.4583145195665,-79.9186242505699,8.23999977111816,0.019073486328125,-0.88360595703125,0.194915771484375,0.0406496919306425,-0.0406789867026333,0.0421035115697167
1493477911.3,40.4583733183859,-79.9187090957065,9.05000019073486,-0.035186767578125,-0.973114013671875,0.229461669921875,-0.0595530756641339,-0.00174117472069381,-0.00700251577025435
1493477911.5,40.4583733183859,-79.9187090957065,9.05000019073486,-0.111602783203125,-1.0587158203125,0.177810668945312,-0.0738467938668072,0.0408970995959108,-0.0285831753476024
1493477911.7,40.4583733183859,-79.9187090957065,9.05000019073486,-0.0593414306640625,-0.99639892578125,0.190582275390625,0.0231372772344994,-0.0650272032847918,0.0633113285944537
1493477911.9,40.4583733183859,-79.9187090957065,9.05000019073486,0.03302001953125,-0.934539794921875,0.190200805664062,0.0379029075823347,-0.016198677330407,0.02282036106478
1493477912.1,40.4583733183859,-79.9187090957065,9.05000019073486,0.0009002685546875,-0.93841552734375,0.22967529296875,-0.0100957773763814,-0.0988504143932341,0.0609259352060698
1493477912.3,40.4584244011981,-79.91878272148,9.53999996185303,-0.133560180664062,-0.94842529296875,0.309371948242188,-0.0156836219755856,0.175602717009318,-0.0805797977347455
1493477912.5,40.4584244011981,-79.91878272148,9.53999996185303,-0.0116729736328125,-0.950332641601562,0.211868286132812,0.0230105107666116,0.0338847301296232,-0.0286396343627121
1493477912.7,40.4584244011981,-79.91878272148,9.53999996185303,0.027130126953125,-0.961532592773438,0.150283813476562,-0.00571461106709203,0.0702408737508399,-0.0109019162383484
1493477912.9,40.4584244011981,-79.91878272148,9.53999996185303,-0.028289794921875,-1.01298522949219,0.30804443359375,0.0495097625612271,-0.0790378274635896,-0.00355398847471074
1493477913.1,40.4584244011981,-79.91878272148,9.53999996185303,-0.00048828125,-0.963912963867188,0.198104858398438,-0.0155382133800673,0.00115980665472951,-0.0310822857145328
1493477913.3,40.4584838019314,-79.918868335892,9.78999996185303,-0.006378173828125,-0.94500732421875,0.227188110351562,0.0181363933395486,0.0222216824517302,0.00972426640431533
1493477913.5,40.4584838019314,-79.918868335892,9.78999996185303,-0.0289154052734375,-0.949630737304688,0.249191284179688,-0.024803084496344,-0.0689827964518865,-0.0150029180009614
1493477913.7,40.4584838019314,-79.918868335892,9.78999996185303,-0.07318115234375,-0.974075317382812,0.247421264648438,-0.038954856212916,-0.0497385280988649,0.0178551635284363
1493477913.9,40.4584838019314,-79.918868335892,9.78999996185303,-0.0223541259765625,-0.949478149414062,0.189682006835938,0.0124425549289592,0.00417823343422532,0.0267719594902396
1493477914.1,40.4584838019314,-79.918868335892,9.78999996185303,-0.0491485595703125,-0.97113037109375,0.197906494140625,0.00147965230164802,-0.055320247427562,0.0172173364473623
1493477914.3,40.4585450812532,-79.9189566579181,10.1000003814697,-0.018341064453125,-0.9969482421875,0.170974731445312,-0.00743714366015528,-0.00952612721921343,-0.00644884457962688
1493477914.5,40.4585450812532,-79.9189566579181,10.1000003814697,0.0155487060546875,-0.921798706054688,0.211822509765625,-0.0112028534415273,0.0809041707555172,-0.0706936111361534
1493477914.7,40.4585450812532,-79.9189566579181,10.1000003814697,0.0007781982421875,-1.01364135742188,0.261245727539062,0.0538531119830373,0.0368759926660002,-0.0240667204549371
1493477914.9,40.4585450812532,-79.9189566579181,10.1000003814697,-0.0106658935546875,-0.930572509765625,0.229461669921875,0.0173134765627141,-0.052230181614743,0.0290998285990778
1493477915.1,40.4585450812532,-79.9189566579181,10.1000003814697,-0.125244140625,-0.94378662109375,0.217010498046875,-0.0211553527512624,-0.0860203695256684,0.0202634601021949
1493477915.3,40.458606187029,-79.9190447984891,10.3199996948242,0.0702056884765625,-0.932647705078125,0.206314086914062,-0.00519396307398154,0.0829971490562104,-0.0418497123178322
1493477915.5,40.458606187029,-79.9190447984891,10.3199996948242,0.00604248046875,-0.97119140625,0.280776977539062,0.0308359433137005,0.00405519539186366,0.0056363141310437
1493477915.7,40.458606187029,-79.9190447984891,10.3199996948242,-0.0255126953125,-0.916885375976562,0.223373413085938,-0.0514346953971364,-0.0198741059508253,0.0123192505704885
1493477915.9,40.458606187029,-79.9190447984891,10.3199996948242,-0.094024658203125,-1.02508544921875,0.26275634765625,-0.021007547310763,-0.0604915736322778,0.0233977343891092
1493477916.1,40.458606187029,-79.9190447984891,10.3199996948242,-0.0119476318359375,-0.971176147460938,0.26104736328125,-0.00652288045793108,-0.0159131864615505,0.00104049703789396
1493477916.3,40.458668921493,-79.9191356196417,10.4200000762939,-0.00347900390625,-0.961257934570312,0.211990356445312,-0.0511084581636017,-0.00179523689082241,-0.00158484716470615
1493477916.5,40.458668921493,-79.9191356196417,10.4200000762939,-0.0203094482421875,-0.920013427734375,0.243209838867188,0.0215010310607547,0.0136873164224622,-0.00727868557529557
1493477916.7,40.458668921493,-79.9191356196417,10.4200000762939,0.0386810302734375,-0.9656982421875,0.14935302734375,0.00593432185702357,-0.0351390790030505,0.0140122220754519
1493477916.9,40.458668921493,-79.9191356196417,10.4200000762939,-0.0577850341796875,-0.926010131835938,0.190170288085938,-0.0120023344007691,-0.0307690979703395,0.0042213766438846
1493477917.1,40.458668921493,-79.9191356196417,10.4200000762939,0.032196044921875,-0.96661376953125,0.199676513671875,0.0301986488648445,0.0317134548928816,-0.0104347977831485
1493477917.3,40.4587322217345,-79.9192272598746,10.3999996185303,-0.0331573486328125,-0.941024780273438,0.19000244140625,-0.0294042279116739,-0.0540555122258833,0.0179640868170205
1493477917.5,40.4587322217345,-79.9192272598746,10.3999996185303,-0.0609283447265625,-0.955810546875,0.22430419921875,0.00905128559685231,-0.0298393884337928,0.0225601702262792
1493477917.7,40.4587322217345,-79.9192272598746,10.3999996185303,-0.04400634765625,-0.96563720703125,0.118865966796875,-0.0452210079417635,0.107720072403743,-0.0604489630548366
1493477917.9,40.4587322217345,-79.9192272598746,10.3999996185303,0.021820068359375,-0.984756469726562,0.13665771484375,-0.0307238242318081,-0.126370722149786,0.074646541142158
1493477918.1,40.4587322217345,-79.9192272598746,10.3999996185303,-0.043243408203125,-0.982620239257812,0.21905517578125,-0.0129831766302453,-0.0371465698327522,-0.00536813380927272
1493477918.3,40.458794806233,-79.9193178639211,10.3500003814697,-0.0023651123046875,-1.08010864257812,0.203369140625,-0.0259836638075761,-0.0317403528198914,0.0136766637781019
1493477918.5,40.458794806233,-79.9193178639211,10.3500003814697,0.0036468505859375,-0.985107421875,0.114364624023438,-0.124598921076556,-0.0396142548988197,-0.0214315225563037
1493477918.7,40.458794806233,-79.9193178639211,10.3500003814697,-0.0815582275390625,-0.769439697265625,0.10174560546875,-0.0790932212142633,-0.255811003771997,0.191768903774426
1493477918.9,40.458794806233,-79.9193178639211,10.3500003814697,-0.058135986328125,-0.927505493164062,0.1268310546875,-0.0337598278744985,0.0183007103788065,-0.0131874410858544
1493477919.1,40.458794806233,-79.9193178639211,10.3500003814697,-0.004852294921875,-0.921035766601562,0.157638549804688,-0.0615680233448879,0.0174192040579903,-0.00494016382209699
1493477919.3,40.4588612386623,-79.9194105689561,10.1400003433228,0.04180908203125,-0.941619873046875,0.207366943359375,-0.143049034792516,0.00304985208035874,-0.0505183016660401
1493477919.5,40.4588612386623,-79.9194105689561,10.1400003433228,-0.0394439697265625,-1.02032470703125,0.114608764648438,0.0819172372341833,-0.0537101002325001,0.0542880061890473
1493477919.7,40.4588612386623,-79.9194105689561,10.1400003433228,-0.07867431640625,-0.889602661132812,0.218994140625,-0.00990003503626056,-0.0669396192635777,0.0640442305264435
1493477919.9,40.4588612386623,-79.9194105689561,10.1400003433228,-0.13153076171875,-0.86102294921875,0.1947021484375,-0.087686176787513,-0.0302758805364568,0.00984251075671485
1493477920.1,40.4588612386623,-79.9194105689561,10.1400003433228,0.0706939697265625,-1.00363159179688,0.164077758789062,0.0177888508172933,-0.0181968470962934,0.0130236566788145
1493477920.3,40.4589087831564,-79.9194770237432,9.9399995803833,-0.080657958984375,-1.01744079589844,0.20355224609375,0.0224778785485958,0.00198006027047391,-0.00723847184283537
1493477920.5,40.4589087831564,-79.9194770237432,9.9399995803833,-0.0076446533203125,-0.923049926757812,0.1243896484375,-0.0629723081876866,-0.0219287347318215,-0.00165435566915722
1493477920.7,40.4589087831564,-79.9194770237432,9.9399995803833,0.016326904296875,-0.8062744140625,0.156845092773438,-0.109164038346784,-0.00248739245813401,-0.0394949452819841
1493477920.9,40.4589087831564,-79.9194770237432,9.9399995803833,-0.010162353515625,-0.89617919921875,0.131515502929688,-0.0218570956984983,-0.118985776446996,0.0533939830111077
1493477921.1,40.4589087831564,-79.9194770237432,9.9399995803833,-0.0765533447265625,-0.893463134765625,0.16046142578125,0.0745325578475026,0.0133448339062781,0.00819214982919274
1493477921.3,40.4589950614722,-79.9195605607837,9.75,-0.133682250976562,-0.892349243164062,0.250320434570312,-0.00293267299239526,0.082980903773561,-0.051422444856122
1493477921.5,40.4589950614722,-79.9195605607837,9.75,0.09063720703125,-0.902297973632812,0.238052368164062,-0.053507167357436,0.138621795796368,-0.0606135464102035
1493477921.7,40.4589950614722,-79.9195605607837,9.75,-0.01055908203125,-0.97174072265625,0.196640014648438,0.0140505715951491,0.0296929145738385,0.00113344135993772
1493477921.9,40.4589950614722,-79.9195605607837,9.75,-0.0411376953125,-1.0947265625,0.275238037109375,0.00191108439824086,0.00211774569883101,0.017073525748498
1493477922.1,40.4589950614722,-79.9195605607837,9.75,0.0226898193359375,-0.928939819335938,0.155303955078125,-0.100733002967811,0.113389409732304,-0.125004786826684
1493477922.3,40.4590547936638,-79.9196403529224,9.82999992370605,0.0387725830078125,-0.888656616210938,0.218917846679688,-0.00918311207081123,0.0181398554489657,-0.0193326853012122
1493477922.5,40.4590547936638,-79.9196403529224,9.82999992370605,-0.0912017822265625,-0.916717529296875,0.206161499023438,-0.135065144160568,0.00406797856509604,-0.010989267922103
1493477922.7,40.4590547936638,-79.9196403529224,9.82999992370605,0.027557373046875,-0.965896606445312,0.190048217773438,0.050852794698954,-0.0205401625394541,0.00803715385375013
1493477922.9,40.4590547936638,-79.9196403529224,9.82999992370605,-0.0269317626953125,-1.01600646972656,0.261947631835938,-0.00209883725509145,0.0021409152003147,-0.00109322762747753
1493477923.1,40.4590547936638,-79.9196403529224,9.82999992370605,-0.0883331298828125,-0.907989501953125,0.234024047851562,0.00578305430710707,0.0552752400051396,-0.00328207972741365
1493477923.3,40.4591154868624,-79.9197214288045,9.93000030517578,-0.08294677734375,-1.01516723632812,0.19970703125,0.0335214749569364,-0.0480831071652716,0.0143280729807353
1493477923.5,40.4591154868624,-79.9197214288045,9.93000030517578,0.0451507568359375,-1.00201416015625,0.228607177734375,-0.0818826161400123,0.0739218950095474,-0.045810099174889
1493477923.7,40.4591154868624,-79.9197214288045,9.93000030517578,-0.118621826171875,-0.91534423828125,0.258758544921875,-0.0517422905030405,-0.0315704431423443,0.0283394961078602
1493477923.9,40.4591154868624,-79.9197214288045,9.93000030517578,-0.084228515625,-0.886672973632812,0.250213623046875,-0.033777138421584,-0.0210600115842376,-0.0333441084283371
1493477924.1,40.4591154868624,-79.9197214288045,9.93000030517578,-0.0404205322265625,-0.95404052734375,0.207015991210938,-0.0191763577452246,-0.0807124231570315,0.0341308062143465
1493477924.3,40.4591794326694,-79.919806849623,9.75,-0.0511627197265625,-0.861068725585938,0.259063720703125,-0.00851732179829142,0.0872755173474227,-0.0301664246156546
1493477924.5,40.4591794326694,-79.919806849623,9.75,-0.045501708984375,-0.963577270507812,0.172271728515625,-0.0344522497579191,-0.0465792200977039,0.00189989912166253
1493477924.7,40.4591794326694,-79.919806849623,9.75,0.02197265625,-0.947097778320312,0.283248901367188,0.0569375851575671,-0.00249138719976913,0.0400392954087963
1493477924.9,40.4591794326694,-79.919806849623,9.75,-0.102645874023438,-0.93280029296875,0.2496337890625,-0.0439083358404634,-0.0199239070632098,0.00706536637198022
1493477925.1,40.4591794326694,-79.919806849623,9.75,0.0063934326171875,-0.812393188476562,0.138442993164062,0.0041271007412958,-0.0234291596899721,-0.00309592476721711
1493477925.3,40.4592409685014,-79.9198918746457,10.1700000762939,0.0842437744140625,-0.93878173828125,0.178207397460938,-0.0928734819587693,0.0399554058344588,-0.0394376873185474
1493477925.5,40.4592409685014,-79.9198918746457,10.1700000762939,-0.0951385498046875,-0.979690551757812,0.23956298828125,0.0563732613225793,0.138968539370297,-0.0744164440239751
1493477925.7,40.4592409685014,-79.9198918746457,10.1700000762939,-0.0032196044921875,-1.01527404785156,0.248092651367188,-0.00620596428821165,-0.0244294429954059,-0.0266558456667121
1493477925.9,40.4592409685014,-79.9198918746457,10.1700000762939,0.0941925048828125,-1.040771484375,0.216827392578125,0.0863516667652743,0.0951677952378726,-0.0324141325756814
1493477926.1,40.4592409685014,-79.9198918746457,10.1700000762939,-0.105270385742188,-0.99737548828125,0.233688354492188,-0.0620841439641452,0.0982658505339618,-0.000889229487977458
1493477926.3,40.4593061514544,-79.9199855162193,10.5100002288818,-0.0927276611328125,-1.03010559082031,0.363754272460938,-0.0690658870778969,0.067455207250617,-0.0520594729888689
1493477926.5,40.4593061514544,-79.9199855162193,10.5100002288818,0.066009521484375,-0.848236083984375,0.1566162109375,-0.0419735493085209,0.134293626392772,-0.0498221513570934
1493477926.7,40.4593061514544,-79.9199855162193,10.5100002288818,0.072601318359375,-1.0870361328125,0.0113677978515625,0.080394175406767,0.0537252802507135,-0.00891146963962315
1493477926.9,40.4593061514544,-79.9199855162193,10.5100002288818,-0.0252227783203125,-0.935714721679688,0.143112182617188,-0.00562060148061223,0.00535907906156645,0.0244515472324535
1493477927.1,40.4593061514544,-79.9199855162193,10.5100002288818,-0.0655364990234375,-0.91796875,0.0768890380859375,0.0357966134761911,0.0369929054378547,-0.0274505329359917
1493477927.3,40.4593675990556,-79.9200762972629,10.6400003433228,-0.0252532958984375,-0.966506958007812,0.209716796875,-0.0194080527600615,-0.0764529633095587,0.0533092944884431
1493477927.5,40.4593675990556,-79.9200762972629,10.6400003433228,0.038726806640625,-1.02450561523438,0.121444702148438,-0.0549572585709842,0.0567346522825031,0.000357129902179626
1493477927.7,40.4593675990556,-79.9200762972629,10.6400003433228,0.0068359375,-1.03717041015625,0.35040283203125,-0.00736656989126818,0.0213231318999374,0.00520062097670674
1493477927.9,40.4593675990556,-79.9200762972629,10.6400003433228,-0.103271484375,-0.780197143554688,0.29730224609375,-0.0817358759639489,-0.063287626460752,0.0238494065099866
1493477928.1,40.4593675990556,-79.9200762972629,10.6400003433228,-0.105606079101562,-0.871078491210938,0.221588134765625,-0.152732022199935,-0.02134124139535,0.0208818461073113
1493477928.3,40.4594352867803,-79.9201651576268,10.2399997711182,0.08343505859375,-0.81536865234375,0.2030029296875,-0.0167595390559777,0.0479648628128721,-0.0717317113290663
1493477928.5,40.4594352867803,-79.9201651576268,10.2399997711182,0.04278564453125,-0.889373779296875,0.210311889648438,-0.00795646007272073,-0.0786644522787605,-0.00627573910877172
1493477928.7,40.4594352867803,-79.9201651576268,10.2399997711182,0.0383453369140625,-0.835525512695312,0.304306030273438,0.0649307968533309,-0.0801955035894471,0.0360568043146918
1493477928.9,40.4594352867803,-79.9201651576268,10.2399997711182,0.032135009765625,-1.09742736816406,0.159454345703125,-0.0382163616426371,-0.0912281810373183,0.0190360091557774
1493477929.1,40.4594352867803,-79.9201651576268,10.2399997711182,0.064727783203125,-0.891754150390625,0.130584716796875,0.03737533537039,0.0859119788693022,-0.0382227532292533
1493477929.3,40.4595058959339,-79.9202555849801,10.5799999237061,-0.0372314453125,-0.939254760742188,0.207366943359375,-0.0489116165803953,-0.0741370784256258,0.0316769695859475
1493477929.5,40.4595058959339,-79.9202555849801,10.5799999237061,-0.068084716796875,-1.04595947265625,0.165390014648438,-0.0231777572830686,0.0192964663103871,-0.00775059772045761
1493477929.7,40.4595058959339,-79.9202555849801,10.5799999237061,-0.013824462890625,-0.967727661132812,0.273239135742188,-0.0165283766733588,0.0501007180071157,-0.00989444239797139
1493477929.9,40.4595058959339,-79.9202555849801,10.5799999237061,-0.03863525390625,-1.02699279785156,0.248703002929688,0.0690629576006979,0.0420925926092474,-0.0431163117322739
1493477930.1,40.4595058959339,-79.9202555849801,10.5799999237061,0.0651397705078125,-1.03053283691406,0.238616943359375,0.0471113196835017,-0.0056160741067591,0.0559399650132234
1493477930.3,40.459568421079,-79.9203506578502,11.1000003814697,0.080291748046875,-0.912582397460938,0.288360595703125,-0.100923418985752,0.18360445082057,-0.0729434496250523
1493477930.5,40.459568421079,-79.9203506578502,11.1000003814697,-0.163818359375,-0.89556884765625,0.213333129882812,6.39158661619017e-06,-0.202087055101829,0.122069983305417
1493477930.7,40.459568421079,-79.9203506578502,11.1000003814697,-0.167572021484375,-0.949203491210938,0.362197875976562,0.0178272003369904,0.110498814685132,-0.0747376212514387
1493477930.9,40.459568421079,-79.9203506578502,11.1000003814697,-0.0982666015625,-0.972488403320312,0.232315063476562,0.0696019814053299,-0.116387862803624,0.0639195945874278
1493477931.1,40.459568421079,-79.9203506578502,11.1000003814697,-0.21588134765625,-0.919967651367188,0.342254638671875,-0.0562741917300284,-0.0581330781709037,0.0336927162150285
1493477931.3,40.4596346988115,-79.9204514367327,11.5600004196167,-0.0078582763671875,-0.988967895507812,0.214218139648438,-0.0609429794370463,0.131223267972019,-0.0660016539276518
1493477931.5,40.4596346988115,-79.9204514367327,11.5600004196167,0.24114990234375,-1.13844299316406,0.194015502929688,-0.0712337002052214,-0.014418886773907,0.0611483091570914
1493477931.7,40.4596346988115,-79.9204514367327,11.5600004196167,-0.0513916015625,-0.902908325195312,0.15283203125,0.0817286854290057,-0.0345704941103186,0.000925981111020551
1493477931.9,40.4596346988115,-79.9204514367327,11.5600004196167,0.006561279296875,-1.09445190429688,0.111038208007812,-0.126756347875629,0.0327393045447801,0.0199420165586223
1493477932.1,40.4596346988115,-79.9204514367327,11.5600004196167,-0.088134765625,-1.02409362792969,0.254104614257812,0.0562568811829428,0.0655800755270922,-0.0283810414208654
1493477932.3,40.4597014020602,-79.9205528626358,11.6599998474121,0.099365234375,-0.705062866210938,0.29443359375,-0.0275533309540688,0.0363348383324961,-0.0675473526243338
1493477932.5,40.4597014020602,-79.9205528626358,11.6599998474121,0.0375823974609375,-0.94586181640625,0.326629638671875,0.0968181561653947,-0.0857212965352525,0.0374637523185807
1493477932.7,40.4597014020602,-79.9205528626358,11.6599998474121,-0.07080078125,-1.04924011230469,0.45367431640625,-0.0373841238019873,0.00981880862301314,0.0134526919304263
1493477932.9,40.4597014020602,-79.9205528626358,11.6599998474121,-0.0591278076171875,-1.03877258300781,0.248031616210938,0.144330281592953,-0.0477283741080731,0.0879642108053172
1493477933.1,40.4597014020602,-79.9205528626358,11.6599998474121,-0.226425170898438,-0.922103881835938,0.437789916992188,-0.131700506439362,0.00723554236563628,-0.0216251343675524
1493477933.3,40.4597724704923,-79.9206609260367,11.8199996948242,0.025115966796875,-0.983856201171875,0.267227172851562,0.0466604465109513,-0.0311517942189839,-0.00264052422081356
1493477933.5,40.4597724704923,-79.9206609260367,11.8199996948242,-0.0286102294921875,-0.755889892578125,0.32171630859375,-0.250688679731339,-0.0228318126574673,0.0188165646819549
1493477933.7,40.4597724704923,-79.9206609260367,11.8199996948242,0.15777587890625,-0.933197021484375,0.090972900390625,-0.0563524886660767,0.134380978076526,-0.0883532986405778
1493477933.9,40.4597724704923,-79.9206609260367,11.8199996948242,-0.172836303710938,-0.945785522460938,-0.08355712890625,0.124696126456344,-0.0508115157020578,-0.0348434681220517
1493477934.1,40.4597724704923,-79.9206609260367,11.8199996948242,-0.573501586914062,-0.654296875,0.288864135742188,-0.186299836159839,-0.581670601064131,0.22136621086513
1493477934.3,40.4598399735162,-79.9207600722342,11.710000038147,-0.061126708984375,-0.988845825195312,0.221511840820312,0.0801944383250111,0.0622394062556968,0.0102563659901132
1493477934.5,40.4598399735162,-79.9207600722342,11.710000038147,-0.110137939453125,-0.950454711914062,0.20428466796875,0.232335238762949,-0.00683260609270729,-0.0167954917306937
1493477934.7,40.4598399735162,-79.9207600722342,11.710000038147,0.057098388671875,-0.840774536132812,0.27911376953125,-0.119873141722211,-0.0353827582427928,0.0244531451291076
1493477934.9,40.4598399735162,-79.9207600722342,11.710000038147,0.314239501953125,-1.04107666015625,0.2037353515625,-0.0183614304516603,-0.0190261554597441,0.00839082164651266
1493477935.1,40.4598399735162,-79.9207600722342,11.710000038147,0.0229339599609375,-0.854232788085938,0.23638916015625,-0.136906453738248,0.0827862266978762,-0.0666543947108302
1493477935.3,40.4599091514062,-79.9208617405447,11.5500001907349,-0.128890991210938,-0.847412109375,0.240402221679688,-0.0187670298856794,0.0277765038534174,-0.0141246074734533
1493477935.5,40.4599091514062,-79.9208617405447,11.5500001907349,-0.13006591796875,-0.924026489257812,0.210296630859375,0.0226456576972708,0.000913197937788171,-0.0200285692940499
1493477935.7,40.4599091514062,-79.9208617405447,11.5500001907349,-0.019989013671875,-0.952911376953125,0.235107421875,-0.0755453580100597,0.0111288175632231,0.00133024896449458
1493477935.9,40.4599091514062,-79.9208617405447,11.5500001907349,-0.275146484375,-0.898956298828125,0.289901733398438,0.0607831897716415,-0.16419852858938,0.0596878316152919
1493477936.1,40.4599091514062,-79.9208617405447,11.5500001907349,0.010986328125,-0.952621459960938,0.111114501953125,0.0284036782901311,-0.0863370193792788,0.0559567429280909
1493477936.3,40.4599765489081,-79.920963670382,11.3599996566772,-0.0562286376953125,-0.960906982421875,0.138931274414062,-0.04412937821094,-0.0103455818866308,0.0283626656093439
