timestamp,latitude,longitude,speed,accelerometerX,accelerometerY,accelerometerZ,gyroX,gyroY,gyroZ
1493479050.8,40.4787362947744,-79.9160209066716,5.82999992370605,-0.0556488037109375,-0.910736083984375,0.357162475585938,-0.00805819282636176,-0.17545704209769,0.0259594290416564
1493479051.0,40.4787362947744,-79.9160209066716,5.82999992370605,-0.293746948242188,-0.879104614257812,0.243484497070312,0.0742225658966174,-0.163217420043795,0.0896768897023472
1493479051.2,40.4787717274034,-79.9159914729393,5.90000009536743,-0.145782470703125,-0.969406127929688,0.322418212890625,0.00255583569814904,-0.123398900689367,0.0568539618993386
1493479051.4,40.4787717274034,-79.9159914729393,5.90000009536743,-0.117202758789062,-0.921249389648438,0.380447387695312,0.019291938936534,-0.16924814833228,0.053944991040645
1493479051.6,40.4787717274034,-79.9159914729393,5.90000009536743,-0.162933349609375,-0.954986572265625,0.346603393554688,-0.0594356302600614,-0.1740559530482,0.0456878600808544
1493479051.8,40.4787717274034,-79.9159914729393,5.90000009536743,-0.193374633789062,-0.993057250976562,0.293991088867188,0.00358541377557368,-0.184030023962765,0.103934388914195
1493479052.0,40.4787717274034,-79.9159914729393,5.90000009536743,-0.24853515625,-1.03086853027344,0.306549072265625,0.0149991895754353,-0.251120910776259,0.0892973892470109
1493479052.2,40.4787717274034,-79.9159914729393,5.90000009536743,-0.244796752929688,-0.98590087890625,0.285232543945312,-0.0274111181518586,-0.217881464578762,0.0162748437375832
1493479052.4,40.478812453374,-79.9159576420511,6.42999982833862,0.01104736328125,-0.988571166992188,0.315277099609375,0.037004623346651,-0.10129972364778,-0.0356109911482125
1493479052.6,40.478812453374,-79.9159576420511,6.42999982833862,-0.23663330078125,-0.94525146484375,0.309066772460938,0.0375604250661506,-0.331043440353973,0.108926484377549
1493479052.8,40.478812453374,-79.9159576420511,6.42999982833862,-0.049560546875,-0.931838989257812,0.314865112304688,-0.022282668840693,-0.104097108056799,0.0149674979584633
1493479053.0,40.478812453374,-79.9159576420511,6.42999982833862,-0.2584228515625,-0.896636962890625,0.403839111328125,0.0431842223400709,-0.221523337369445,0.0692515094058755
1493479053.2,40.478812453374,-79.9159576420511,6.42999982833862,-0.268112182617188,-0.93994140625,0.35589599609375,0.0616870666456144,-0.313111311470033,0.145378501798009
1493479053.4,40.4788593809245,-79.9159186595372,7.30999994277954,-0.08221435546875,-0.816452026367188,0.3231201171875,-0.00263306736976134,-0.256318335959657,0.129646410290583
1493479053.6,40.4788593809245,-79.9159186595372,7.30999994277954,-0.181838989257812,-0.93414306640625,0.36138916015625,-0.0289743937117351,-0.234874030230121,0.120791665982179
1493479053.8,40.4788593809245,-79.9159186595372,7.30999994277954,-0.111907958984375,-0.905517578125,0.385116577148438,-0.0142476455158149,-0.133942888077208,-0.0435149869474587
1493479054.0,40.4788593809245,-79.9159186595372,7.30999994277954,0.152496337890625,-0.801910400390625,0.489669799804688,-0.153065982600631,-0.329815723091446,0.0323366345879601
1493479054.2,40.4788593809245,-79.9159186595372,7.30999994277954,-0.055633544921875,-0.829483032226562,0.383010864257812,-0.114662400733362,-0.189643168592325,0.103804426653
1493479054.4,40.4788552074803,-79.9156647465829,8.31999969482422,-0.196319580078125,-0.991073608398438,0.453704833984375,0.00378275401234855,0.0861372822975229,0.00408129437054643
1493479054.6,40.4788552074803,-79.9156647465829,8.31999969482422,0.23236083984375,-0.885284423828125,0.208023071289062,-0.0932282150159679,-0.0164077354759782,0.033206689316089
1493479054.8,40.4788552074803,-79.9156647465829,8.31999969482422,-0.290802001953125,-0.962661743164062,0.3770751953125,-0.111564611753381,-0.184330694849834,0.191251984206841
1493479055.0,40.4788552074803,-79.9156647465829,8.31999969482422,0.114837646484375,-1.07572937011719,0.23388671875,0.0413924475586656,0.0784295614706156,-0.102135157281738
1493479055.2,40.4788552074803,-79.9156647465829,8.31999969482422,0.109039306640625,-0.971771240234375,0.204147338867188,0.0280918221264828,0.00938684389420229,-0.0242595333178588
1493479055.4,40.4788552074803,-79.9156647465829,8.31999969482422,-0.022247314453125,-0.851791381835938,0.329879760742188,0.000488423743920532,-0.169117653438866,0.104930411161885
1493479055.6,40.4788552074803,-79.9156647465829,8.31999969482422,-0.283279418945312,-1.04061889648438,0.245742797851562,-0.111288175632231,-0.261981548017711,0.206382201307909
1493479055.8,40.4788552074803,-79.9156647465829,8.31999969482422,0.0726318359375,-0.8406982421875,0.408157348632812,-0.0874046806602916,0.0494924520141416,-0.0447373778878051
1493479056.0,40.4788345220738,-79.9155630221049,9.17000007629395,0.0396728515625,-1.12161254882812,0.321060180664062,0.152545068291412,-0.0594926219073891,0.0262382620077877
1493479056.2,40.4788345220738,-79.9155630221049,9.17000007629395,0.05303955078125,-0.812454223632812,0.519882202148438,-0.0436028712634313,0.00452577595648066,-0.0793579394266172
1493479056.4,40.4788250040839,-79.9154948985454,9.97000026702881,0.022918701171875,-0.89337158203125,0.4100341796875,-0.0542698966936347,-0.0592084626190777,0.042245724371927
1493479056.6,40.4788250040839,-79.9154948985454,9.97000026702881,0.102584838867188,-0.974166870117188,0.260101318359375,-0.0289605452740667,0.153342418721781,-0.133968987055891
1493479056.8,40.4788250040839,-79.9154948985454,9.97000026702881,-0.35748291015625,-0.891433715820312,0.516098022460938,-0.0440098022779954,-0.253923355191349,0.119620674050871
1493479057.0,40.4788250040839,-79.9154948985454,9.97000026702881,0.0443115234375,-0.956619262695312,0.332565307617188,0.0232981321643402,0.0487728658876022,-0.0414696792302779
1493479057.2,40.4788149420276,-79.915378629572,10.6800003051758,-0.678192138671875,-0.665969848632812,0.387374877929688,-0.0747536002179792,-1.0886680293752,0.585263205374648
1493479057.4,40.4788149420276,-79.915378629572,10.6800003051758,-0.36749267578125,-0.946701049804688,0.302337646484375,0.0563500918210956,-0.299246894835081,0.153817792976361
1493479057.6,40.4788149420276,-79.915378629572,10.6800003051758,0.124298095703125,-0.927688598632812,0.284469604492188,-0.0377849295460442,-0.0220882580811172,0.0252592839910745
1493479057.8,40.4788149420276,-79.915378629572,10.6800003051758,-0.225509643554688,-0.904083251953125,0.3592529296875,-0.0841721357291534,-0.183466499076104,0.0582534530521752
1493479058.0,40.4788149420276,-79.915378629572,10.6800003051758,-0.1187744140625,-0.94622802734375,0.315689086914062,-0.030550452444844,0.0937978651731358,-0.0506669060548665
1493479058.2,40.4788310174276,-79.9152411148696,11.3599996566772,-0.0483856201171875,-0.916091918945312,0.329086303710938,-0.0151698982013094,0.000101732753641027,0.0190362754718864
1493479058.4,40.4788310174276,-79.9152411148696,11.3599996566772,-0.04736328125,-1.01260375976562,0.226974487304688,-0.0165262461444867,-0.044566136629713,0.0159390191241242
1493479058.6,40.4788310174276,-79.9152411148696,11.3599996566772,-0.005157470703125,-0.851837158203125,0.22845458984375,-0.0416859279107923,0.0906721130017098,-0.0944876238954663
1493479058.8,40.4788310174276,-79.9152411148696,11.3599996566772,-0.0939178466796875,-1.07797241210938,0.210647583007812,0.0606870496562896,-0.051457598582511,-0.0269674355142514
1493479059.0,40.4788310174276,-79.9152411148696,11.3599996566772,-0.19036865234375,-0.897903442382812,0.251205444335938,0.0776090415387621,-0.120701651137334,0.0213641445807247
1493479059.2,40.4788310174276,-79.9152411148696,11.3599996566772,-0.0614013671875,-1.01921081542969,0.286849975585938,-0.041003892355623,-0.0220794696495199,-0.0504748921402718
1493479059.4,40.4788231384386,-79.9151018076389,11.9200000762939,0.0253753662109375,-1.10769653320312,0.0713043212890625,0.0582198972224402,0.010251039667933,-0.0463437966573409
1493479059.6,40.4788231384386,-79.9151018076389,11.9200000762939,-0.142898559570312,-0.880447387695312,0.167510986328125,0.0615951875880067,-0.00466639086203684,-0.0675950232078462
1493479059.8,40.4788231384386,-79.9151018076389,11.9200000762939,-0.120269775390625,-0.996124267578125,0.188949584960938,-0.0375332608230317,-0.0529433761546662,-0.00984357602115088
1493479060.0,40.4788231384386,-79.9151018076389,11.9200000762939,-0.0619964599609375,-0.976181030273438,0.2559814453125,-0.0702182368815742,-0.0580411991132959,0.0410132134194383
1493479060.2,40.4788231384386,-79.9151018076389,11.9200000762939,-0.043426513671875,-0.8594970703125,0.123886108398438,0.139500638956095,-0.0891913954356258,0.0293799931457542
1493479060.4,40.4788064165418,-79.914959315285,12.1899995803833,0.0655364990234375,-0.949371337890625,0.310317993164062,-0.033103891298012,-0.0146769470835357,-0.00136726690364668
1493479060.6,40.4788064165418,-79.914959315285,12.1899995803833,-0.154159545898438,-0.892318725585938,0.24383544921875,-0.0344301455208714,-0.132735943471184,0.0309102455081137
1493479060.8,40.4788064165418,-79.914959315285,12.1899995803833,-0.0641937255859375,-0.870346069335938,0.264984130859375,-0.139182923838048,-0.0512251046193471,-0.0514048679929275
1493479061.0,40.4788064165418,-79.914959315285,12.1899995803833,-0.12109375,-0.983612060546875,0.190322875976562,-0.0813505165542145,-0.0164993482174769,-0.0562334453653501
1493479061.2,40.4787842044984,-79.9148223549872,12.1599998474121,-0.050933837890625,-0.806411743164062,0.213973999023438,-0.0401607355545039,-0.0412185431394834,0.0327478266602684
1493479061.4,40.4787842044984,-79.9148223549872,12.1599998474121,-0.0753631591796875,-1.05909729003906,0.171463012695312,0.0137962397110465,0.00948511453842621,0.00864648511116026
1493479061.6,40.4787842044984,-79.9148223549872,12.1599998474121,-0.076446533203125,-0.959945678710938,0.268402099609375,-0.0205521467643595,-0.0466703002069846,-0.00222240792967112
1493479061.8,40.4787842044984,-79.9148223549872,12.1599998474121,-0.144546508789062,-0.932418823242188,0.116424560546875,-0.05760790280394,-0.101737547330989,0.0295267333218175
1493479062.0,40.4787842044984,-79.9148223549872,12.1599998474121,-0.107315063476562,-1.00680541992188,0.321548461914062,-0.0371143455835623,-0.0433642520297602,0.042380480323085
1493479062.2,40.478758178689,-79.9146799464523,12.25,0.050445556640625,-0.8358154296875,0.2586669921875,0.039122369045482,-0.175755316139779,0.079753951480712
1493479062.4,40.478758178689,-79.9146799464523,12.25,-0.0805511474609375,-1.02975463867188,0.21490478515625,0.0562523538090897,0.00708294323517474,0.0176170769269832
1493479062.6,40.478758178689,-79.9146799464523,12.25,-0.0850677490234375,-0.890411376953125,0.1878662109375,-0.0216815933826621,-0.0168879034205195,-0.0588201737321441
1493479062.8,40.478758178689,-79.9146799464523,12.25,0.033721923828125,-0.939056396484375,0.202316284179688,0.018114289102501,0.00306103735693708,-0.0765898497895888
1493479063.0,40.478758178689,-79.9146799464523,12.25,-0.09027099609375,-1.0506591796875,0.241958618164062,-0.147715958286771,-0.0564760593406564,0.0242225153787067
1493479063.2,40.4787269141902,-79.9145331793278,12.3100004196167,-0.01177978515625,-1.02369689941406,0.211334228515625,0.0588886169721591,-0.0418630281232826,0.0316311632151981
1493479063.4,40.4787269141902,-79.9145331793278,12.3100004196167,0.0266265869140625,-0.985610961914062,0.19427490234375,-0.0449839866047464,0.135374869795344,-0.0626503320118961
1493479063.6,40.4787269141902,-79.9145331793278,12.3100004196167,-0.0294036865234375,-0.959854125976562,0.2659912109375,0.0718837778273098,-0.079183502375217,-0.00439075368921364
1493479063.8,40.4787269141902,-79.9145331793278,12.3100004196167,0.073638916015625,-0.873260498046875,0.251388549804688,-0.0161052003761452,0.11496067477545,-0.160393670339984
1493479064.0,40.4787269141902,-79.9145331793278,12.3100004196167,-0.205413818359375,-0.951400756835938,0.286956787109375,0.0284793120650894,0.0902294956285386,-0.00847098279532404
1493479064.2,40.4786980804433,-79.9144005776196,12.2799997329712,-0.316940307617188,-1.03080749511719,0.334228515625,0.0958631465984923,-0.33779002634347,0.20230143956958
1493479064.4,40.4786980804433,-79.9144005776196,12.2799997329712,0.133392333984375,-0.897628784179688,0.20953369140625,-0.071521055286841,0.171716099714456,-0.0491550295040285
1493479064.6,40.4786980804433,-79.9144005776196,12.2799997329712,0.1878662109375,-0.933761596679688,0.213485717773438,-0.0087351683754599,0.11811758593163,-0.0750292373908024
1493479064.8,40.4786980804433,-79.9144005776196,12.2799997329712,0.0078582763671875,-0.932601928710938,0.291656494140625,-0.00328447657239472,0.138280644860729,-0.150726661899106
1493479065.0,40.4786980804433,-79.9144005776196,12.2799997329712,0.15777587890625,-1.07038879394531,0.1370849609375,0.0377234105248634,-0.124679348541477,0.131852306621496
1493479065.2,40.4786688276012,-79.9142552354186,12.4300003051758,0.152679443359375,-0.89697265625,0.158935546875,0.0417003089806787,0.0582364088211987,0.0194685065168063
1493479065.4,40.4786688276012,-79.9142552354186,12.4300003051758,0.1385498046875,-0.9501953125,0.168106079101562,0.118242221870646,0.157713465018929,-0.0716989544476583
1493479065.6,40.4786688276012,-79.9142552354186,12.4300003051758,-0.130844116210938,-0.837234497070312,0.112808227539062,0.00251935039121496,-0.174448769308986,0.109229818425709
1493479065.8,40.4786688276012,-79.9142552354186,12.4300003051758,0.0601959228515625,-0.956161499023438,0.276168823242188,0.0637645986119852,0.0942535320356484,-0.0166498168190664
1493479066.0,40.4786688276012,-79.9142552354186,12.4300003051758,0.031768798828125,-0.900070190429688,0.201080322265625,-0.049743321788827,-0.0177523655103592,0.0453837270843673
1493479066.2,40.4786495073144,-79.9141075462847,12.6800003051758,0.17724609375,-0.826675415039062,0.214401245117188,-0.0769219459775217,0.0834557453959221,-0.0916311173102473
1493479066.4,40.4786495073144,-79.9141075462847,12.6800003051758,0.0087127685546875,-0.926254272460938,0.26123046875,-0.0126337698952269,0.0926196827068848,-0.0376858599534933
1493479066.6,40.4786495073144,-79.9141075462847,12.6800003051758,0.283737182617188,-0.9588623046875,0.178436279296875,-0.0135661425928636,0.203248193337103,-0.0646362512367682
1493479066.8,40.4786495073144,-79.9141075462847,12.6800003051758,0.13739013671875,-0.977279663085938,0.1314697265625,0.050950799027069,-0.0790391590441347,0.0465728285110877
1493479067.0,40.4786495073144,-79.9141075462847,12.6800003051758,0.243972778320312,-0.81781005859375,0.164199829101562,-0.0947712505515598,0.105921373403504,-0.020435500308614
1493479067.2,40.4786416702349,-79.9139703345298,12.5100002288818,0.325775146484375,-0.999847412109375,0.176361083984375,-0.000508131135987119,0.0936122428451573,0.0104153567071909
1493479067.4,40.4786416702349,-79.9139703345298,12.5100002288818,0.0838165283203125,-0.83148193359375,0.234832763671875,-0.0874323775356284,-0.0153746952891364,0.0769781386765224
1493479067.6,40.4786416702349,-79.9139703345298,12.5100002288818,0.230545043945312,-0.937469482421875,0.22052001953125,0.0143816025186459,0.0509755664252067,0.0661209635444873
1493479067.8,40.4786416702349,-79.9139703345298,12.5100002288818,0.09588623046875,-0.791107177734375,0.14593505859375,0.128881816741622,-0.248644703594703,0.250389074108705
1493479068.0,40.4786416702349,-79.9139703345298,12.5100002288818,0.3575439453125,-1.00968933105469,0.260330200195312,0.00876952315352192,0.447742626689027,-0.162064004975682
1493479068.2,40.478641921692,-79.9138139282166,12.8500003814697,0.33966064453125,-0.943161010742188,0.141754150390625,0.00712475486428899,0.05313565638537,-0.0245871021319385
1493479068.4,40.478641921692,-79.9138139282166,12.8500003814697,-0.377685546875,-0.928665161132812,0.483261108398438,-0.215986891779279,-0.238968906722227,0.165800952617281
1493479068.6,40.478641921692,-79.9138139282166,12.8500003814697,0.379684448242188,-0.874313354492188,0.207061767578125,0.163283466438829,0.696669891675387,-0.421280659149673
1493479068.8,40.478641921692,-79.9138139282166,12.8500003814697,0.345962524414062,-0.881011962890625,0.196502685546875,-0.00583392068392758,0.456332120152859,-0.257128735879368
1493479069.0,40.478641921692,-79.9138139282166,12.8500003814697,-0.034820556640625,-1.06272888183594,0.218475341796875,0.0313640481578632,0.0476743119379445,0.0684357831639842
1493479069.2,40.4786640918259,-79.9136789795756,12.3999996185303,0.179916381835938,-0.9884033203125,0.221115112304688,-0.0545585833557993,0.0896931349849967,-0.0882196079538558
1493479069.4,40.4786640918259,-79.9136789795756,12.3999996185303,0.079925537109375,-0.903823852539062,0.26318359375,-0.0995622773526123,0.0559471555481666,-0.0864608563699675
1493479069.6,40.4786640918259,-79.9136789795756,12.3999996185303,0.0973663330078125,-1.04600524902344,0.184097290039062,0.0526046220640082,0.0358224461387648,-0.0112822156420117
1493479069.8,40.4786640918259,-79.9136789795756,12.3999996185303,0.00665283203125,-0.934585571289062,0.33660888671875,0.0160775035008084,0.0296809303489331,0.00861772297138741
1493479070.0,40.4786640918259,-79.9136789795756,12.3999996185303,0.121978759765625,-0.899383544921875,0.2315673828125,-0.0575495795760673,0.117381754522442,-0.0104880610049501
1493479070.2,40.4786992958192,-79.9135345593839,12.539999961853,0.208786010742188,-0.93975830078125,0.27044677734375,-0.0278377565584893,0.159729744280228,-0.0572065644276651
1493479070.4,40.4786992958192,-79.9135345593839,12.539999961853,0.143218994140625,-0.972503662109375,0.148574829101562,-0.084159352555921,0.170732860639999,-0.0599440277121575
1493479070.6,40.4786992958192,-79.9135345593839,12.539999961853,0.028076171875,-0.945587158203125,0.185745239257812,0.000517718515911404,-0.0872046772624266,0.147367883132298
1493479070.8,40.4786992958192,-79.9135345593839,12.539999961853,0.17584228515625,-1.05108642578125,0.25811767578125,0.01831855355811,0.170063341941953,-0.0780849484255593
1493479071.0,40.4786992958192,-79.9135345593839,12.539999961853,0.154449462890625,-0.932937622070312,0.1766357421875,0.0923728076738344,-0.0442015498764812,0.0735623682623867
1493479071.2,40.4787392774974,-79.9133864511549,13.0299997329712,0.0960540771484375,-0.894577026367188,0.236358642578125,-0.0162546037132986,0.0033004555389352,0.022215557181223
1493479071.4,40.4787392774974,-79.9133864511549,13.0299997329712,0.249679565429688,-1.05052185058594,0.240463256835938,-0.021645640707946,0.0990669293898576,0.00165515461748425
1493479071.6,40.4787392774974,-79.9133864511549,13.0299997329712,0.219268798828125,-1.1534423828125,0.315399169921875,-0.0724787280148335,0.0441133992443995,0.18359912449839
1493479071.8,40.4787392774974,-79.9133864511549,13.0299997329712,-0.007598876953125,-0.932876586914062,0.5733642578125,-0.0654905933144656,-0.0346735584445047,0.0196770320301595
1493479072.0,40.4787392774974,-79.9133864511549,13.0299997329712,0.311370849609375,-0.987442016601562,0.144088745117188,0.0151075802318015,0.253049305721585,-0.109252188978866
1493479072.2,40.4787966097151,-79.9132584594934,13.3400001525879,0.191024780273438,-0.942245483398438,0.21075439453125,-0.0170703299551899,0.00330285238391627,0.00408156068665544
1493479072.4,40.4787966097151,-79.9132584594934,13.3400001525879,0.2545166015625,-0.965606689453125,0.256240844726562,-0.0155368817995223,0.0500951253688265,-0.00455320651570847
1493479072.6,40.4787966097151,-79.9132584594934,13.3400001525879,0.391098022460938,-0.675186157226562,0.209915161132812,-0.0645129468782975,0.206756641757174,-0.15259646730045
1493479072.8,40.4787966097151,-79.9132584594934,13.3400001525879,0.128707885742188,-0.860214233398438,0.245529174804688,-0.127118804099989,0.176335618941308,-0.0305443271743368
1493479073.0,40.4787966097151,-79.9132584594934,13.3400001525879,0.403762817382812,-0.917190551757812,0.226806640625,-0.13321770931238,0.198699514195248,-0.11702782041357
1493479073.2,40.4788789619137,-79.9131299649178,13.75,0.22222900390625,-0.566360473632812,0.316482543945312,-0.218656178139866,0.0865314301388546,0.0721729971216924
1493479073.4,40.4788789619137,-79.9131299649178,13.75,0.324142456054688,-1.22918701171875,0.181198120117188,0.0755682611954344,0.272871213715045,-0.0809627602994989
1493479073.6,40.4788789619137,-79.9131299649178,13.75,0.353317260742188,-1.08815002441406,0.135955810546875,0.0774234192107836,0.255841363808424,-0.0702376779575318
1493479073.8,40.4788789619137,-79.9131299649178,13.75,-0.144500732421875,-0.872161865234375,0.275039672851562,-0.0504541194837692,-0.564451666720114,0.342128582075318
1493479074.0,40.4788789619137,-79.9131299649178,13.75,-0.0156097412109375,-0.924896240234375,0.188919067382812,-0.0443703942895922,0.00242454185640814,0.0528501655165135
1493479074.2,40.4788789619137,-79.9131299649178,13.75,0.278396606445312,-0.901123046875,0.18670654296875,0.050213636037335,0.0230877424382239,0.0782881476167323
1493479074.4,40.478962906674,-79.9130190723389,13.9700002670288,0.233657836914062,-0.910385131835938,0.23931884765625,0.0451946426469717,0.0858568514347375,-0.064797905114936
1493479074.6,40.478962906674,-79.9130190723389,13.9700002670288,0.232040405273438,-0.758621215820312,0.257034301757812,-0.134825459662461,0.0476799045762336,-0.0047020772206439
1493479074.8,40.478962906674,-79.9130190723389,13.9700002670288,0.146224975585938,-1.08119201660156,0.0454254150390625,0.0129477565877472,0.113729229087398,-0.0278824976648026
1493479075.0,40.478962906674,-79.9130190723389,13.9700002670288,0.160720825195312,-0.91229248046875,0.257888793945312,-0.00376997083911617,0.256360147588772,-0.128645860669041
1493479075.2,40.4790605977555,-79.9129128736257,14.1700000762939,0.161697387695312,-0.946334838867188,0.199844360351562,-0.0829140584302,0.138820733929797,-0.0129355060467329
1493479075.4,40.4790605977555,-79.9129128736257,14.1700000762939,0.170089721679688,-0.87725830078125,0.253662109375,-0.0410781945500362,0.25873089359116,-0.124769097070212
1493479075.6,40.4790605977555,-79.9129128736257,14.1700000762939,0.17303466796875,-0.8787841796875,0.274154663085938,-0.0740699667661558,0.156844209239127,-0.026752252098173
1493479075.8,40.4790605977555,-79.9129128736257,14.1700000762939,0.10540771484375,-0.892120361328125,0.229598999023438,-0.0464380725599297,0.0588068579266937,0.00150521864811279
1493479076.0,40.4790605977555,-79.9129128736257,14.1700000762939,0.25567626953125,-1.01364135742188,0.213546752929688,0.00992799822770639,0.146724996045153,-0.0226674956182094
1493479076.2,40.479171699882,-79.912823773995,14.4799995422363,0.160369873046875,-0.9443359375,0.198516845703125,-0.0400539427947917,0.177887442908497,-0.0882987038382312
1493479076.4,40.479171699882,-79.912823773995,14.4799995422363,0.108291625976562,-0.861663818359375,0.27581787109375,-0.0940540612700014,0.0537939898068376,-0.023492276607807
1493479076.6,40.479171699882,-79.912823773995,14.4799995422363,0.1748046875,-0.908798217773438,0.267547607421875,-0.0739314823894717,0.108970160219426,-0.0628785649173159
1493479076.8,40.479171699882,-79.912823773995,14.4799995422363,0.216064453125,-1.04476928710938,0.166015625,0.0674560061989441,0.167614299003516,-0.0903701105340948
1493479077.0,40.479171699882,-79.912823773995,14.4799995422363,0.124374389648438,-1.00856018066406,0.14898681640625,0.00882678111695863,0.037172402495326,-0.00213798572311561
1493479077.2,40.4792940756683,-79.9127508514374,15.0500001907349,0.009735107421875,-0.766006469726562,0.2625732421875,0.0685883822944457,0.0165821725273784,0.0550363544553595
1493479077.4,40.4792940756683,-79.9127508514374,15.0500001907349,-0.0138092041015625,-0.966659545898438,0.260879516601562,0.038349253381032,-0.107669738659141,0.0955635409758583
1493479077.6,40.4792940756683,-79.9127508514374,15.0500001907349,0.114028930664062,-0.906570434570312,0.219619750976562,-0.00198112553490995,0.0776569784383836,-0.0460678931684087
1493479077.8,40.4792940756683,-79.9127508514374,15.0500001907349,-0.0175933837890625,-0.98419189453125,0.237319946289062,0.0464540515264702,-0.0215737353585139,0.0175907116321914
1493479078.0,40.4792940756683,-79.9127508514374,15.0500001907349,-0.0787200927734375,-0.906890869140625,0.177398681640625,-0.0799789885928237,0.173898027595558,-0.0524458976630394
1493479078.2,40.4794232407962,-79.9126849696784,15.4300003051758,0.290023803710938,-0.88140869140625,0.159149169921875,-0.0279152545462106,0.243747416666156,-0.160846940357516
1493479078.4,40.4794232407962,-79.9126849696784,15.4300003051758,-0.000213623046875,-1.03518676757812,0.25634765625,-0.0203377622966081,0.0150268864507721,0.0157462062612025
1493479078.6,40.4794232407962,-79.9126849696784,15.4300003051758,0.19970703125,-1.06767272949219,0.199203491210938,0.0126422920107152,0.0190679670888583,0.0203382949288261
1493479078.8,40.4794232407962,-79.9126849696784,15.4300003051758,-0.0379638671875,-1.07212829589844,0.241226196289062,0.0535170210534693,-0.0365084764355693,0.0379596329135534
1493479079.0,40.4794232407962,-79.9126849696784,15.4300003051758,-0.0576324462890625,-0.892623901367188,0.257278442382812,-0.0505774238422399,-0.114531639523839,0.130922064452731
1493479079.2,40.4795651045074,-79.9126219377666,15.7399997711182,0.151718139648438,-1.02911376953125,0.266250610351562,0.0095418398696449,0.0212022243864478,-0.0628636512152114
1493479079.4,40.4795651045074,-79.9126219377666,15.7399997711182,-0.10491943359375,-0.944381713867188,0.20416259765625,0.0948977507033385,-0.0442225888490928,0.04480049480564
1493479079.6,40.4795651045074,-79.9126219377666,15.7399997711182,0.104156494140625,-1.11277770996094,0.182861328125,-0.000952612721921343,0.169113658697231,-0.148649928881062
1493479079.8,40.4795651045074,-79.9126219377666,15.7399997711182,0.110824584960938,-0.93890380859375,0.2198486328125,0.0285173952686775,-0.028905684155611,0.00143278066646263
1493479080.0,40.4795651045074,-79.9126219377666,15.7399997711182,0.159576416015625,-1.04029846191406,0.276321411132812,0.0182783398256498,-0.0596819726608937,0.0323275798402539
1493479080.2,40.4796964489301,-79.9125739094614,16.0699996948242,0.227584838867188,-1.14018249511719,0.171951293945312,0.102984439353364,0.0876052166903746,-0.0844688118745882
1493479080.4,40.4796964489301,-79.9125739094614,16.0699996948242,0.0068511962890625,-0.932998657226562,0.292221069335938,0.0408917732737307,0.120991136747826,-0.0425421342012528
1493479080.6,40.4796964489301,-79.9125739094614,16.0699996948242,0.10186767578125,-0.763656616210938,0.304580688476562,-0.036265329828045,0.266139807743761,-0.160990218424162
1493479080.8,40.4796964489301,-79.9125739094614,16.0699996948242,-0.0749969482421875,-1.05950927734375,0.29302978515625,-0.140209838754383,-0.254357184132923,0.14529221537869
1493479081.0,40.4796964489301,-79.9125739094614,16.0699996948242,0.132278442382812,-0.942718505859375,0.211288452148438,-0.0469994669177184,-0.259212925748464,0.179311701459471
1493479081.2,40.4798407853027,-79.9125298206507,16.1700000762939,-0.0405120849609375,-0.921951293945312,0.276046752929688,-0.145625376831059,-0.225597973837266,0.167553046298444
1493479081.4,40.4798407853027,-79.9125298206507,16.1700000762939,0.151702880859375,-1.14749145507812,0.193862915039062,0.0825508032575132,0.0547623151791904,-0.0877919042827891
1493479081.6,40.4798407853027,-79.9125298206507,16.1700000762939,0.038787841796875,-0.958694458007812,0.237869262695312,-0.00362349697916181,-0.0935744259576782,0.0577799430103592
1493479081.8,40.4798407853027,-79.9125298206507,16.1700000762939,0.050140380859375,-0.912353515625,0.131515502929688,-0.00244930925454588,0.0595682556823474,-0.0993367076082826
1493479082.0,40.4798407853027,-79.9125298206507,16.1700000762939,0.238815307617188,-0.862640380859375,0.199676513671875,-0.122798624179663,0.157158195931647,-0.0453776018138601
1493479082.2,40.4800016340245,-79.9124888331442,16.7199993133545,-0.018524169921875,-1.18913269042969,0.248046875,-0.135897115685108,0.139149900640531,-0.109438077622953
1493479082.4,40.4800016340245,-79.9124888331442,16.7199993133545,0.174514770507812,-0.718032836914062,0.282623291015625,-0.191589939349172,-0.000894822126266624,-0.0851239495027477
1493479082.6,40.4800016340245,-79.9124888331442,16.7199993133545,-0.0509796142578125,-1.13392639160156,0.29254150390625,0.0808090959046013,-0.234500655045292,0.269052240711871
1493479082.8,40.4800016340245,-79.9124888331442,16.7199993133545,0.190078735351562,-0.903396606445312,0.263580322265625,-0.0554789718285307,0.172662320849761,-0.131091707814169
1493479083.0,40.4800016340245,-79.9124888331442,16.7199993133545,0.192596435546875,-1.0799560546875,0.220916748046875,0.0255317253705897,-0.0512163161877499,0.0515718481932754
1493479083.2,40.4801409412552,-79.9124602508544,16.6700000762939,0.204315185546875,-1.10794067382812,0.216033935546875,0.0600468257302346,0.191065829246645,-0.0809105623421334
1493479083.4,40.4801409412552,-79.9124602508544,16.6700000762939,0.109817504882812,-0.927459716796875,0.1812744140625,-0.00705897478536403,0.068125258580881,0.00828163204181941
1493479083.6,40.4801409412552,-79.9124602508544,16.6700000762939,0.154296875,-1.12190246582031,0.146682739257812,0.0596441557734146,0.0815129693807093,-0.0337185488776022
1493479083.8,40.4801409412552,-79.9124602508544,16.6700000762939,0.171951293945312,-0.927459716796875,0.184524536132812,0.00331989661489278,0.0414531676315194,-0.0640458284230976
1493479084.0,40.4801409412552,-79.9124602508544,16.6700000762939,-0.0648345947265625,-1.32196044921875,0.248458862304688,0.456398166547893,-0.247603141292373,0.131124997327795
1493479084.2,40.4802889237557,-79.9124411401152,16.5100002288818,-0.119232177734375,-1.04875183105469,0.391983032226562,0.16971792994857,-0.121306987653109,-0.017141170040186
1493479084.4,40.4802889237557,-79.9124411401152,16.5100002288818,0.0316314697265625,-1.00567626953125,0.211441040039062,0.0491952432364887,0.0943443458288201,-0.0413221401058875
1493479084.6,40.4802889237557,-79.9124411401152,16.5100002288818,0.140396118164062,-1.03875732421875,0.174942016601562,-0.00832797104478679,0.0415530361723973,0.0861708381272579
1493479084.8,40.4802889237557,-79.9124411401152,16.5100002288818,0.0500640869140625,-1.13346862792969,0.156631469726562,0.136103244353481,0.0469885479572491,0.0407221299122926
1493479085.0,40.4802889237557,-79.9124411401152,16.5100002288818,0.094024658203125,-1.00607299804688,0.185028076171875,0.0353204402732849,-0.156562446795796,0.211876036320633
1493479085.2,40.4804375768085,-79.9124393799155,16.2099990844727,0.343338012695312,-1.00711059570312,0.150466918945312,0.162205685145674,0.631809402274835,-0.300642124930173
1493479085.4,40.4804375768085,-79.9124393799155,16.2099990844727,0.155288696289062,-1.0330810546875,0.194961547851562,0.0156772303889695,0.00308047843289465,-0.0542243566389944
1493479085.6,40.4804375768085,-79.9124393799155,16.2099990844727,0.0618743896484375,-1.01795959472656,0.188568115234375,0.0418462502084151,-0.0406883077664486,0.0325198600709576
1493479085.8,40.4804375768085,-79.9124393799155,16.2099990844727,0.0589599609375,-1.07058715820312,0.124099731445312,-0.0947882947825363,0.197372194707953,-0.201928064384751
1493479086.0,40.4804375768085,-79.9124393799155,16.2099990844727,0.563552856445312,-0.849075317382812,0.0435791015625,0.0570086915586722,0.27827902862456,-0.27735011803634
1493479086.2,40.4805753752966,-79.9124416430294,15.4399995803833,0.446044921875,-1.09223937988281,0.0437164306640625,0.101920506497877,-0.218691065550146,0.213784457557784
1493479086.4,40.4805753752966,-79.9124416430294,15.4399995803833,-0.177398681640625,-0.819580078125,0.324966430664062,-0.254375027312227,-0.335513023611453,0.194444848037737
1493479086.6,40.4805753752966,-79.9124416430294,15.4399995803833,-0.0767059326171875,-0.950439453125,0.238311767578125,-0.0299014400871917,-0.0221196833819801,0.14902090722091
1493479086.8,40.4805753752966,-79.9124416430294,15.4399995803833,0.345733642578125,-1.11024475097656,0.040740966796875,0.0466540549243351,0.252848769691502,-0.0801409087871005
1493479087.0,40.4805753752966,-79.9124416430294,15.4399995803833,-0.0676727294921875,-0.895416259765625,0.17144775390625,-0.0544744274653528,0.00461152974358121,0.0143573677527262
1493479087.2,40.4805753752966,-79.9124416430294,15.4399995803833,0.135757446289062,-0.8450927734375,0.119461059570312,-0.106975452562957,0.108121677096127,-0.0610822627620574
1493479087.4,40.4807151854415,-79.9124570657312,14.1999998092651,0.0833740234375,-0.923660278320312,0.14697265625,0.0914255212740932,0.11001864674059,-0.0835787834382838
1493479087.6,40.4807151854415,-79.9124570657312,14.1999998092651,0.135040283203125,-1.10287475585938,0.171295166015625,0.110525712612142,0.0556656594209452,0.0468351498784605
1493479087.8,40.4807151854415,-79.9124570657312,14.1999998092651,0.171539306640625,-0.9432373046875,0.1448974609375,-0.042649459593183,0.147059222761958,-0.071186295937818
1493479088.0,40.4807151854415,-79.9124570657312,14.1999998092651,0.0142822265625,-0.793380737304688,0.16741943359375,-0.106535764666985,0.0762241977719209,0.0445597450430968
1493479088.2,40.4808274610345,-79.9124835525452,13.3000001907349,0.24188232421875,-1.02496337890625,0.181793212890625,-0.15116049084068,0.314757411339811,-0.143100167485446
1493479088.4,40.4808274610345,-79.9124835525452,13.3000001907349,0.157516479492188,-1.14790344238281,0.0477752685546875,0.109264705835989,-0.0283525455972016,0.0928862651320017
1493479088.6,40.4808274610345,-79.9124835525452,13.3000001907349,0.0651092529296875,-0.92547607421875,0.17803955078125,-0.048028512362925,0.238570231507042,-0.0949342360102726
1493479088.8,40.4808274610345,-79.9124835525452,13.3000001907349,0.1434326171875,-0.838409423828125,0.114013671875,-0.0956069505016266,0.144221358304369,-0.0162780395308913
1493479089.0,40.4808274610345,-79.9124835525452,13.3000001907349,0.10504150390625,-1.01358032226562,0.0990753173828125,0.00266928636058642,0.106345082332935,-0.0588888832882681
1493479089.2,40.4809386469801,-79.9125243724137,11.9899997711182,-0.068450927734375,-0.939407348632812,0.174713134765625,-0.017107614210451,0.119259016774838,0.0698872059580774
1493479089.4,40.4809386469801,-79.9125243724137,11.9899997711182,0.189666748046875,-1.05003356933594,0.085601806640625,-0.0477552720350829,0.163059494591154,-0.000909735828371068
1493479089.6,40.4809386469801,-79.9125243724137,11.9899997711182,0.2135009765625,-1.01319885253906,0.0837249755859375,-0.00117711720181502,0.341442818094623,-0.116044315023004
1493479089.8,40.4809386469801,-79.9125243724137,11.9899997711182,0.0565338134765625,-0.984725952148438,0.0959625244140625,-0.0733053732171941,0.0355806311117856,0.006621151102155
1493479090.0,40.4809386469801,-79.9125243724137,11.9899997711182,0.117233276367188,-1.11964416503906,0.174179077148438,0.119350363200228,0.164101056893484,0.00612953156492637
1493479090.2,40.4810235137497,-79.9125683774053,10.6199998855591,0.0590667724609375,-1.00592041015625,0.0494842529296875,0.0119157816653415,0.0914079444108987,0.0350711683952535
1493479090.4,40.4810235137497,-79.9125683774053,10.6199998855591,-0.03057861328125,-1.02360534667969,0.137451171875,-0.0910662608430415,0.0633512760108049,-0.00322828387339405
1493479090.6,40.4810235137497,-79.9125683774053,10.6199998855591,0.05517578125,-0.978164672851562,0.236618041992188,0.00108790130529737,0.0648727399415672,-0.0438710515852023
1493479090.8,40.4810235137497,-79.9125683774053,10.6199998855591,0.192169189453125,-0.963455200195312,0.195068359375,0.0769395228407162,0.0984184496644233,-0.0431810265467628
1493479091.0,40.4810235137497,-79.9125683774053,10.6199998855591,0.0223846435546875,-0.91339111328125,0.202194213867188,-0.0347459964261548,0.0385186304263611,-0.00791864318524161
1493479091.2,40.4811071651433,-79.9126273860036,9.36999988555908,-0.00872802734375,-0.948013305664062,0.183364868164062,-0.0657683610161608,0.0408496953285074,0.00348607786691372
1493479091.4,40.4811071651433,-79.9126273860036,9.36999988555908,0.153533935546875,-0.868682861328125,0.196044921875,-0.0971771502803374,0.148480285519624,-0.0546888119331042
1493479091.6,40.4811071651433,-79.9126273860036,9.36999988555908,0.208343505859375,-1.05816650390625,0.136444091796875,0.00114782242982415,0.0435954144123791,-0.0598087391287815
1493479091.8,40.4811071651433,-79.9126273860036,9.36999988555908,0.045318603515625,-0.968460083007812,0.2113037109375,0.00101013700146706,0.0648865883792356,0.0392928113552471
1493479092.0,40.4811071651433,-79.9126273860036,9.36999988555908,0.14208984375,-0.989852905273438,0.302734375,-0.0309973308757593,0.168260381883969,-0.0551284998290763
1493479092.2,40.4811771540348,-79.9126867298781,8.78999996185303,0.0145263671875,-0.888641357421875,0.198333740234375,-0.0485129413652104,0.0290329832557168,-0.0186972550651193
1493479092.4,40.4811771540348,-79.9126867298781,8.78999996185303,-0.010894775390625,-0.957061767578125,0.294662475585938,-0.0171997595841678,0.168171165987452,-0.0517883631898989
1493479092.6,40.4811771540348,-79.9126867298781,8.78999996185303,0.145050048828125,-0.93438720703125,0.212005615234375,-0.0487108142342033,0.173702551571546,-0.00307941316845862
1493479092.8,40.4811771540348,-79.9126867298781,8.78999996185303,0.039154052734375,-1.018798828125,0.182296752929688,-0.00842863853399178,0.0255852549085002,0.00731117614059453
1493479093.0,40.4811771540348,-79.9126867298781,8.78999996185303,0.0671539306640625,-1.01016235351562,0.227828979492188,0.00952639353532244,0.164804664053483,-0.061101970154124
1493479093.2,40.4811771540348,-79.9126867298781,8.78999996185303,0.100067138671875,-0.915145874023438,0.2569580078125,0.0303456553570169,0.130632845158349,-0.0448074190244742
1493479093.4,40.481237042733,-79.9127547071128,8.43000030517578,0.0626678466796875,-0.893463134765625,0.238739013671875,-0.0366584124049407,0.0810810046518984,-0.000584563859272393
1493479093.6,40.481237042733,-79.9127547071128,8.43000030517578,-0.0708465576171875,-0.98345947265625,0.281082153320312,-0.00795379691163065,-0.0041976745101829,0.0340482482205541
1493479093.8,40.481237042733,-79.9127547071128,8.43000030517578,0.01934814453125,-0.920944213867188,0.262741088867188,0.00550741713428386,0.036131639141323,0.00636042763143624
1493479094.0,40.481237042733,-79.9127547071128,8.43000030517578,-0.07763671875,-1.010498046875,0.266159057617188,0.0254811253098782,-0.0852573738733607,0.0367321819671359
1493479094.2,40.4812861606856,-79.912829138413,8.13000011444092,-0.0786285400390625,-0.883636474609375,0.279617309570312,-0.105011637575132,0.0145078363543157,-0.0224368658678086
1493479094.4,40.4812861606856,-79.912829138413,8.13000011444092,-0.10125732421875,-1.01097106933594,0.271682739257812,0.0202631937860859,-0.0171531542650914,-0.0114766264015875
1493479094.6,40.4812861606856,-79.912829138413,8.13000011444092,-0.154647827148438,-0.969039916992188,0.179031372070312,0.0184136284090259,-0.070310115939182,0.0941968067044297
1493479094.8,40.4812861606856,-79.912829138413,8.13000011444092,0.047393798828125,-0.81103515625,0.315963745117188,-0.0651875255824146,-0.16338786235356,0.00508530610150631
1493479095.0,40.4812861606856,-79.912829138413,8.13000011444092,-0.0025787353515625,-0.954498291015625,0.351470947265625,-0.0922308611877332,-0.00259631574671825,-0.0318577982239639
1493479095.2,40.4813327640672,-79.9129010551422,8.01000022888184,-0.16119384765625,-0.724014282226562,0.51141357421875,-0.050246126602634,0.0258606257652144,0.0282066043694652
1493479095.4,40.4813327640672,-79.9129010551422,8.01000022888184,-0.0308685302734375,-0.971527099609375,0.310195922851562,0.0332277282887006,-0.00979297596043937,-0.0209588114628146
1493479095.6,40.4813327640672,-79.9129010551422,8.01000022888184,-0.035064697265625,-0.936538696289062,0.306228637695312,0.00490474377959893,0.0488959039299638,-0.020334033871082
1493479095.8,40.4813327640672,-79.9129010551422,8.01000022888184,-0.109100341796875,-1.01766967773438,0.274978637695312,0.0461544459038363,-0.102417984989504,-0.00459421919649569
1493479096.0,40.4813327640672,-79.9129010551422,8.01000022888184,-0.122329711914062,-0.82147216796875,0.267166137695312,0.0116201707843427,-0.0181592965249233,-0.00303280784938224
1493479096.2,40.4813327640672,-79.9129010551422,8.01000022888184,-0.0423126220703125,-0.94781494140625,0.374038696289062,-0.0195481350333996,0.0245868358158295,-0.0365148680221854
1493479096.4,40.4813809181009,-79.9129729718714,8.47999954223633,-0.122314453125,-0.838836669921875,0.364044189453125,0.0621001229306857,-0.0610327279657819,0.0199851597682816
1493479096.6,40.4813809181009,-79.9129729718714,8.47999954223633,-0.157012939453125,-0.95513916015625,0.272003173828125,-0.0188349404934764,-0.010519486305813,-0.0300196844395912
1493479096.8,40.4813809181009,-79.9129729718714,8.47999954223633,0.0439453125,-0.879669189453125,0.276458740234375,0.00942812289109852,-0.0362291108372199,-0.00833968895358313
1493479097.0,40.4813809181009,-79.9129729718714,8.47999954223633,-0.04901123046875,-0.992034912109375,0.294967651367188,-0.0663883449179313,0.0259551679839123,-0.0369979654439258
1493479097.2,40.4814309161533,-79.9130478222667,9.02999973297119,-0.083526611328125,-0.897201538085938,0.357452392578125,-0.0255967065011876,-0.0732236141717287,0.0404430306300523
1493479097.4,40.4814309161533,-79.9130478222667,9.02999973297119,-0.150436401367188,-0.912612915039062,0.435867309570312,-0.0694794759951863,0.101492270194593,-0.0809393244819062
1493479097.6,40.4814309161533,-79.9130478222667,9.02999973297119,-0.16650390625,-0.909225463867188,0.271682739257812,-0.00984117917616981,0.0638708587394794,-0.101555919744646
1493479097.8,40.4814309161533,-79.9130478222667,9.02999973297119,-0.0224456787109375,-0.9713134765625,0.392471313476562,0.0967028412901942,-0.0665830219936161,-0.0212285896812396
1493479098.0,40.4814309161533,-79.9130478222667,9.02999973297119,-0.0501556396484375,-0.88507080078125,0.324432373046875,-0.0492612896315227,-0.0666964726560535,-0.0163254437982947
1493479098.2,40.4814309161533,-79.9130478222667,9.02999973297119,-0.0654296875,-0.9544677734375,0.300079345703125,-0.0487318532068149,-0.0794594058641492,0.0156993346260171
1493479098.4,40.4814932356034,-79.9131310545652,9.35999965667725,-0.031982421875,-0.903488159179688,0.36846923828125,-0.0510690433794685,-0.0602931681310669,0.0412150810300663
1493479098.6,40.4814932356034,-79.9131310545652,9.35999965667725,0.117294311523438,-0.824630737304688,0.362274169921875,-0.00958578202763121,-0.0914130044169699,0.0278593281633189
1493479098.8,40.4814932356034,-79.9131310545652,9.35999965667725,0.0335845947265625,-0.922500610351562,0.222213745117188,-0.0205127319802263,-0.0934663016174209,0.0469446057992628
1493479099.0,40.4814932356034,-79.9131310545652,9.35999965667725,0.0771636962890625,-0.865631103515625,0.405426025390625,-0.079049545372386,-0.153710733900539,0.0891493174904025
1493479099.2,40.4814932356034,-79.9131310545652,9.35999965667725,0.152252197265625,-1.02914428710938,0.257492065429688,-0.0189510543170039,-0.174307089138994,0.121804199828627
1493479099.4,40.4815536691253,-79.9132024683802,9.61999988555908,-0.25347900390625,-0.987258911132812,0.431259155273438,0.0609733394734732,0.0315145167594527,-0.00265570423902702
1493479099.6,40.4815536691253,-79.9132024683802,9.61999988555908,-0.346343994140625,-0.864669799804688,0.352691650390625,0.0153619121159041,0.132833947799299,-0.193170259140025
1493479099.8,40.4815536691253,-79.9132024683802,9.61999988555908,-0.194732666015625,-0.850296020507812,0.366973876953125,0.10356261162602,0.00783368834646808,-0.0149531168885769
1493479100.0,40.4815536691253,-79.9132024683802,9.61999988555908,-0.101806640625,-0.839187622070312,0.319580078125,-0.0228326116057943,-0.0934489910703354,0.0607815918749875
1493479100.2,40.4816234903787,-79.9132727925479,9.85999965667725,-0.054901123046875,-0.999725341796875,0.292922973632812,-0.0728731421722742,-0.0739874087723634,-0.00695244834176086
1493479100.4,40.4816234903787,-79.9132727925479,9.85999965667725,-0.270095825195312,-0.945281982421875,0.340957641601562,-0.02026745484383,-0.225358555655268,0.112326542141253
1493479100.6,40.4816234903787,-79.9132727925479,9.85999965667725,-0.0767059326171875,-0.960189819335938,0.25677490234375,-0.0213678730062508,-0.0583698331918117,-0.0267234899584001
1493479100.8,40.4816234903787,-79.9132727925479,9.85999965667725,-0.149871826171875,-0.911239624023438,0.269302368164062,-0.00298487094976081,-0.165912805383064,0.0494434498500841
1493479101.0,40.4816234903787,-79.9132727925479,9.85999965667725,-0.086090087890625,-0.97503662109375,0.235092163085938,0.0696885341407575,-0.153622849584567,0.0373612206166126
1493479101.2,40.4816234903787,-79.9132727925479,9.85999965667725,-0.145767211914062,-0.943466186523438,0.34918212890625,0.0339904576248993,-0.208702347249586,0.0478000131413962
1493479101.4,40.481698173136,-79.9133385066687,10.3400001525879,-0.0800323486328125,-0.94580078125,0.387954711914062,-0.00635030761929394,-0.0839878449817199,0.028939506301455
1493479101.6,40.481698173136,-79.9133385066687,10.3400001525879,-0.0261077880859375,-0.981094360351562,0.32122802734375,-0.0513681163698844,-0.0656192239951164,-0.0174160082646822
1493479101.8,40.481698173136,-79.9133385066687,10.3400001525879,0.01019287109375,-1.05670166015625,0.283889770507812,0.115226191936131,-0.0975465307235313,0.00889495804086466
1493479102.0,40.481698173136,-79.9133385066687,10.3400001525879,-0.14495849609375,-0.925918579101562,0.3477783203125,0.157846090441214,-0.0605906432248288,0.0273615833555831
1493479102.2,40.4817817826201,-79.9133963418006,10.5500001907349,0.148101806640625,-0.998184204101562,0.19586181640625,-0.0983137874335832,0.115510351224443,-0.0674099335120857
1493479102.4,40.4817817826201,-79.9133963418006,10.5500001907349,-0.286788940429688,-0.719802856445312,0.321792602539062,-0.0368387084107391,-0.04762451082556,0.0200038018959122
1493479102.6,40.4817817826201,-79.9133963418006,10.5500001907349,0.03692626953125,-0.964065551757812,0.345687866210938,-0.0888017749681472,0.119704563625209,-0.059859871821711
1493479102.8,40.4817817826201,-79.9133963418006,10.5500001907349,-0.0565338134765625,-1.04795837402344,0.2786865234375,0.0897426697812722,-0.118645424459684,0.0694626980803188
1493479103.0,40.4817817826201,-79.9133963418006,10.5500001907349,-0.208816528320312,-0.9979248046875,0.36376953125,0.00420246820014504,-0.00107804760926408,0.0810780751746994
1493479103.2,40.4817817826201,-79.9133963418006,10.5500001907349,-0.0455780029296875,-1.0302734375,0.183547973632812,-0.0140886547987372,-0.00417317342815417,-0.0619738890950159
1493479103.4,40.4818757437547,-79.9134552665799,10.960000038147,-0.137969970703125,-0.936965942382812,0.4107666015625,0.0425629068577554,-0.20343967461948,0.0468079856353417
1493479103.6,40.4818757437547,-79.9134552665799,10.960000038147,0.12799072265625,-1.24200439453125,0.168350219726562,0.00879961687383982,-0.0340900598496683,0.0385617736360203
1493479103.8,40.4818757437547,-79.9134552665799,10.960000038147,-0.317703247070312,-1.0655517578125,0.365234375,0.171444723599377,-0.172364046807672,0.061908109016091
1493479104.0,40.4818757437547,-79.9134552665799,10.960000038147,-0.24627685546875,-0.982192993164062,0.303115844726562,0.0265133665483929,-0.200142947506071,0.0540986554355426
1493479104.2,40.4818757437547,-79.9134552665799,10.960000038147,-0.065826416015625,-0.943069458007812,0.397537231445312,0.031189877422572,-0.204421049481174,0.0989385650253158
1493479104.4,40.4819648852949,-79.913497930467,11.1999998092651,-0.132339477539062,-0.810333251953125,0.35565185546875,-0.0653007099287429,-0.133599073980479,0.0295301954312346
1493479104.6,40.4819648852949,-79.913497930467,11.1999998092651,-0.0812530517578125,-0.894500732421875,0.194564819335938,-0.0614215494849335,-0.00598731876271614,-0.0283349687340071
1493479104.8,40.4819648852949,-79.913497930467,11.1999998092651,-0.182037353515625,-0.870040893554688,0.337326049804688,-0.00170522204597774,-0.390338189392369,0.221696176524191
1493479105.0,40.4819648852949,-79.913497930467,11.1999998092651,-0.102371215820312,-0.971527099609375,0.31866455078125,-0.0100246709752763,-0.0158868211667587,0.0233950712280191
1493479105.2,40.4820670606945,-79.9135359843074,11.5900001525879,0.020111083984375,-0.903030395507812,0.28753662109375,0.0279213798167178,-0.0640130715416896,-0.05179342319597
1493479105.4,40.4820670606945,-79.9135359843074,11.5900001525879,-0.10748291015625,-0.837173461914062,0.323104858398438,0.0380443214362179,-0.150216666550355,0.0946040040351028
1493479105.6,40.4820670606945,-79.9135359843074,11.5900001525879,-0.164443969726562,-0.7581787109375,0.374038696289062,-0.0733162921776634,-0.159059426633855,0.134002809201735
1493479105.8,40.4820670606945,-79.9135359843074,11.5900001525879,-0.053009033203125,-1.13356018066406,0.288986206054688,-0.222500983805613,0.0344248191986913,0.0136263300334994
1493479106.0,40.4820670606945,-79.9135359843074,11.5900001525879,-0.269454956054688,-0.981475830078125,0.153472900390625,-0.0127437584482472,-0.136048116918916,0.155887868091679
1493479106.2,40.482165967152,-79.9135590345412,11.8400001525879,0.0606536865234375,-0.9822998046875,0.318115234375,-0.0355766363701505,0.187430081726469,-0.0989396302897518
1493479106.4,40.482165967152,-79.9135590345412,11.8400001525879,0.099212646484375,-0.891143798828125,0.287155151367188,-0.0340948535396304,-0.300787000893473,0.147564690736855
1493479106.6,40.482165967152,-79.9135590345412,11.8400001525879,-0.121002197265625,-0.876113891601562,0.41839599609375,0.0351095179149506,-0.00767469762939035,-0.00175315894559916
1493479106.8,40.482165967152,-79.9135590345412,11.8400001525879,-0.006927490234375,-0.8487548828125,0.33734130859375,0.0507981998966074,-0.0258582289202334,0.00911653304355925
1493479107.0,40.482165967152,-79.9135590345412,11.8400001525879,0.01141357421875,-0.9945068359375,0.352706909179688,0.0749799689106359,0.0729101601114263,0.00804301280814831
1493479107.2,40.4822785780211,-79.9135722779482,11.9200000762939,-0.092132568359375,-0.846343994140625,0.34326171875,-0.0318442161024045,0.0672136585397468,-0.0484791192193664
1493479107.4,40.4822785780211,-79.9135722779482,11.9200000762939,0.0726318359375,-0.83831787109375,0.275390625,-0.0578790126029101,-0.00387436675384728,0.025006550003626
1493479107.6,40.4822785780211,-79.9135722779482,11.9200000762939,-0.0238189697265625,-0.935165405273438,0.271224975585938,0.00676602706545531,-0.0330141427692763,0.0321408922478393
1493479107.8,40.4822785780211,-79.9135722779482,11.9200000762939,0.0383148193359375,-0.943374633789062,0.330291748046875,-0.0212879781735484,0.0107764813510056,0.00508530610150631
1493479108.0,40.4822785780211,-79.9135722779482,11.9200000762939,0.0887298583984375,-0.7901611328125,0.308502197265625,-0.109920642412476,0.131541782038393,-0.0665039261092407
1493479108.2,40.4823841480915,-79.9135859404503,12.0299997329712,-0.0152740478515625,-0.929122924804688,0.2188720703125,-0.0154223658726489,0.0692416557098422,-0.00246901664661246
1493479108.4,40.4823841480915,-79.9135859404503,12.0299997329712,-0.0544281005859375,-0.896697998046875,0.339263916015625,0.043255062425067,0.0571567633152806,-0.0167640664298308
1493479108.6,40.4823841480915,-79.9135859404503,12.0299997329712,0.0670013427734375,-0.956146240234375,0.2679443359375,0.00767842605491646,-0.128748925003227,0.0686485697350815
1493479108.8,40.4823841480915,-79.9135859404503,12.0299997329712,-0.0073699951171875,-0.832748413085938,0.374237060546875,0.0495995110899628,0.0220102274611779,-0.032601619116423
1493479109.0,40.4823841480915,-79.9135859404503,12.0299997329712,-0.019317626953125,-0.9052734375,0.27374267578125,-0.111047159553579,0.0751802386246099,-0.015191736122248
1493479109.2,40.4824828450014,-79.9136020337044,12.0900001525879,-0.0899505615234375,-1.02597045898438,0.289886474609375,-0.0148138335635658,0.035188613799326,-0.0652815351688943
1493479109.4,40.4824828450014,-79.9136020337044,12.0900001525879,-0.120147705078125,-0.981719970703125,0.266342163085938,-0.0491920474431806,-0.0379748129317669,-0.00573671530413969
1493479109.6,40.4824828450014,-79.9136020337044,12.0900001525879,0.0359039306640625,-0.826141357421875,0.3094482421875,-0.068932462707284,-0.0442225888490928,0.0324610042108668
1493479109.8,40.4824828450014,-79.9136020337044,12.0900001525879,-0.0359649658203125,-1.01109313964844,0.3095703125,-0.00932931961465658,-0.165872059018386,0.046179745934192
1493479110.0,40.4824828450014,-79.9136020337044,12.0900001525879,-0.0362548828125,-0.948532104492188,0.3524169921875,-0.0422044453750307,0.0300567023787433,-0.0122380241572411
1493479110.2,40.4826013232027,-79.9136156123876,12.4499998092651,-0.0848846435546875,-0.854598999023438,0.364181518554688,0.00697961258487967,0.0201601294518998,-0.0319669878286571
1493479110.4,40.4826013232027,-79.9136156123876,12.4499998092651,0.06103515625,-0.876754760742188,0.290237426757812,0.000825579937924564,0.0670051330263936,-0.0236211736045668
1493479110.6,40.4826013232027,-79.9136156123876,12.4499998092651,0.0337066650390625,-1.04618835449219,0.231170654296875,-0.00576308059893147,-0.0584670385715996,9.18790576077337e-05
1493479110.8,40.4826013232027,-79.9136156123876,12.4499998092651,0.0982208251953125,-0.927505493164062,0.290985107421875,0.0334993707198887,0.0731794056976333,0.00441898319676848
1493479111.0,40.4826013232027,-79.9136156123876,12.4499998092651,0.109817504882812,-1.02751159667969,0.304718017578125,-0.134257940034165,-0.0959201382458199,0.0308593791312932
1493479111.2,40.4827135987957,-79.9136314541846,12.6599998474121,-0.000885009765625,-0.991470336914062,0.279800415039062,-0.0101607585069793,0.0798338463134143,-0.0696139656302353
1493479111.4,40.4827135987957,-79.9136314541846,12.6599998474121,0.144607543945312,-0.85198974609375,0.250869750976562,0.0185113664210318,-0.00330418396446131,0.046045256299143
1493479111.6,40.4827135987957,-79.9136314541846,12.6599998474121,-0.02777099609375,-0.965057373046875,0.273529052734375,0.0391681754162314,-0.0513026026070684,0.0666386820603987
1493479111.8,40.4827135987957,-79.9136314541846,12.6599998474121,0.114669799804688,-0.979782104492188,0.247283935546875,-0.0547109161701518,0.0524749261189213,-0.0198874217562757
1493479112.0,40.4827135987957,-79.9136314541846,12.6599998474121,0.070953369140625,-1.01565551757812,0.253799438476562,0.0256228054798704,0.0168535486424575,0.00448369801125741
1493479112.2,40.4828212643419,-79.9136497267335,12.8199996948242,0.030303955078125,-0.693618774414062,0.248184204101562,-0.203702262302962,0.113004050322569,-0.0716811112683548
1493479112.4,40.4828212643419,-79.9136497267335,12.8199996948242,-0.10943603515625,-1.02276611328125,0.39678955078125,-0.165239558259492,0.141462856047265,-0.142797099753395
1493479112.6,40.4828212643419,-79.9136497267335,12.8199996948242,-0.05059814453125,-1.113525390625,0.181167602539062,-0.0355404173793255,0.0257548982699383,-0.034549188821598
1493479112.8,40.4828212643419,-79.9136497267335,12.8199996948242,-0.0792388916015625,-0.890457153320312,0.143844604492188,0.0176983033402306,-0.0341523778191761,0.0109314773264482
1493479113.0,40.4828212643419,-79.9136497267335,12.8199996948242,-0.0254058837890625,-0.935317993164062,0.218658447265625,-0.00220190158927751,-0.0850773441836713,0.0364482889949335
1493479113.2,40.4829360125963,-79.9136726931482,12.1999998092651,-0.239395141601562,-0.7366943359375,0.385086059570312,0.126991771315992,0.106590892101549,-0.116258433174646
1493479113.4,40.4829360125963,-79.9136726931482,12.1999998092651,-0.019378662109375,-1.056396484375,0.248992919921875,-0.0316205105708378,0.0384866724932801,-0.0803891154006958
1493479113.6,40.4829360125963,-79.9136726931482,12.1999998092651,-0.0733642578125,-1.00164794921875,0.336883544921875,0.0626013298478386,0.00702968001337316,-0.0569527651757805
1493479113.8,40.4829360125963,-79.9136726931482,12.1999998092651,-0.04498291015625,-0.947525024414062,0.341796875,-0.0311845511003918,0.201229517230823,-0.101062702310763
1493479114.0,40.4829360125963,-79.9136726931482,12.1999998092651,0.0239715576171875,-0.812026977539062,0.371871948242188,0.0380006455943407,-0.00770239450472717,-0.0571666170113139
1493479114.2,40.4829360125963,-79.9136726931482,12.1999998092651,-0.2689208984375,-0.8724365234375,0.35675048828125,0.0322287765638119,-0.308668626139563,0.121608723804615
1493479114.4,40.4830412893002,-79.9136935640871,12.0600004196167,-0.0776214599609375,-0.905166625976562,0.322799682617188,0.0467344823892555,0.140070821745481,-0.224854152944807
1493479114.6,40.4830412893002,-79.9136935640871,12.0600004196167,0.0018463134765625,-0.808486938476562,0.370330810546875,-0.0846786689684865,0.0196810267717946,-0.104340520980432
1493479114.8,40.4830412893002,-79.9136935640871,12.0600004196167,0.208084106445312,-1.03746032714844,0.381866455078125,-0.073673155763734,0.123858828609623,-0.0735764830161642
1493479115.0,40.4830412893002,-79.9136935640871,12.0600004196167,0.0704803466796875,-0.993301391601562,0.351516723632812,-0.00338354616494567,0.104252902980569,-0.0845345919535132
1493479115.2,40.4831514694174,-79.9137156084924,13.1000003814697,0.162918090820312,-0.87811279296875,0.415618896484375,0.0401801766304615,0.277334671702018,-0.215679562989484
1493479115.4,40.4831514694174,-79.9137156084924,13.1000003814697,0.0663604736328125,-0.859237670898438,0.454986572265625,-0.0222741467252047,0.0309944013985602,0.0103541040021191
1493479115.6,40.4831514694174,-79.9137156084924,13.1000003814697,0.228805541992188,-0.9849853515625,0.39801025390625,-0.0587562578659822,0.105676895215434,-0.0840389776746494
1493479115.8,40.4831514694174,-79.9137156084924,13.1000003814697,0.250274658203125,-0.866775512695312,0.409927368164062,0.0154708354044883,0.036062396952981,-0.0212589497176665
1493479116.0,40.4831514694174,-79.9137156084924,13.1000003814697,0.34747314453125,-1.02024841308594,0.3924560546875,-0.0316719095798763,0.159749717988403,-0.0881660784159452
1493479116.2,40.4832792934407,-79.9137502257525,14.0100002288818,0.157196044921875,-0.832962036132812,0.364105224609375,-0.00252041565565099,0.0819220309241455,-0.00450207382277895
1493479116.4,40.4832792934407,-79.9137502257525,14.0100002288818,0.149765014648438,-0.770889282226562,0.313446044921875,0.0387900065414401,-0.0236366199388893,0.109211975246405
1493479116.6,40.4832792934407,-79.9137502257525,14.0100002288818,-0.033721923828125,-0.855575561523438,0.300384521484375,0.0309515245050099,-0.117184147969558,0.163750052261811
1493479116.8,40.4832792934407,-79.9137502257525,14.0100002288818,0.106109619140625,-0.745086669921875,0.412673950195312,0.0495624931508107,0.245374075459977,-0.140866041646978
1493479117.0,40.4832792934407,-79.9137502257525,14.0100002288818,0.397918701171875,-0.91943359375,0.22821044921875,0.0150599096482891,-0.263875321868866,0.155436195970802
1493479117.2,40.4833963467185,-79.9137949851154,14.8900003433228,0.0714111328125,-0.869155883789062,0.374359130859375,-0.0275775657199885,-0.0742638448935136,0.106530704660914
1493479117.4,40.4833963467185,-79.9137949851154,14.8900003433228,0.21923828125,-0.835861206054688,0.29962158203125,-0.105356783252407,0.150657153394655,-0.0782348843949308
1493479117.6,40.4833963467185,-79.9137949851154,14.8900003433228,0.0379638671875,-1.00602722167969,0.35076904296875,0.0656903303962215,-0.288666688456414,0.177342826465576
1493479117.8,40.4833963467185,-79.9137949851154,14.8900003433228,-0.29071044921875,-0.838363647460938,0.60260009765625,0.106186890564184,0.313075092479208,-0.194837930614633
1493479118.0,40.4833963467185,-79.9137949851154,14.8900003433228,0.13934326171875,-0.879638671875,0.362594604492188,-0.00571008369323889,0.105334146383141,-0.0696342056545199
1493479118.2,40.4835253022988,-79.9138463661819,15.210000038147,0.0213470458984375,-0.803253173828125,0.37841796875,-0.074513649403763,-0.120765300687387,0.0869783085697699
1493479118.4,40.4835253022988,-79.9138463661819,15.210000038147,0.225936889648438,-0.923248291015625,0.2850341796875,-0.0396467454641186,0.0311113141704147,0.0346988584748604
1493479118.6,40.4835253022988,-79.9138463661819,15.210000038147,-0.008270263671875,-0.783615112304688,0.37591552734375,-0.0702406074347309,-0.196311457645774,0.12240207949335
1493479118.8,40.4835253022988,-79.9138463661819,15.210000038147,-0.0920562744140625,-0.883773803710938,0.435531616210938,0.0822717039752729,0.163263759046763,-0.0859423389057291
1493479119.0,40.4835253022988,-79.9138463661819,15.210000038147,0.256362915039062,-1.00459289550781,0.299209594726562,0.106908873535705,-0.132588138030685,0.0526150083922595
1493479119.2,40.4836505698417,-79.9139028602093,15.6000003814697,0.120895385742188,-1.10369873046875,0.391708374023438,-0.033341711583356,-0.0391527290819089,-0.0748753066797958
1493479119.4,40.4836505698417,-79.9139028602093,15.6000003814697,-0.0131378173828125,-0.953231811523438,0.291595458984375,0.055690959451301,0.0155912102857599,-0.0143970488529684
1493479119.6,40.4836505698417,-79.9139028602093,15.6000003814697,0.219863891601562,-0.917068481445312,0.334945678710938,-0.0130886378094124,-0.137105658187786,0.18040998909302
1493479119.8,40.4836505698417,-79.9139028602093,15.6000003814697,0.148605346679688,-0.961196899414062,0.290542602539062,0.00518038095242213,0.0797414346235886,-0.0236094556957705
1493479120.0,40.4836505698417,-79.9139028602093,15.6000003814697,0.13189697265625,-1.03248596191406,0.28729248046875,-0.0638146660404787,0.0408390426841471,0.016300676400157
1493479120.2,40.4837770946701,-79.9139632937311,15.960000038147,0.0381927490234375,-0.680877685546875,0.3636474609375,-0.0419604998191795,-0.0805592913943519,0.0648173461908935
1493479120.4,40.4837770946701,-79.9139632937311,15.960000038147,0.1619873046875,-0.798797607421875,0.265167236328125,-0.125795479354329,-0.00449914434557987,0.00725338554493981
1493479120.6,40.4837770946701,-79.9139632937311,15.960000038147,0.101760864257812,-0.789016723632812,0.2623291015625,-0.073873958109926,0.0164423565701492,0.0375849261481793
1493479120.8,40.4837770946701,-79.9139632937311,15.960000038147,-0.0224151611328125,-0.9068603515625,0.300949096679688,-0.0539535131561333,0.194987067635678,-0.152457982923766
1493479121.0,40.4837770946701,-79.9139632937311,15.960000038147,0.357040405273438,-0.978530883789062,0.22174072265625,-0.0281434874516304,0.178871480931281,-0.102040082430822
1493479121.2,40.4839111411249,-79.9140718819456,16.2299995422363,0.0658416748046875,-0.914688110351562,0.309677124023438,-0.000468716351853946,0.0234123817751046,0.0468481993678019
1493479121.4,40.4839111411249,-79.9140718819456,16.2299995422363,0.28643798828125,-0.9747314453125,0.241073608398438,-0.0853194255267595,0.221792050323434,-0.102736232739769
1493479121.6,40.4839111411249,-79.9140718819456,16.2299995422363,-0.0382080078125,-0.865615844726562,0.303390502929688,-0.0603312513346551,-0.126180572447954,0.0594159228679948
1493479121.8,40.4839111411249,-79.9140718819456,16.2299995422363,0.28057861328125,-0.745513916015625,0.21514892578125,-0.0858778904073492,0.120752517514155,-0.0395745737985775
1493479122.0,40.4839111411249,-79.9140718819456,16.2299995422363,0.31121826171875,-0.939437866210938,0.279693603515625,-0.00337742089443849,0.109584285166799,-0.00458223497159034
1493479122.2,40.4840299863651,-79.914150846192,16.4899997711182,0.354217529296875,-1.11233520507812,0.1961669921875,0.0955265230367062,0.189767271899122,-0.106133094710165
1493479122.4,40.4840299863651,-79.914150846192,16.4899997711182,0.170440673828125,-0.91583251953125,0.25872802734375,0.0963726093150244,0.0493784687194862,0.0658983232773567
1493479122.6,40.4840299863651,-79.914150846192,16.4899997711182,0.210479736328125,-0.88922119140625,0.311737060546875,0.178499171010888,0.214772490322203,-0.00832264472260663
1493479122.8,40.4840299863651,-79.914150846192,16.4899997711182,0.241622924804688,-0.854507446289062,0.335723876953125,-0.184881969195481,0.170331522263724,-0.0151270213077591
1493479123.0,40.4840299863651,-79.914150846192,16.4899997711182,0.27227783203125,-0.897216796875,0.191238403320312,0.0155440723344655,0.129676504010901,0.0243474176338314
1493479123.2,40.4840299863651,-79.914150846192,16.4899997711182,0.274688720703125,-1.03569030761719,0.301101684570312,-0.130838441194503,0.172098263330883,-0.0721538223618438
1493479123.4,40.4841598998997,-79.9142466316967,16.6700000762939,0.448974609375,-1.0103759765625,0.20843505859375,0.0845023677043232,0.149418517171659,-0.100810767271641
1493479123.6,40.4841598998997,-79.9142466316967,16.6700000762939,0.0613555908203125,-0.930999755859375,0.249603271484375,-0.00326636707698219,-0.0701521904865403,0.199529621507026
1493479123.8,40.4841598998997,-79.9142466316967,16.6700000762939,0.467254638671875,-0.979415893554688,0.130279541015625,0.0106995159955023,0.213718677478859,-0.119857961703997
1493479124.0,40.4841598998997,-79.9142466316967,16.6700000762939,0.106857299804688,-0.877517700195312,0.2701416015625,-0.0119527996044936,-0.0424470593503369,0.1492571296096
1493479124.2,40.4843131655395,-79.9143692863742,16.4599990844727,0.39923095703125,-1.03041076660156,0.158920288085938,0.022619292402479,0.241297841095501,-0.119807095327177
1493479124.4,40.4843131655395,-79.9143692863742,16.4599990844727,0.190048217773438,-1.02542114257812,0.294891357421875,-0.0644423731094104,0.249307830706133,-0.134579916209955
1493479124.6,40.4843131655395,-79.9143692863742,16.4599990844727,0.21185302734375,-0.90728759765625,0.227020263671875,0.116584670408181,0.319405692706435,-0.0955899062706501
1493479124.8,40.4843131655395,-79.9143692863742,16.4599990844727,0.398895263671875,-0.741744995117188,0.138153076171875,-0.179168157076716,0.220288962204193,-0.0162636584610049
1493479125.0,40.4843131655395,-79.9143692863742,16.4599990844727,0.26220703125,-0.822052001953125,0.306930541992188,-0.05229542906145,-0.0538879993933173,0.133946616502734
1493479125.2,40.4843711168859,-79.9144458394786,16.2099990844727,0.317535400390625,-0.860885620117188,0.183441162109375,-0.100812897800514,0.184666253147184,-0.0804085564766534
1493479125.4,40.4843711168859,-79.9144458394786,16.2099990844727,0.340469360351562,-1.1629638671875,0.162261962890625,0.093032206359738,0.238723096953613,-0.0529742688233112
1493479125.6,40.4843711168859,-79.9144458394786,16.2099990844727,0.304702758789062,-1.099853515625,0.135177612304688,0.0130321787943028,0.206266886432708,-0.0611730765552291
1493479125.8,40.4843711168859,-79.9144458394786,16.2099990844727,0.272781372070312,-0.923934936523438,0.167938232421875,-0.0232691037084583,0.158645038768238,-0.00278007386193372
1493479126.0,40.4843711168859,-79.9144458394786,16.2099990844727,0.256744384765625,-1.06051635742188,0.143661499023438,0.0150452622622936,0.121162644322027,-0.0214829215653422
1493479126.2,40.4844642130859,-79.9146263894319,16.0599994659424,0.0771636962890625,-0.816879272460938,0.255767822265625,-0.0536349990897598,0.133305060996134,-0.0542038502986008
1493479126.4,40.4844642130859,-79.9146263894319,16.0599994659424,0.17425537109375,-1.01040649414062,0.194107055664062,-0.0280665220961271,0.31075787601473,-0.190875413228704
1493479126.6,40.4844642130859,-79.9146263894319,16.0599994659424,0.347702026367188,-0.911178588867188,0.22760009765625,0.0106174906339279,-0.0521830436634486,0.051421645907795
1493479126.8,40.4844642130859,-79.9146263894319,16.0599994659424,0.138565063476562,-1.00834655761719,0.174514770507812,-0.032433041019421,0.165070181214163,-0.107379454100322
1493479127.0,40.4844642130859,-79.9146263894319,16.0599994659424,0.323165893554688,-0.965057373046875,0.139419555664062,-0.156813582886591,0.240343630476926,-0.0821918091425705
1493479127.2,40.4845143826088,-79.9147623345799,15.7200002670288,0.512771606445312,-0.988143920898438,0.148834228515625,-0.036063728533526,0.0204453540046473,0.000644218667690168
1493479127.4,40.4845143826088,-79.9147623345799,15.7200002670288,0.279052734375,-0.969512939453125,0.193374633789062,0.0450795940878803,0.0731056361354381,0.0141336622211595
1493479127.6,40.4845143826088,-79.9147623345799,15.7200002670288,0.4039306640625,-0.79180908203125,0.166946411132812,-0.026517627606137,0.284159288311455,-0.163069348287187
1493479127.8,40.4845143826088,-79.9147623345799,15.7200002670288,0.547622680664062,-0.987716674804688,0.167816162109375,0.097433346377203,0.0312868164862509,0.0563599455171289
1493479128.0,40.4845143826088,-79.9147623345799,15.7200002670288,0.274658203125,-0.977508544921875,0.240264892578125,-0.0514621259563642,0.116281868992239,0.0109013836061304
1493479128.2,40.4845480242176,-79.9149416899453,15.2700004577637,0.398300170898438,-0.933135986328125,0.190109252929688,0.00554097296401886,0.278642816429465,-0.0966216148769468
1493479128.4,40.4845480242176,-79.9149416899453,15.2700004577637,0.401504516601562,-0.914627075195312,0.209243774414062,0.00955302514622323,0.19565472212096,-0.0462543144447142
1493479128.6,40.4845480242176,-79.9149416899453,15.2700004577637,0.414642333984375,-0.984542846679688,0.132888793945312,0.0178543645801092,0.298780575328208,-0.0517665252689602
1493479128.8,40.4845480242176,-79.9149416899453,15.2700004577637,0.326553344726562,-0.964767456054688,0.1934814453125,0.043960800113938,0.16671654740005,-0.0085098649472392
1493479129.0,40.4845480242176,-79.9149416899453,15.2700004577637,0.339202880859375,-1.05531311035156,0.167877197265625,-0.0176013642765517,0.244760483144822,-0.0583874100550062
1493479129.2,40.4845480242176,-79.9149416899453,15.2700004577637,0.32891845703125,-1.066162109375,0.220306396484375,-0.109534484054414,0.210256834377865,-0.0517761126488845
1493479129.4,40.4845620903328,-79.9151361112398,15.1400003433228,0.424636840820312,-0.886276245117188,0.318069458007812,-0.0151656371435652,0.266017302333617,-0.0690794691994564
1493479129.6,40.4845620903328,-79.9151361112398,15.1400003433228,0.43115234375,-1.06150817871094,0.12353515625,-0.0931067748702602,0.249505703575126,-0.0634375624301235
1493479129.8,40.4845620903328,-79.9151361112398,15.1400003433228,0.404083251953125,-0.855667114257812,0.183151245117188,0.0147749514116506,0.0871255813780513,-0.0203316370261009
1493479130.0,40.4845620903328,-79.9151361112398,15.1400003433228,0.349197387695312,-0.925552368164062,0.223434448242188,0.0302537762994092,0.194463223849259,-0.00339073669988889
1493479130.2,40.4845475298041,-79.9153168698058,14.9399995803833,0.460540771484375,-0.930252075195312,0.2847900390625,0.0537053065425379,0.104962635411075,0.0237356895314402
1493479130.4,40.4845475298041,-79.9153168698058,14.9399995803833,0.275421142578125,-1.00048828125,0.134933471679688,0.0209287177424967,0.235997085261808,-0.0771621631078468
1493479130.6,40.4845475298041,-79.9153168698058,14.9399995803833,0.253860473632812,-0.961257934570312,0.305374145507812,0.0127560089892615,0.146710881291375,0.00401684587216652
1493479130.8,40.4845475298041,-79.9153168698058,14.9399995803833,0.369873046875,-0.799819946289062,0.379058837890625,-0.0848712155152992,0.196264852326698,-0.0717455597667347
1493479131.0,40.4845475298041,-79.9153168698058,14.9399995803833,0.465072631835938,-0.841659545898438,0.270706176757812,-0.110554208435805,0.326193557692829,-0.146978795297037
1493479131.2,40.4845475298041,-79.9153168698058,14.9399995803833,0.41876220703125,-1.08363342285156,0.237716674804688,-0.0224698890653256,0.290505867505223,-0.221686056512049
1493479131.4,40.4845082441304,-79.915483627747,15.2200002670288,0.487625122070312,-0.9981689453125,0.170806884765625,-0.00223199530959541,0.0819292214590887,0.0520102045087025
1493479131.6,40.4845082441304,-79.915483627747,15.2200002670288,0.317901611328125,-1.10072326660156,0.160186767578125,-0.021375329857303,0.144805922163641,0.00687095561240443
1493479131.8,40.4845082441304,-79.915483627747,15.2200002670288,0.508682250976562,-0.970504760742188,0.19866943359375,0.0199124554705225,0.341308062143465,-0.100901048432595
1493479132.0,40.4845082441304,-79.915483627747,15.2200002670288,0.382293701171875,-1.07261657714844,0.159622192382812,0.0160732424430642,0.125399200984125,-0.0939858843460954
1493479132.2,40.4845082441304,-79.915483627747,15.2200002670288,0.3616943359375,-1.05267333984375,0.10382080078125,-0.0461909312107703,0.342790377606203,-0.171951789470928
1493479132.4,40.4844418485933,-79.9156149980095,15.3800001144409,0.58782958984375,-0.836959838867188,0.2301025390625,-0.10394131313303,0.329351800429554,-0.0840126123798577
1493479132.6,40.4844418485933,-79.9156149980095,15.3800001144409,0.358154296875,-1.04673767089844,0.088287353515625,-0.0171451647818211,0.558526932243015,-0.230852923300211
1493479132.8,40.4844418485933,-79.9156149980095,15.3800001144409,0.67547607421875,-1.08560180664062,0.0762481689453125,0.0608913141118987,0.138948565662121,-0.015728363081899
1493479133.0,40.4844418485933,-79.9156149980095,15.3800001144409,0.412979125976562,-1.02641296386719,0.123733520507812,0.0432489371545598,0.180546609256941,-0.0266784825359778
1493479133.2,40.4843361797927,-79.9157339112621,15.0299997329712,0.42816162109375,-0.975997924804688,0.173324584960938,0.00838016900215234,0.312658041452502,-0.129732963026011
1493479133.4,40.4843361797927,-79.9157339112621,15.0299997329712,0.432266235351562,-0.949142456054688,0.234634399414062,-0.080663154676865,0.346210675394192,-0.141393347542814
1493479133.6,40.4843361797927,-79.9157339112621,15.0299997329712,0.403701782226562,-0.913864135742188,0.175262451171875,-0.0084462153971863,0.228748759722939,-0.035861860922898
1493479133.8,40.4843361797927,-79.9157339112621,15.0299997329712,0.422882080078125,-0.956832885742188,0.1109619140625,0.0397535382238308,0.293312040345839,-0.098441619165907
1493479134.0,40.4843361797927,-79.9157339112621,15.0299997329712,0.456787109375,-0.922882080078125,0.25341796875,0.011528558042844,0.223290344752713,-0.0974836801218055
1493479134.2,40.4842308180127,-79.9158057345491,14.9300003051758,0.335418701171875,-1.03277587890625,0.1741943359375,-0.0552233083638831,-0.0730206812966646,0.104112021758904
1493479134.4,40.4842308180127,-79.9158057345491,14.9300003051758,0.178298950195312,-0.95733642578125,0.209945678710938,-0.0855820132102414,0.0229013211619184,0.0406470287695524
1493479134.6,40.4842308180127,-79.9158057345491,14.9300003051758,0.609405517578125,-1.12388610839844,0.155548095703125,0.0589024654098275,0.416564999807469,-0.184926976617903
1493479134.8,40.4842308180127,-79.9158057345491,14.9300003051758,0.533203125,-1.01786804199219,0.342910766601562,0.138639638975672,0.410741199135684,-0.100930875836804
1493479135.0,40.4842308180127,-79.9158057345491,14.9300003051758,0.500106811523438,-0.883590698242188,0.266647338867188,0.0198735733186073,0.06688262761625,-0.0148961252412492
1493479135.2,40.4840744262078,-79.9158513752493,15.1400003433228,0.363250732421875,-0.876907348632812,0.322509765625,-0.0140119557593429,0.393641308092394,-0.161091418545585
1493479135.4,40.4840744262078,-79.9158513752493,15.1400003433228,0.337066650390625,-0.6304931640625,0.212875366210938,-0.000101466437532019,0.24465369038511,-0.0144931889683202
1493479135.6,40.4840744262078,-79.9158513752493,15.1400003433228,0.202728271484375,-1.0069580078125,0.200210571289062,0.00904516032634512,0.152060106656908,0.0444811817909395
1493479135.8,40.4840744262078,-79.9158513752493,15.1400003433228,0.156585693359375,-0.893783569335938,0.318038940429688,0.0706627184675085,0.332471693646582,-0.0790343653541725
1493479136.0,40.4840744262078,-79.9158513752493,15.1400003433228,0.536026000976562,-0.984268188476562,0.233291625976562,-0.00221575002694593,-0.0648522336011736,0.125957932180824
1493479136.2,40.4839345631975,-79.9158443035545,15.3100004196167,0.493515014648438,-0.82342529296875,0.274429321289062,-0.0882361195526143,0.30690028717575,-0.154164003918071
1493479136.4,40.4839345631975,-79.9158443035545,15.3100004196167,0.2230224609375,-1.14013671875,0.194580078125,0.0712584676033592,0.0846424499776614,0.0527556232978157
1493479136.6,40.4839345631975,-79.9158443035545,15.3100004196167,0.0089874267578125,-0.854721069335938,0.382492065429688,0.0311022594227084,0.428449089855839,-0.170315276981074
1493479136.8,40.4839345631975,-79.9158443035545,15.3100004196167,0.35479736328125,-1.12489318847656,0.227020263671875,-0.0280396241691173,0.19269914594319,-0.102074703524993
1493479137.0,40.4839345631975,-79.9158443035545,15.3100004196167,-0.166458129882812,-0.882888793945312,0.24407958984375,0.036633378690694,0.196537027390104,-0.0790319685091915
1493479137.2,40.4837983479594,-79.9158017824171,15.7200002670288,-0.095001220703125,-0.943008422851562,0.273880004882812,0.0274968719389591,-0.154404487364505,0.0849108966155414
1493479137.4,40.4837983479594,-79.9158017824171,15.7200002670288,-0.0476837158203125,-0.972244262695312,0.223007202148438,0.035726306023413,-0.0725535628414647,0.0730555687069447
1493479137.6,40.4837983479594,-79.9158017824171,15.7200002670288,0.025787353515625,-1.0118408203125,0.222946166992188,0.0898081835440881,0.128120418985968,-0.0335299970724246
1493479137.8,40.4837983479594,-79.9158017824171,15.7200002670288,-0.383941650390625,-1.08818054199219,0.229812622070312,0.019796607963104,0.22641849376912,-0.154982659637161
1493479138.0,40.4837983479594,-79.9158017824171,15.7200002670288,-0.116500854492188,-1.08206176757812,0.18756103515625,0.0260696839107857,0.012602610910473,0.0471478049904358
1493479138.2,40.4836536199071,-79.9157374308731,15.9899997711182,-0.319671630859375,-0.803466796875,0.20623779296875,0.0212395086417089,-0.0926766743542125,0.0313768313310956
1493479138.4,40.4836536199071,-79.9157374308731,15.9899997711182,-0.285324096679688,-0.831756591796875,0.2020263671875,0.037005688611087,-0.241685597350217,0.120418557113459
1493479138.6,40.4836536199071,-79.9157374308731,15.9899997711182,-0.147735595703125,-0.878433227539062,0.34173583984375,-0.0863591236163265,-0.0207132680103093,-0.00402936272928989
1493479138.8,40.4836536199071,-79.9157374308731,15.9899997711182,-0.38531494140625,-0.782257080078125,0.380050659179688,-0.19331406983889,-0.225302895588486,0.0732371962932881
1493479139.0,40.4836536199071,-79.9157374308731,15.9899997711182,-0.16119384765625,-1.03395080566406,0.241744995117188,0.095687111650438,0.0674384293357495,-0.106881975608695
1493479139.2,40.4835174382541,-79.9156859764174,15.8999996185303,-0.386474609375,-0.90521240234375,0.27313232421875,-0.0265751518856827,0.0150532517455639,-0.0728134873638565
1493479139.4,40.4835174382541,-79.9156859764174,15.8999996185303,-0.223617553710938,-0.9208984375,0.343170166015625,-0.0680221942466949,-0.13890595508468,-0.00780146409727812
1493479139.6,40.4835174382541,-79.9156859764174,15.8999996185303,-0.256362915039062,-0.951080322265625,0.223785400390625,-0.0596534768372299,-0.108108094974568,0.0199263039081909
1493479139.8,40.4835174382541,-79.9156859764174,15.8999996185303,-0.2781982421875,-0.943740844726562,0.298141479492188,-0.0320436868680514,-0.143392582573136,0.00643925719970259
1493479140.0,40.4835174382541,-79.9156859764174,15.8999996185303,-0.331588745117188,-0.928802490234375,0.325408935546875,0.0125458855792543,-0.151127733959272,0.0122468125888384
1493479140.2,40.4835174382541,-79.9156859764174,15.8999996185303,-0.341949462890625,-0.933700561523438,0.345733642578125,0.0316085263459325,-0.198058225004757,-0.0055625445688485
1493479140.4,40.4833766347225,-79.9156525793425,15.75,-0.144866943359375,-0.915557861328125,0.314193725585938,-0.0401687250377742,-0.147599578147135,-0.0245532799860945
1493479140.6,40.4833766347225,-79.9156525793425,15.75,-0.0631103515625,-0.855255126953125,0.270904541015625,-0.00988219185695703,-0.0690800018316744,-0.0159161159387496
1493479140.8,40.4833766347225,-79.9156525793425,15.75,-0.29443359375,-0.905609130859375,0.312164306640625,-0.0335507697289273,-0.0572337286707839,-0.0694997160194709
1493479141.0,40.4833766347225,-79.9156525793425,15.75,-0.527099609375,-0.992660522460938,0.249847412109375,0.0440036770074883,-0.357656409127135,0.245536528286472
1493479141.2,40.4833766347225,-79.9156525793425,15.75,-0.117889404296875,-0.791336059570312,0.242340087890625,-0.0274055255135694,0.0969694237153112,-0.0453118217349352
1493479141.4,40.4832404580955,-79.9156337364867,16.0,-0.19818115234375,-0.976821899414062,0.316146850585938,-0.0496514427312193,-0.0698808143714612,0.0103341302939435
1493479141.6,40.4832404580955,-79.9156337364867,16.0,-0.250244140625,-0.83251953125,0.365570068359375,0.0522940974809049,-0.507680262814568,0.335570547890998
1493479141.8,40.4832404580955,-79.9156337364867,16.0,-0.1278076171875,-1.06794738769531,0.268508911132812,0.0744944746439145,0.015460715392346,-0.0653824689742084
1493479142.0,40.4832404580955,-79.9156337364867,16.0,-0.315383911132812,-0.944046020507812,0.312713623046875,-0.0290937033285706,-0.175310834553845,0.0843854549324688
1493479142.2,40.4832404580955,-79.9156337364867,16.0,-0.158477783203125,-0.887496948242188,0.28594970703125,-0.0437429535367695,-0.162452826494834,0.0724739343248713
1493479142.4,40.4830858489314,-79.9156941161054,16.3700008392334,-0.134078979492188,-0.96728515625,0.296066284179688,0.0420696894238727,0.00928191534725317,-0.111545703309642
1493479142.6,40.4830858489314,-79.9156941161054,16.3700008392334,-0.230804443359375,-0.895278930664062,0.271316528320312,0.0384951946087684,0.0263181568404901,-0.152142398334592
1493479142.8,40.4830858489314,-79.9156941161054,16.3700008392334,-0.204345703125,-1.00732421875,0.21405029296875,-0.0526869137416916,-0.293238537099753,0.0322037428495652
1493479143.0,40.4830858489314,-79.9156941161054,16.3700008392334,-0.256393432617188,-0.952178955078125,0.242568969726562,-0.0852256822563888,-0.18453602456988,-0.0206544121502185
1493479143.2,40.4829352586021,-79.9157744866514,17.2399997711182,-0.0280609130859375,-0.91455078125,0.243377685546875,-0.00824035304492318,0.0617389982868709,-0.0642165370489717
1493479143.4,40.4829352586021,-79.9157744866514,17.2399997711182,-0.28985595703125,-1.01255798339844,0.2794189453125,0.0379697529256957,-0.234256443173332,0.0543039851555877
1493479143.6,40.4829352586021,-79.9157744866514,17.2399997711182,-0.191879272460938,-0.83673095703125,0.342987060546875,-0.00124183201630395,-0.0957329180211874,-0.0392155796836348
1493479143.8,40.4829352586021,-79.9157744866514,17.2399997711182,-0.383529663085938,-0.90631103515625,0.35101318359375,0.0355060626012634,-0.21827934084562,0.0872901647334182
1493479144.0,40.4829352586021,-79.9157744866514,17.2399997711182,-0.212982177734375,-0.939651489257812,0.288436889648438,-0.0253484998875922,0.0235663124861112,-0.00245277136396298
1493479144.2,40.4827892272488,-79.9158629963573,18.2000007629395,0.04620361328125,-0.903488159179688,0.23736572265625,0.0388573845170191,-0.177878121844681,0.0978823553369903
1493479144.4,40.4827892272488,-79.9158629963573,18.2000007629395,-0.11767578125,-0.733383178710938,0.311676025390625,-0.0687761351512963,-0.035727371287849,-0.0517902274026619
1493479144.6,40.4827892272488,-79.9158629963573,18.2000007629395,-0.100204467773438,-0.979248046875,0.177749633789062,0.114608338563233,-0.0432808950876408,0.083383573730381
1493479144.8,40.4827892272488,-79.9158629963573,18.2000007629395,-0.0442047119140625,-0.957748413085938,0.270172119140625,-0.0316194453064018,-0.113601131038965,0.0692733473268141
1493479145.0,40.4827892272488,-79.9158629963573,18.2000007629395,-0.1065673828125,-1.10557556152344,0.164596557617188,0.0837028867450814,0.0143413887861857,-0.0386299505599264
1493479145.2,40.4827892272488,-79.9158629963573,18.2000007629395,0.098907470703125,-0.996383666992188,0.251495361328125,0.00192360125536423,0.0148708252108935,-0.0543955978970865
1493479145.4,40.4826413410565,-79.9159671550832,18.9099998474121,0.0319976806640625,-1.05416870117188,0.306732177734375,0.000936900071489876,-0.0872371678277256,-0.0381489836670581
1493479145.6,40.4826413410565,-79.9159671550832,18.9099998474121,-0.0343170166015625,-1.08497619628906,0.106246948242188,-0.129387284716519,0.0550898839932701,-0.00893037808336271
1493479145.8,40.4826413410565,-79.9159671550832,18.9099998474121,0.1162109375,-0.802322387695312,0.0526275634765625,0.0188477236667088,0.189189898574793,-0.183684079337163
1493479146.0,40.4826413410565,-79.9159671550832,18.9099998474121,0.111572265625,-0.937698364257812,0.113800048828125,-0.04335626254649,-0.0316234400480369,0.0380214182508433
1493479146.2,40.4826413410565,-79.9159671550832,18.9099998474121,-0.046234130859375,-0.915771484375,0.250869750976562,0.0668219075433962,-0.0982898189837725,0.0435863596646728
1493479146.4,40.4824843679558,-79.9160806637147,18.9799995422363,-0.023284912109375,-0.902267456054688,0.172271728515625,0.0432105876348627,-0.0768702806523742,-0.00895514548150045
1493479146.6,40.4824843679558,-79.9160806637147,18.9799995422363,-0.112808227539062,-1.13394165039062,0.1146240234375,0.0319017403819502,-0.194847251678448,0.129841353682377
1493479146.8,40.4824843679558,-79.9160806637147,18.9799995422363,-0.0848846435546875,-1.01260375976562,0.143142700195312,-0.0606894465012707,0.166312013230467,-0.142857020877921
1493479147.0,40.4824843679558,-79.9160806637147,18.9799995422363,0.1953125,-0.954513549804688,0.18902587890625,-0.0991601400280104,-0.213142369418966,0.125348068291196
1493479147.2,40.4824843679558,-79.9160806637147,18.9799995422363,-0.1295166015625,-1.01193237304688,0.254226684570312,0.0744601198658525,-0.024938639395829,0.0701306188817106
1493479147.4,40.4823481544453,-79.9161791609036,18.9200000762939,-0.05511474609375,-0.987136840820312,0.276199340820312,0.080158219334186,0.165404940563186,-0.0859695031488479
1493479147.6,40.4823481544453,-79.9161791609036,18.9200000762939,-0.181137084960938,-0.879043579101562,0.145675659179688,0.00259525048228222,-0.146791042440187,0.118755146696595
1493479147.8,40.4823481544453,-79.9161791609036,18.9200000762939,0.0511627197265625,-0.854080200195312,0.203170776367188,-0.0822975366378466,0.152639077877892,-0.0502823455934591
1493479148.0,40.4823481544453,-79.9161791609036,18.9200000762939,-0.023681640625,-0.94873046875,0.43951416015625,-0.102543153560738,0.00173451681796861,0.0234685744741053
1493479148.2,40.482196649679,-79.9162887153343,18.75,0.0131988525390625,-0.914642333984375,0.164047241210938,0.0733985838553469,-0.00366797176936613,0.00395958790872981
1493479148.4,40.482196649679,-79.9162887153343,18.75,-0.0845489501953125,-0.970626831054688,0.201980590820312,-0.0580217580373383,0.0578044440923879,-0.086040343233844
1493479148.6,40.482196649679,-79.9162887153343,18.75,0.0330657958984375,-0.959991455078125,0.181076049804688,0.0126295088374828,0.0382043774177317,-0.0458164907615052
1493479148.8,40.482196649679,-79.9162887153343,18.75,-0.00927734375,-0.999557495117188,0.134124755859375,-0.0123844980171955,-0.0679955626357941,0.0117770309725484
1493479149.0,40.482196649679,-79.9162887153343,18.75,0.0430908203125,-0.9610595703125,0.0865936279296875,-0.0490309261972308,0.0322338365698831,0.0207391006728831
1493479149.2,40.482196649679,-79.9162887153343,18.75,-0.0384063720703125,-0.922607421875,0.005035400390625,0.00859641768266677,-0.0149501874113778,-0.0137341880576476
1493479149.4,40.4820483205501,-79.9163976638777,18.4599990844727,0.0157318115234375,-1.03915405273438,0.189102172851562,0.0291552223497515,0.0423581097699283,-0.00620809481708371
1493479149.6,40.4820483205501,-79.9163976638777,18.4599990844727,-0.066864013671875,-0.975967407226562,0.111785888671875,-0.0413008348171668,-0.0635627310013572,-0.0514370922421174
1493479149.8,40.4820483205501,-79.9163976638777,18.4599990844727,-0.11871337890625,-1.002197265625,0.139328002929688,0.0536773433510921,0.0485811182891165,-0.004906874308471
1493479150.0,40.4820483205501,-79.9163976638777,18.4599990844727,0.172988891601562,-0.968612670898438,0.2188720703125,-0.0367897062466816,0.0746880864551632,-0.0720057506052354
1493479150.2,40.4820483205501,-79.9163976638777,18.4599990844727,0.1085205078125,-0.981735229492188,0.074127197265625,-0.00354892846863959,0.176570243433344,-0.188145673111373
1493479150.4,40.4819081851199,-79.9165136370029,17.9699993133545,-0.0466766357421875,-0.9307861328125,0.148727416992188,0.0329747279851431,-0.0278731766009873,-0.0123850306494135
1493479150.6,40.4819081851199,-79.9165136370029,17.9699993133545,-0.073394775390625,-1.10073852539062,0.14019775390625,0.0446388409274722,0.000774447244995042,0.00685231348477388
1493479150.8,40.4819081851199,-79.9165136370029,17.9699993133545,-0.221542358398438,-0.964920043945312,0.285125732421875,-0.0303283448099314,-0.0912721231953047,0.0649640863669569
1493479151.0,40.4819081851199,-79.9165136370029,17.9699993133545,-0.11590576171875,-1.14491271972656,0.20416259765625,-0.00981028650752489,-0.0361031433176592,-0.00320591332023739
1493479151.2,40.4819081851199,-79.9165136370029,17.9699993133545,-0.1026611328125,-1.11070251464844,0.2342529296875,0.13044455966928,-0.0157480704739656,-0.0466034548636236
1493479151.4,40.4817777717268,-79.9166506623526,17.5699996948242,0.0195770263671875,-0.9068603515625,0.1571044921875,0.106957076751435,0.0280092641326904,-0.0960026962396124
1493479151.6,40.4817777717268,-79.9166506623526,17.5699996948242,0.114761352539062,-1.07586669921875,0.153976440429688,0.11227913787385,0.104544252803824,-0.209164405698714
1493479151.8,40.4817777717268,-79.9166506623526,17.5699996948242,-0.100387573242188,-1.03878784179688,0.2957763671875,0.0243159923329685,0.158314540476959,-0.133436354837875
1493479152.0,40.4817777717268,-79.9166506623526,17.5699996948242,-0.2186279296875,-0.909088134765625,0.27264404296875,-0.0865061301084988,0.18349153279035,-0.192211521147597
1493479152.2,40.4817777717268,-79.9166506623526,17.5699996948242,-0.0074005126953125,-1.20234680175781,0.0240631103515625,-0.0319078656524574,-0.148714111063333,-0.00634018760715164
1493479152.4,40.4816690760573,-79.9167754112718,17.6200008392334,-0.224319458007812,-0.889663696289062,0.321624755859375,0.0537473844877612,-0.0662993953375226,0.00498623650895536
1493479152.6,40.4816690760573,-79.9167754112718,17.6200008392334,-0.109115600585938,-0.890029907226562,0.221527099609375,0.021610753297666,0.0179281341423044,-0.0904532011601053
1493479152.8,40.4816690760573,-79.9167754112718,17.6200008392334,-0.030426025390625,-0.901077270507812,0.4578857421875,-0.11726670596335,0.143277800330154,-0.145509263007531
1493479153.0,40.4816690760573,-79.9167754112718,17.6200008392334,0.0005035400390625,-0.8759765625,0.121627807617188,-0.0169361066362499,0.0160412845099833,-0.153749616052455
1493479153.2,40.4816690760573,-79.9167754112718,17.6200008392334,-0.0926361083984375,-1.04806518554688,0.0895843505859375,0.0589916813063452,-0.0599621372075701,-0.0632141232146658
1493479153.4,40.48155058623,-79.9169114008468,17.9500007629395,-0.0106048583984375,-1.05375671386719,0.046905517578125,-0.0868589989529343,-0.145157725743641,0.0421338716061436
1493479153.6,40.48155058623,-79.9169114008468,17.9500007629395,-0.118621826171875,-0.925201416015625,0.29339599609375,-0.0765174118079387,-0.0792775119616968,0.0228778853443257
1493479153.8,40.48155058623,-79.9169114008468,17.9500007629395,0.02252197265625,-1.00027465820312,0.160659790039062,0.119440378045073,-0.000778974618848177,-0.012635900424099
1493479154.0,40.48155058623,-79.9169114008468,17.9500007629395,-0.180755615234375,-0.851654052734375,0.112045288085938,0.0342756821776468,-0.253362759781887,0.157738232417066
1493479154.2,40.4814310298434,-79.9170548160248,17.8899993896484,0.00506591796875,-0.909576416015625,0.241790771484375,-0.118135429110934,0.0262867315396271,-0.0684488326533256
1493479154.4,40.4814310298434,-79.9170548160248,17.8899993896484,-0.129714965820312,-0.789688110351562,0.274459838867188,-0.145527905135162,-0.103298692361993,-0.00548824237443529
1493479154.6,40.4814310298434,-79.9170548160248,17.8899993896484,-0.221466064453125,-0.892318725585938,0.267745971679688,-0.0702379442736408,-0.285671697494511,0.0735868693444155
1493479154.8,40.4814310298434,-79.9170548160248,17.8899993896484,-0.339614868164062,-0.911453247070312,0.20306396484375,0.0485848467146426,-0.357689964956869,0.222126809672457
1493479155.0,40.4814310298434,-79.9170548160248,17.8899993896484,0.265228271484375,-1.13700866699219,-0.0045928955078125,-0.190439720074367,-0.422085732747204,0.221978205283631
1493479155.2,40.4813189458339,-79.9171951210313,17.7900009155273,-0.2921142578125,-0.858596801757812,0.212081909179688,-0.0456670874243518,-0.206034126153435,0.188784032824665
1493479155.4,40.4813189458339,-79.9171951210313,17.7900009155273,-0.0737762451171875,-0.967559814453125,0.13330078125,-0.0832347030254455,-0.0781661748388067,0.0473291662606702
1493479155.6,40.4813189458339,-79.9171951210313,17.7900009155273,0.173385620117188,-0.911026000976562,0.175399780273438,-0.065707907259416,0.106792493396068,-0.0425306826085654
1493479155.8,40.4813189458339,-79.9171951210313,17.7900009155273,-0.0927886962890625,-1.01579284667969,0.25396728515625,-0.0377726790050299,-0.163550581496164,0.102391886010822
1493479156.0,40.4813189458339,-79.9171951210313,17.7900009155273,0.0760498046875,-0.9898681640625,0.186660766601562,0.0334873864949834,0.0306271514842383,-0.0178618214311615
1493479156.2,40.4811983194477,-79.9173475057289,17.0599994659424,0.119979858398438,-0.862930297851562,0.121246337890625,0.0308753580978336,0.0625765624497009,0.112107097667431
1493479156.4,40.4811983194477,-79.9173475057289,17.0599994659424,0.0392913818359375,-1.07272338867188,0.142913818359375,-0.080259685771718,0.00903717084307489,0.033273800975559
1493479156.6,40.4811983194477,-79.9173475057289,17.0599994659424,0.0029449462890625,-0.948577880859375,0.107192993164062,-0.0280342978469371,-0.0902127177136711,0.131090109917515
1493479156.8,40.4811983194477,-79.9173475057289,17.0599994659424,-0.05194091796875,-0.9630126953125,0.076080322265625,-0.0160146528990825,-0.125400266248561,0.0897216308086605
1493479157.0,40.4811983194477,-79.9173475057289,17.0599994659424,0.203262329101562,-1.04039001464844,0.173980712890625,-0.107846306239413,0.0155858839635797,-0.0480578071349159
1493479157.2,40.4811983194477,-79.9173475057289,17.0599994659424,0.135757446289062,-0.957382202148438,0.0587005615234375,-0.00709892220171522,0.0511049960541846,0.00192786231310836
1493479157.4,40.4810958970594,-79.9174732315768,16.2999992370605,0.127212524414062,-0.973495483398438,0.159713745117188,0.0207092732686742,0.0519865023750008,-0.00631941495064902
1493479157.6,40.4810958970594,-79.9174732315768,16.2999992370605,0.188522338867188,-1.05186462402344,0.175216674804688,0.079653550307616,0.189881787825996,-0.0359257767890599
1493479157.8,40.4810958970594,-79.9174732315768,16.2999992370605,0.260452270507812,-0.856719970703125,0.144439697265625,0.106739762806485,-0.0400334364543981,0.115281053054587
1493479158.0,40.4810958970594,-79.9174732315768,16.2999992370605,0.040985107421875,-1.04020690917969,0.12774658203125,-0.0149840095572218,-0.0349950019880772,0.0639097408913945
1493479158.2,40.4810958970594,-79.9174732315768,16.2999992370605,0.129867553710938,-0.884979248046875,0.0379180908203125,-0.0434356247469744,0.0449600181549357,0.0079689769298441
1493479158.4,40.4809947564244,-79.9175963859442,15.3199996948242,-0.0116424560546875,-0.968917846679688,0.024993896484375,-0.0705372835801657,-0.0484735265810773,-0.00806058967134283
1493479158.6,40.4809947564244,-79.9175963859442,15.3199996948242,0.0626983642578125,-1.01313781738281,0.0045318603515625,0.0692573683602736,0.0484719286844232,-0.0537929245424015
1493479158.8,40.4809947564244,-79.9175963859442,15.3199996948242,0.0968017578125,-0.939300537109375,0.158355712890625,-0.0378930538863015,0.0715042773719735,-0.0709426166980758
1493479159.0,40.4809947564244,-79.9175963859442,15.3199996948242,0.0916290283203125,-1.0313720703125,0.154510498046875,-0.0137637491457475,0.140499324364874,-0.00690078301661332
1493479159.2,40.4809947564244,-79.9175963859442,15.3199996948242,0.1307373046875,-0.934066772460938,0.0500335693359375,-0.0208578776575006,0.0777888049123425,0.0102478438746249
1493479159.4,40.4808950680744,-79.91771777193,14.2600002288818,0.0422821044921875,-1.04043579101562,0.1298828125,-0.00161467456891504,0.010655041205298,0.0458031749560548
1493479159.6,40.4808950680744,-79.91771777193,14.2600002288818,0.192581176757812,-0.820587158203125,0.111526489257812,-0.0112473282317316,0.122406074234985,0.0326215928245986
1493479159.8,40.4808950680744,-79.91771777193,14.2600002288818,0.001007080078125,-0.9456787109375,0.073760986328125,0.0235047934649303,0.0190072470160045,0.0822900797867944
1493479160.0,40.4808950680744,-79.91771777193,14.2600002288818,0.019378662109375,-1.0985107421875,0.0810089111328125,0.00230310171070053,0.082947880576044,-0.0449714697476231
1493479160.2,40.4808064659694,-79.917812666667,12.7799997329712,0.127685546875,-1.03021240234375,-0.0156707763671875,0.00867684514758717,0.141416250728189,-0.0120044649296412
1493479160.4,40.4808064659694,-79.917812666667,12.7799997329712,0.19512939453125,-0.993820190429688,0.08465576171875,-0.0640524863258228,0.0982767694944311,-0.012637764636862
1493479160.6,40.4808064659694,-79.917812666667,12.7799997329712,0.219573974609375,-0.97833251953125,0.100204467773438,-0.081368626049627,0.0877421031704046,-0.0756944950311042
1493479160.8,40.4808064659694,-79.917812666667,12.7799997329712,0.0660400390625,-1.02787780761719,0.07080078125,0.0251807207389172,-0.0342013799832336,0.00887578328101609
1493479161.0,40.4808064659694,-79.917812666667,12.7799997329712,0.313552856445312,-0.925704956054688,0.0965728759765625,-0.0448455022280623,0.192818189243917,-0.041472875023586
1493479161.2,40.4807157447962,-79.9178784215795,11.2700004577637,0.251235961914062,-1.06776428222656,0.0233306884765625,0.0018855180517761,0.169111794484468,-0.0451981047563888
1493479161.4,40.4807157447962,-79.9178784215795,11.2700004577637,0.178848266601562,-0.977828979492188,0.017303466796875,-0.0161696488745251,0.171356306651186,-0.0475211801752649
1493479161.6,40.4807157447962,-79.9178784215795,11.2700004577637,0.252578735351562,-0.932861328125,0.0091400146484375,-0.054650462413407,0.165225443505715,-0.0404358400951091
1493479161.8,40.4807157447962,-79.9178784215795,11.2700004577637,0.31134033203125,-1.00921630859375,-0.1119384765625,-0.0230770897938636,0.0118603879146679,0.0583748931978829
1493479162.0,40.4807157447962,-79.9178784215795,11.2700004577637,0.1217041015625,-1.05557250976562,-0.0169525146484375,0.0869077348008828,0.0898510604376384,0.0017241304897173
1493479162.2,40.4807157447962,-79.9178784215795,11.2700004577637,0.21319580078125,-0.990020751953125,-0.0134735107421875,-0.0117416109300504,0.172389346838028,-0.0592068647224236
1493479162.4,40.480621100232,-79.9179388645027,9.27000045776367,0.0793304443359375,-0.995040893554688,0.076263427734375,-0.0306417988702337,0.174636788481946,-0.0775318098671498
1493479162.6,40.480621100232,-79.9179388645027,9.27000045776367,0.117767333984375,-1.00602722167969,0.0294036865234375,-0.0141059653458227,0.120293122226116,0.00700864104076153
1493479162.8,40.480621100232,-79.9179388645027,9.27000045776367,0.0919189453125,-0.997833251953125,-0.001983642578125,-0.00124529412572105,0.0787198460294342,-0.0215401795287789
1493479163.0,40.480621100232,-79.9179388645027,9.27000045776367,0.055206298828125,-1.00462341308594,0.023681640625,-0.0385268862257403,0.100238720269492,-0.00918284575470222
1493479163.2,40.4805734572637,-79.9179575296492,7.1399998664856,0.106460571289062,-0.997909545898438,0.161346435546875,0.0130263198399046,0.12223829508631,-0.028969866337882
1493479163.4,40.4805734572637,-79.9179575296492,7.1399998664856,0.1446533203125,-0.937591552734375,0.230514526367188,0.0121240408625857,0.124369889222809,-0.0396467454641186
1493479163.6,40.4805734572637,-79.9179575296492,7.1399998664856,0.113601684570312,-0.9390869140625,0.289840698242188,0.00563444991828064,0.13824282797325,-0.0248219929400835
1493479163.8,40.4805734572637,-79.9179575296492,7.1399998664856,0.016265869140625,-0.932373046875,0.25677490234375,0.0392198407413789,0.0986690531229997,-0.0105152252480689
1493479164.0,40.4805734572637,-79.9179575296492,7.1399998664856,0.0502777099609375,-1.04190063476562,0.297088623046875,0.0458737487249419,0.141162717792413,-0.084125530410077
1493479164.2,40.4805271246437,-79.9179602853837,6.3899998664856,-0.086456298828125,-0.9412841796875,0.370986938476562,-0.0291216665200165,0.235258857007638,-0.077672691088815
1493479164.4,40.4805271246437,-79.9179602853837,6.3899998664856,0.0872344970703125,-0.906448364257812,0.340255737304688,0.0228938643108662,0.144510843914861,-0.0374560291514194
1493479164.6,40.4805271246437,-79.9179602853837,6.3899998664856,0.0627593994140625,-0.87982177734375,0.43865966796875,0.0102417186041177,0.081839206614244,-0.00330498291278833
1493479164.8,40.4805271246437,-79.9179602853837,6.3899998664856,0.0204925537109375,-0.946563720703125,0.3690185546875,0.0122966137012229,0.0679971605324482,-0.00538065066639609
1493479165.0,40.4805271246437,-79.9179602853837,6.3899998664856,0.0573577880859375,-0.871170043945312,0.417205810546875,-0.0488146775167164,0.0779613777509796,-0.0476143908134177
1493479165.2,40.4804596271503,-79.9179508649588,7.40000009536743,0.180145263671875,-0.849411010742188,0.405609130859375,-0.0119248364130478,0.176635490880051,-0.121060112620059
1493479165.4,40.4804596271503,-79.9179508649588,7.40000009536743,-0.01361083984375,-0.924545288085938,0.361602783203125,-0.0167001505636689,0.0447847821552085,-0.000286556133292526
1493479165.6,40.4804596271503,-79.9179508649588,7.40000009536743,0.142562866210938,-0.836807250976562,0.40399169921875,0.0360940885699529,0.118888571067208,-0.0820357479026918
1493479165.8,40.4804596271503,-79.9179508649588,7.40000009536743,0.127304077148438,-0.987945556640625,0.387069702148438,-0.0505081816538978,0.193910351606958,-0.0937781577810692
1493479166.0,40.4804596271503,-79.9179508649588,7.40000009536743,0.09112548828125,-0.977447509765625,0.4320068359375,0.0348376091676535,0.140175217660212,-0.0565144088603535
1493479166.2,40.4803836260392,-79.9179262373411,8.80000019073486,0.145187377929688,-0.93011474609375,0.368118286132812,-0.000206128668372133,0.234005040766428,-0.0901679766073578
1493479166.4,40.4803836260392,-79.9179262373411,8.80000019073486,0.1549072265625,-0.816757202148438,0.379592895507812,0.0547924088995083,0.137908601256445,-0.114946027389455
1493479166.6,40.4803836260392,-79.9179262373411,8.80000019073486,0.306930541992188,-0.85369873046875,0.282806396484375,-0.0373505679722523,0.228926126251538,-0.10226352164628
1493479166.8,40.4803836260392,-79.9179262373411,8.80000019073486,0.117355346679688,-0.893463134765625,0.426528930664062,-0.0368088810065302,0.0747008696283956,0.00689385879777912
1493479167.0,40.4803836260392,-79.9179262373411,8.80000019073486,0.261138916015625,-0.931686401367188,0.348831176757812,-0.0986309699194116,0.261233466067508,-0.120033730335942
1493479167.2,40.4802980955601,-79.9178917487591,10.0200004577637,0.446258544921875,-0.927810668945312,0.310836791992188,-0.00569490367502544,0.239361722983014,-0.0753109998341328
1493479167.4,40.4802980955601,-79.9178917487591,10.0200004577637,0.265548706054688,-0.897415161132812,0.298263549804688,-0.0138164797353311,0.189423191486284,-0.0539409962990099
1493479167.6,40.4802980955601,-79.9178917487591,10.0200004577637,0.366897583007812,-0.891311645507812,0.33843994140625,-0.110135026880227,0.210267753338334,-0.00806751389017704
1493479167.8,40.4802980955601,-79.9178917487591,10.0200004577637,0.167343139648438,-0.928726196289062,0.409225463867188,0.0536445864696841,0.152822835993107,-0.0233018605898663
1493479168.0,40.4802980955601,-79.9178917487591,10.0200004577637,0.116790771484375,-0.897445678710938,0.325286865234375,-0.00939962706743467,0.133023032236695,-0.0185651622750514
1493479168.2,40.480198178175,-79.9178511909955,10.960000038147,0.27178955078125,-1.05119323730469,0.306869506835938,-0.029810892610129,0.320363898066646,-0.0587075220180338
1493479168.4,40.480198178175,-79.9178511909955,10.960000038147,0.131195068359375,-0.853759765625,0.306167602539062,0.0611621575947598,0.189994173223997,-0.0851612337580088
1493479168.6,40.480198178175,-79.9178511909955,10.960000038147,0.231002807617188,-0.806915283203125,0.257705688476562,0.032263663974092,0.356113639907652,-0.139196505959608
1493479168.8,40.480198178175,-79.9178511909955,10.960000038147,0.2694091796875,-0.80908203125,0.257125854492188,-0.0925347278681112,0.199508582534414,-0.0547729678235507
1493479169.0,40.480198178175,-79.9178511909955,10.960000038147,0.170913696289062,-0.898086547851562,0.293197631835938,-0.00133930371220085,0.237217079357173,-0.00595695872628924
1493479169.2,40.480129123164,-79.9177807631996,11.5900001525879,0.212905883789062,-0.937423706054688,0.335205078125,-0.00864675142726927,0.275547690610574,-0.073302177423886
1493479169.4,40.480129123164,-79.9177807631996,11.5900001525879,0.27716064453125,-0.881668090820312,0.292861938476562,0.00827390887465818,0.133964459682038,-0.0642338475960572
1493479169.6,40.480129123164,-79.9177807631996,11.5900001525879,-0.068145751953125,-1.11570739746094,0.291061401367188,0.142582981601752,-0.0455938504943746,0.0612854619532305
1493479169.8,40.480129123164,-79.9177807631996,11.5900001525879,0.240264892578125,-0.86083984375,0.312347412109375,-0.0779320829789888,0.217501964123425,-0.0226834745847499
1493479170.0,40.480129123164,-79.9177807631996,11.5900001525879,0.604949951171875,-0.732437133789062,0.35235595703125,0.202511829295696,-0.42248946796846,0.377404813874508
1493479170.2,40.480056080976,-79.9176696595357,12.4799995422363,-0.63067626953125,-1.02659606933594,0.476181030273438,0.219539282357336,-0.274755133870167,0.303629126408806
1493479170.4,40.480056080976,-79.9176696595357,12.4799995422363,0.403945922851562,-0.585311889648438,0.23590087890625,0.0276854237441367,0.4795120079648,-0.281368295489052
1493479170.6,40.480056080976,-79.9176696595357,12.4799995422363,-0.251678466796875,-0.75091552734375,0.601638793945312,0.0889184214238926,-0.113311379112364,0.132347121952033
1493479170.8,40.480056080976,-79.9176696595357,12.4799995422363,-0.634140014648438,-0.994674682617188,0.77490234375,0.0331302565928037,-0.132092257435712,0.152082477210065
1493479171.0,40.480056080976,-79.9176696595357,12.4799995422363,0.431610107421875,-0.893035888671875,0.180206298828125,-0.0245194578402505,0.406473749804941,-0.164430756236435
1493479171.2,40.4799866608019,-79.9175505947989,12.8100004196167,-0.144012451171875,-0.936737060546875,0.375045776367188,-0.0282888960471487,-0.0200213787591067,0.0328146720036293
1493479171.4,40.4799866608019,-79.9175505947989,12.8100004196167,0.134735107421875,-0.889495849609375,0.247421264648438,-0.0420174914665072,0.0991886358516742,-0.0657252178065015
1493479171.6,40.4799866608019,-79.9175505947989,12.8100004196167,0.1656494140625,-0.896530151367188,0.159103393554688,0.0550834924066539,0.130469060751309,-0.0626793604677779
1493479171.8,40.4799866608019,-79.9175505947989,12.8100004196167,0.072601318359375,-0.875213623046875,0.301101684570312,-0.0502168318306431,0.0141581633031883,0.0197073920665864
1493479172.0,40.4799866608019,-79.9175505947989,12.8100004196167,-0.1114501953125,-0.979354858398438,0.409637451171875,-0.0345273509006593,-0.112521751849156,0.0489827229815004
1493479172.2,40.4799161211572,-79.9174235643674,13.1599998474121,0.122634887695312,-1.00375366210938,0.277175903320312,-0.00884489061237117,0.0553671190627474,-0.0236901494767999
1493479172.4,40.4799161211572,-79.9174235643674,13.1599998474121,0.00152587890625,-0.943817138671875,0.29193115234375,-0.010451043065798,0.107498231084939,-0.0334370527503809
1493479172.6,40.4799161211572,-79.9174235643674,13.1599998474121,-0.0763397216796875,-0.894485473632812,0.28961181640625,-0.122977588604916,0.0188783500192447,-0.0300955845306584
1493479172.8,40.4799161211572,-79.9174235643674,13.1599998474121,0.0407867431640625,-0.8580322265625,0.241104125976562,-0.0869245127157503,0.0165179903451075,-0.0201244430932928
1493479173.0,40.4799161211572,-79.9174235643674,13.1599998474121,0.095855712890625,-0.8018798828125,0.190185546875,-0.136582879665804,0.0849079671383423,-0.0890470521045435
1493479173.2,40.4799161211572,-79.9174235643674,13.1599998474121,-0.125640869140625,-0.8564453125,0.313507080078125,0.105288340012392,0.0737586432347256,-0.104667557162294
1493479173.4,40.4798496976348,-79.9172977114087,13.1099996566772,-0.05584716796875,-1.14202880859375,0.20501708984375,-0.0257525014249572,-0.0998160766044969,0.0373114195042281
1493479173.6,40.4798496976348,-79.9172977114087,13.1099996566772,-0.205902099609375,-0.9051513671875,0.314422607421875,0.0256845908171602,0.0732220162750746,-0.0468394109362046
1493479173.8,40.4798496976348,-79.9172977114087,13.1099996566772,-0.03851318359375,-1.05406188964844,0.106277465820312,-0.2177288654483,0.121607924856288,-0.0537212855090784
1493479174.0,40.4798496976348,-79.9172977114087,13.1099996566772,-0.164199829101562,-0.957351684570312,0.22802734375,0.118520788520668,-0.049710032275201,-0.0498365324269798
1493479174.2,40.4798496976348,-79.9172977114087,13.1099996566772,-0.248443603515625,-0.729843139648438,0.368377685546875,0.0110835438246918,0.107380253048649,0.104325340962219
1493479174.4,40.4797797386092,-79.9171651597157,12.8699998855591,-0.140594482421875,-1.12722778320312,0.25445556640625,-0.00478383626610934,0.0946916220349664,-0.0653324015457149
1493479174.6,40.4797797386092,-79.9171651597157,12.8699998855591,0.254837036132812,-0.536026000976562,0.052215576171875,-0.267713469631888,-0.201416737455456,0.0756124696695297
1493479174.8,40.4797797386092,-79.9171651597157,12.8699998855591,-0.016204833984375,-0.992446899414062,0.23626708984375,0.022047511716439,0.294511261784702,0.0282534760046506
1493479175.0,40.4797797386092,-79.9171651597157,12.8699998855591,0.2093505859375,-1.06297302246094,0.1368408203125,-0.0595837020166698,0.369467528561636,-0.19028339251838
1493479175.2,40.4797155162041,-79.9170423387401,12.2600002288818,0.133529663085938,-0.965118408203125,0.220352172851562,-0.094074567610395,0.261187926012867,-0.219144868199895
1493479175.4,40.4797155162041,-79.9170423387401,12.2600002288818,-0.0025177001953125,-0.8677978515625,0.165847778320312,0.128132669526982,-0.0263690232173106,-0.0391362174831504
1493479175.6,40.4797155162041,-79.9170423387401,12.2600002288818,0.028656005859375,-1.16960144042969,0.2716064453125,-0.122357871019255,0.135873946183625,-0.089032937350766
1493479175.8,40.4797155162041,-79.9170423387401,12.2600002288818,-0.0269927978515625,-0.894378662109375,0.114837646484375,0.0123762422178162,-0.134091226149926,0.111359015717227
1493479176.0,40.4797155162041,-79.9170423387401,12.2600002288818,-0.063323974609375,-0.906707763671875,0.191787719726562,0.0322018786368021,-0.0969944574295579,0.0837446983741957
1493479176.2,40.4797155162041,-79.9170423387401,12.2600002288818,0.00152587890625,-0.99346923828125,0.205841064453125,-0.0277003374462412,-0.0274787624435466,-0.0140734747805237
1493479176.4,40.4796562474926,-79.9169263096108,11.6199998855591,0.0286712646484375,-0.981369018554688,0.175338745117188,0.0414358570844339,0.0263144284149639,-0.0561530179004297
1493479176.6,40.4796562474926,-79.9169263096108,11.6199998855591,0.0638580322265625,-0.884658813476562,0.207855224609375,-0.0863564604552364,-0.00475613939077251,0.00445919692922868
1493479176.8,40.4796562474926,-79.9169263096108,11.6199998855591,-0.0863037109375,-1.0240478515625,0.23016357421875,-0.038752988602288,-0.0827079297618279,0.0627233026257642
1493479177.0,40.4796562474926,-79.9169263096108,11.6199998855591,0.0587310791015625,-0.953079223632812,0.256561279296875,-0.115166270811605,0.0645672753645351,-0.0311997311186053
1493479177.2,40.4795984984844,-79.9168132555731,11.0100002288818,-0.01727294921875,-0.91900634765625,0.192840576171875,0.0535828011323943,-0.0205649299375919,-0.0356496069840187
1493479177.4,40.4795984984844,-79.9168132555731,11.0100002288818,-0.0796966552734375,-0.889511108398438,0.235671997070312,-0.0506466660305819,-0.166657158907742,0.107599164890253
1493479177.6,40.4795984984844,-79.9168132555731,11.0100002288818,-0.25555419921875,-0.921722412109375,0.281478881835938,-0.0864070605159479,0.00801052224284934,0.0150878728397349
1493479177.8,40.4795984984844,-79.9168132555731,11.0100002288818,-0.156204223632812,-0.884796142578125,0.32476806640625,-0.0404070779553362,-0.0954684661249425,0.0211569506479165
1493479178.0,40.4795984984844,-79.9168132555731,11.0100002288818,0.0079498291015625,-0.906723022460938,0.305419921875,-0.118122113305484,0.0592646553180783,-0.0514743764973785
1493479178.2,40.4795417726279,-79.9167022045385,10.4300003051758,-0.129928588867188,-0.922210693359375,0.2110595703125,-0.077639401575189,-0.112247712572987,0.00909070038098548
1493479178.4,40.4795417726279,-79.9167022045385,10.4300003051758,-0.0251312255859375,-1.06405639648438,0.201507568359375,0.0573764741052121,-0.159931079258638,-6.60463950339651e-05
1493479178.6,40.4795417726279,-79.9167022045385,10.4300003051758,-0.106552124023438,-0.815170288085938,0.254287719726562,-0.140804788941906,-0.0799185348360788,0.0510091222549417
1493479178.8,40.4795417726279,-79.9167022045385,10.4300003051758,-0.0810394287109375,-0.939193725585938,0.284439086914062,0.0146913281534221,-0.0788026703393356,0.0504658373925655
1493479179.0,40.4795417726279,-79.9167022045385,10.4300003051758,-0.0891876220703125,-0.956954956054688,0.206756591796875,0.0169526182350084,-0.0788189156219851,0.0408931048542757
1493479179.2,40.4795417726279,-79.9167022045385,10.4300003051758,-0.000579833984375,-0.907333374023438,0.255691528320312,-0.0668402833549177,-0.0804053606833453,0.0155163754591287
1493479179.4,40.4794966520287,-79.9166148888341,10.039999961853,0.00421142578125,-0.980178833007812,0.24285888671875,-0.000795486217606668,-0.12869433020088,0.0653630278982508
1493479179.6,40.4794966520287,-79.9166148888341,10.039999961853,-0.09552001953125,-0.930694580078125,0.298049926757812,0.0114012589427382,-0.114949755814981,0.0377308673759156
1493479179.8,40.4794966520287,-79.9166148888341,10.039999961853,-0.234634399414062,-0.929962158203125,0.3060302734375,-0.0010117348981211,-0.221229590701209,0.108248177247906
1493479180.0,40.4794966520287,-79.9166148888341,10.039999961853,-0.0653839111328125,-0.954696655273438,0.233596801757812,-0.0397026718470103,-0.0348440007542697,0.00288207293168375
1493479180.2,40.4794966520287,-79.9166148888341,10.039999961853,-0.104934692382812,-1.07209777832031,0.151840209960938,0.0755046116453815,-0.0015662050370756,-0.0706592563580914
1493479180.4,40.4794403958445,-79.916525533376,9.96000003814697,-0.021240234375,-0.926437377929688,0.335556030273438,0.0681100785626675,0.010183129060136,-0.0686328570846501
1493479180.6,40.4794403958445,-79.916525533376,9.96000003814697,0.040252685546875,-1.03614807128906,0.314376831054688,-0.0798365094745044,0.109002917100834,-0.0981241703639695
1493479180.8,40.4794403958445,-79.916525533376,9.96000003814697,-0.148834228515625,-0.872222900390625,0.26348876953125,-0.0425677005477175,-0.173099878216861,0.0586526608995781
1493479181.0,40.4794403958445,-79.916525533376,9.96000003814697,0.010009765625,-1.00395202636719,0.226089477539062,0.0129674639798138,-0.160697270704253,0.0538581719891085
1493479181.2,40.4793812101975,-79.9164465402319,9.76000022888184,-0.0084381103515625,-0.975128173828125,0.320404052734375,0.018384067320926,0.0200895556830127,-0.00945954819196145
1493479181.4,40.4793812101975,-79.9164465402319,9.76000022888184,-0.09857177734375,-0.991348266601562,0.225997924804688,0.00983372232511759,-0.118137559639806,-0.00492551643610155
1493479181.6,40.4793812101975,-79.9164465402319,9.76000022888184,0.0070037841796875,-0.927505493164062,0.383453369140625,0.016436497615751,-0.0447799884652464,0.0194756970517495
1493479181.8,40.4793812101975,-79.9164465402319,9.76000022888184,0.024566650390625,-0.955459594726562,0.216064453125,-0.0353678445406883,-0.0540216900800393,-0.0130172650921983
1493479182.0,40.4793812101975,-79.9164465402319,9.76000022888184,-0.03204345703125,-0.958663940429688,0.246536254882812,-0.0447493621127104,-0.0135381794014178,-0.00575429216733421
1493479182.2,40.4793812101975,-79.9164465402319,9.76000022888184,0.170120239257812,-0.96966552734375,0.185211181640625,0.0159235727898018,0.0573304014183538,-0.0426334806266425
1493479182.4,40.479315917155,-79.9163688706255,9.75,0.0424652099609375,-0.958831787109375,0.239334106445312,-0.0210980947878257,-0.0647451745253524,0.0276726405709044
1493479182.6,40.479315917155,-79.9163688706255,9.75,-0.0728912353515625,-0.919113159179688,0.197418212890625,-0.00297954462758065,-0.122296618314183,0.0727876547012827
1493479182.8,40.479315917155,-79.9163688706255,9.75,0.12994384765625,-0.976577758789062,0.190536499023438,0.0380557730289053,0.0965377253026093,-0.0819579835988615
1493479183.0,40.479315917155,-79.9163688706255,9.75,0.0654449462890625,-1.00509643554688,0.15460205078125,0.027157052583865,0.00195715708509923,0.0397229118712949
1493479183.2,40.479315917155,-79.9163688706255,9.75,-0.053436279296875,-1.02496337890625,0.208694458007812,0.00690158196494035,0.0871692572199286,-0.0673257776216392
1493479183.4,40.4792466120574,-79.9162892797679,9.39000034332275,0.06536865234375,-0.849044799804688,0.21075439453125,-0.0993138044229079,0.0155302238967971,-0.04903651883552
1493479183.6,40.4792466120574,-79.9162892797679,9.39000034332275,-0.0455474853515625,-0.903457641601562,0.169937133789062,-0.0941579245525145,0.00486053530550362,-0.0425589121161203
1493479183.8,40.4792466120574,-79.9162892797679,9.39000034332275,0.0132293701171875,-1.01248168945312,0.25640869140625,0.0430228347780121,-0.0375058302638039,0.0261264092420044
1493479184.0,40.4792466120574,-79.9162892797679,9.39000034332275,-0.0285797119140625,-0.901123046875,0.196914672851562,0.0256734055405819,-0.00761504282097257,-0.0125120634334103
1493479184.2,40.4792466120574,-79.9162892797679,9.39000034332275,-0.0923614501953125,-0.839584350585938,0.27203369140625,-0.0674054061382325,-0.156977100977522,0.0924756056919115
1493479184.4,40.4791895176519,-79.9162230250821,9.02999973297119,-0.0675201416015625,-0.957275390625,0.185394287109375,0.0293592204892515,-0.0969800763596715,0.0581264202681785
1493479184.6,40.4791895176519,-79.9162230250821,9.02999973297119,-9.1552734375e-05,-0.939498901367188,0.199752807617188,-0.0251655407207038,0.0512096582850247,-0.0782234328022434
1493479184.8,40.4791895176519,-79.9162230250821,9.02999973297119,-0.0829315185546875,-0.972442626953125,0.228546142578125,-0.0228158336909269,-0.176414182193465,0.0919160755468858
1493479185.0,40.4791895176519,-79.9162230250821,9.02999973297119,-0.0328826904296875,-0.910186767578125,0.14825439453125,-0.0565844499970226,-0.0623826843223431,0.0539585731622045
1493479185.2,40.4791895176519,-79.9162230250821,9.02999973297119,0.0419158935546875,-1.05300903320312,0.0926666259765625,-0.0393511345831198,-0.0348503923408859,-0.0227034482929255
1493479185.4,40.4791322093496,-79.9161565221817,8.52999973297119,-0.0453338623046875,-0.973495483398438,0.236770629882812,0.00336676825007817,-0.0914992908362884,0.0151975950766462
1493479185.6,40.4791322093496,-79.9161565221817,8.52999973297119,-0.0728302001953125,-1.02310180664062,0.165115356445312,-0.0111298828276592,-0.0967164234117536,0.0598436265390616
1493479185.8,40.4791322093496,-79.9161565221817,8.52999973297119,0.0542755126953125,-0.98272705078125,0.10650634765625,-0.0165949557006108,0.00223039741294136,-0.0310958678360922
1493479186.0,40.4791322093496,-79.9161565221817,8.52999973297119,-0.0483245849609375,-0.953933715820312,0.151947021484375,0.0381393962871338,-0.122571722854788,0.0252297229029747
