,avgSpeed,sdSpeed,maxAccelX,maxAccelY,maxAccelZ,maxGyroX,maxGyroY,maxGyroZ,meanAccelX,meanAccelY,meanAccelZ,meanGyroX,meanGyroY,meanGyroZ,sdAccelX,sdAccelY,sdAccelZ,sdGyroX,sdGyroY,sdGyroZ,condition
0,0.0819999992847,0.259306765872,0.03466796875,-0.938110351562,0.32942199707,0.00203758455002,0.0171401047757,0.0373404479601,0.0191009521484,-0.957148742676,0.232780456543,-0.0146584647456,-0.00203145927951,0.00390677742431,0.00910616895014,0.014898677699,0.0699893730146,0.0101940103007,0.0131475229107,0.0132358628492,0.0
1,1.40500000119,0.616644152529,0.189392089844,-0.905746459961,0.360610961914,0.0461994533263,0.35948573448,-0.0087333041627,0.113359069824,-0.942225646973,0.324703979492,0.0121400198291,0.191915430898,-0.0428062931498,0.0629136773367,0.0274324813352,0.0249206820348,0.0183785721117,0.117950799316,0.0311859088001,0.0
2,3.88499999046,0.405825623002,0.319076538086,-0.898376464844,0.347595214844,0.0215684090363,0.573805221101,-0.0799294537965,0.250787353516,-0.934902954102,0.286106872559,-0.0369317326276,0.443043931683,-0.140235911101,0.0370816622259,0.0309857537738,0.0378362549378,0.0409349755151,0.0602947957101,0.0625755070366,0.0
3,6.23399982452,0.924352005596,0.244522094727,-0.78857421875,0.501770019531,0.0507481324681,0.327964293502,0.054749532006,0.131864929199,-0.915760803223,0.42572479248,-0.0186642851308,0.117661759279,-0.00369337832617,0.0632556185607,0.0525978365725,0.0551317249364,0.0524317189803,0.118704789447,0.0390857264671,0.0
4,10.6900000572,1.28599269398,0.149383544922,-0.85530090332,0.49446105957,0.0605453694863,0.09707381963,0.0887527728041,0.0557723999023,-0.934982299805,0.361457824707,-0.0131066141468,-0.0272508757491,0.00899895448143,0.0417608457445,0.0550758315496,0.0850527969091,0.037942417843,0.0815947891248,0.0407628169087,0.0
5,13.086000061,0.005164095989,0.149490356445,-0.882095336914,0.240982055664,0.0471778987108,0.048720135298,0.0707588585829,0.0553131103516,-0.961395263672,0.189611816406,-0.019191564395,-0.0246579688485,0.0114888769426,0.0561054222588,0.0420629788078,0.0399064405561,0.0517233216064,0.0434432027636,0.0345300711026,0.0
6,12.4749999046,0.205548228858,0.123153686523,-0.815017700195,0.209930419922,0.0415751404094,0.102323176455,0.119839585892,0.0467819213867,-0.963230895996,0.171286010742,-0.035016227382,-0.00870845686973,-0.00620021186026,0.0471795481917,0.065627007751,0.0241020173535,0.0439938286511,0.0691779495115,0.0578774892129,0.0
7,11.5789999008,0.301052083745,0.0831604003906,-0.921249389648,0.215301513672,0.0057178068604,0.0446383082953,0.0714792436577,0.0208511352539,-0.96895904541,0.151702880859,-0.0158168865565,-0.00500274810771,0.00134367129639,0.0572125515596,0.0306646364625,0.0297446931482,0.0175421543174,0.0376012636732,0.0333744510837,0.0
8,10.7999997139,0.20027764546,0.172836303711,-0.937240600586,0.244689941406,0.103153816399,0.0456929200869,0.0354301625102,0.0503753662109,-0.97368927002,0.202000427246,0.00625600508509,0.00697953269005,-0.00197976732275,0.0686396654787,0.0273064376269,0.0301208359103,0.0422579729825,0.027677696399,0.0223516583425,0.0
9,10.3949999809,0.0474337426929,0.135070800781,-0.829650878906,0.286209106445,0.0521399004538,0.106387160278,0.0414358570844,0.0456680297852,-0.951097106934,0.241293334961,-0.0089360772481,-0.00334493032914,0.00524821166539,0.0515683048897,0.0730520947956,0.0282956434284,0.0537622620968,0.0588596669287,0.0334603333038,0.0
10,10.7899999619,0.147573319368,0.135787963867,-0.877944946289,0.276077270508,0.129265311939,0.126392826387,0.138288101712,0.0781845092773,-0.948742675781,0.223835754395,-0.0162588381394,0.00606271285318,0.000777483248638,0.0480601999163,0.0455014518846,0.045747501484,0.0793113380876,0.0933519024147,0.0663286987908,0.0
11,11.2750000954,0.068516076286,0.307846069336,-0.923156738281,0.218307495117,0.0600060793656,0.0663867470213,0.0739432002983,0.10419921875,-0.962171936035,0.179209899902,-0.0250554456412,-0.0231304062789,0.0128109766342,0.111709847685,0.0272752251847,0.036960033642,0.0546485885513,0.0596080209703,0.0441935583553,0.0
12,11.375,0.05797541212,0.152435302734,-0.917251586914,0.217758178711,0.0464726936541,0.153274508114,0.0359737136887,0.0812545776367,-0.978009033203,0.159278869629,-0.00937027903222,0.016759059687,-0.0142132108429,0.0557874003989,0.0414192544411,0.0431188638308,0.0374189895517,0.0540098242846,0.0518686241902,0.0
13,11.3400001526,0.0105411667965,0.131042480469,-0.905029296875,0.221664428711,0.0490367851516,0.0651971129623,0.0116952719271,0.0633392333984,-0.981062316895,0.185037231445,-0.00210773221313,0.00798831147936,-0.0205135042969,0.051029661447,0.0382644123573,0.0336155330404,0.0353833224595,0.0415987210582,0.0246688981699,0.0
14,11.1300001144,0.0948684906468,0.135848999023,-0.94987487793,0.218170166016,0.0828733120655,0.0764460390907,0.0860328863828,0.0518035888672,-0.984107971191,0.16575012207,-0.00416281373151,-0.0103956759467,0.0105397263301,0.0622508950841,0.0255278565615,0.048194782769,0.0439518617738,0.052628949552,0.037789435413,0.0
15,10.9800000191,0.0210818309626,0.138000488281,-0.904449462891,0.21223449707,0.00874555470371,0.0888236128891,0.0573120256068,0.0627685546875,-0.95657043457,0.165844726562,-0.0574367680723,0.0241984936657,-0.0151510163892,0.0577352055962,0.0431504075022,0.0304270531691,0.031844046702,0.046920216596,0.0512391184773,0.0
16,10.7649998665,0.0158112475643,0.146865844727,-0.846267700195,0.316192626953,0.167387930311,0.121271034978,0.0801433056321,0.0545104980469,-0.980288696289,0.193530273438,-0.0209618208348,-0.00933051803715,0.00140878558504,0.0860505411809,0.068283238776,0.062212584005,0.0807694137671,0.0766610514227,0.0489096764649,0.0
17,10.8600001335,0.0210818309626,0.115905761719,-0.862854003906,0.2900390625,0.0624995970942,0.112854380669,0.0388113118302,0.0541870117187,-0.954238891602,0.18065032959,-0.00308308833076,0.0141662060497,-0.00817135054108,0.0467577433508,0.0566656497687,0.0410894112763,0.0465887019145,0.0631390837278,0.0424032081866,0.0
18,10.8049998283,0.0158112475643,0.160491943359,-0.922698974609,0.273635864258,0.0764830570299,0.0730316002571,0.0644442373222,0.0760238647461,-0.972660827637,0.071174621582,5.45681707358e-05,-0.0159544388268,0.0105972506096,0.0586271120611,0.0341307160962,0.11340116001,0.0593243311233,0.0704636609003,0.0415958150902,0.0
19,8.56500005722,1.02774013903,0.148193359375,-0.898788452148,-0.0149841308594,0.088192976343,0.100223806567,0.0677231212563,0.0944763183594,-1.00351867676,-0.0502807617187,-0.0171101974767,-0.00116318886931,0.0123025259188,0.0438928757522,0.0521181011384,0.0229211502584,0.0455403797688,0.062129782442,0.0393435825655,0.0
20,3.94999992847,1.41248405673,0.0853271484375,-0.984512329102,0.127059936523,0.00482964263686,-0.00302961205607,0.0267487899888,0.0610794067383,-1.01232299805,-0.010026550293,-0.0209010208672,-0.01443667669,0.0019556923465,0.0216866486942,0.0161912812327,0.0747930750294,0.0176705220025,0.0119129285214,0.0142302220355,0.0
21,0.429999992251,0.105409233349,0.0690002441406,-0.936508178711,0.336364746094,0.00190708965661,0.00226501850711,0.0075242290278,0.061311340332,-0.958114624023,0.24231262207,-0.014873009003,-0.00692357967554,0.00135829205077,0.00849967496795,0.0139011634705,0.0497213795107,0.00906810151702,0.00629500006833,0.00486817984476,0.0
22,1.68999999762,0.853814970759,0.144012451172,-0.8662109375,0.478118896484,0.0456910558742,0.029600502884,0.0337627573517,0.0686004638672,-0.912501525879,0.404641723633,-0.00852741517882,-0.0090907270126,0.0111314008295,0.0390231688166,0.0216861483848,0.0366046799504,0.0296987163849,0.0329508925495,0.015631971165,0.0
23,5.77500009537,1.22801778449,0.0623931884766,-0.882690429688,0.387786865234,0.0657324083414,0.0555242455671,0.0721905739849,-0.00671997070312,-0.944444274902,0.36371307373,0.0100096773783,-0.0389944041551,0.0175824025696,0.0609309566719,0.0558676785418,0.0195455843591,0.0380716967569,0.0691979317592,0.0416291058244,0.0
24,9.13499975204,0.690430843628,0.116256713867,-0.908508300781,0.368637084961,0.0826626560233,0.10475943622,0.0448793243739,0.00681610107422,-0.951879882812,0.317932128906,-0.00309169034108,0.0242713311215,-0.00979683754402,0.062930904072,0.0424157987725,0.0435160475482,0.0490712644945,0.0485552208577,0.0428491414378,0.0
25,11.3099999428,0.337309798032,0.0870056152344,-0.926818847656,0.288635253906,0.0955635409759,0.0439887633054,0.124310767047,0.00783538818359,-0.969097900391,0.245411682129,-0.0021672538635,-0.0249825549222,0.00462700270951,0.0505970755509,0.0223475867129,0.0410716643121,0.0459699937398,0.0550509936275,0.0577793103108,0.0
26,11.9750003815,0.0474342453234,0.0652770996094,-0.868667602539,0.239318847656,-0.0069742862627,0.0554518075854,0.052040298229,0.0167297363281,-0.954154968262,0.1810546875,-0.0468218873362,-0.00490724715102,0.00251868460094,0.0321737896102,0.0544966759508,0.0451341684,0.030994943317,0.0365295963936,0.0311271195137,0.0
27,11.6100001335,0.0632454928877,0.12451171875,-0.941665649414,0.219818115234,0.0652517077647,0.113073825143,0.121688086005,0.0514434814453,-0.97507019043,0.188592529297,-0.0156014101927,-0.000961694101239,0.00336125550662,0.0445180442072,0.0298321010039,0.0284457972801,0.0330023776802,0.0602596418261,0.0503190055807,0.0
28,11.2950000763,0.0052705833983,0.13639831543,-0.932418823242,0.225540161133,0.0426593132892,0.0503148361588,0.0457025074668,0.020947265625,-0.965884399414,0.175981140137,-0.0230829487483,-0.0163367356013,0.00471041291486,0.0636179562934,0.0235758302017,0.0351324548741,0.0294747319872,0.0401373045962,0.0352883665542,0.0
29,11.0999999046,0.0527043260912,0.176132202148,-0.88395690918,0.253875732422,0.0297546999111,0.182244374452,0.0548110510271,0.0208251953125,-0.980990600586,0.192448425293,-0.0199993277853,0.00651148212847,-0.00576587691808,0.0861060410995,0.0591208655216,0.0402110639047,0.0327449301525,0.0781095676994,0.0537577768632,0.0
30,10.8699998856,0.0527048287217,0.0926818847656,-0.89924621582,0.206253051758,0.00788721788438,0.0949851023871,0.0435488090933,0.0144180297852,-0.965783691406,0.175956726074,-0.0263656942659,0.01644483331,-0.0098016844972,0.0514994112146,0.0442866252801,0.0317691329025,0.0216718982819,0.0425870876979,0.0369769410284,0.0
31,10.7600002289,0.0105411667965,0.105087280273,-0.799392700195,0.249633789062,0.0501182948703,0.0956974979787,0.0313501997202,-0.00679931640625,-0.944407653809,0.196969604492,-0.0322542363838,0.025097896429,-0.0183073949131,0.0690974566085,0.0745170695117,0.0455914029593,0.0561596825949,0.043955215079,0.0341570253101,0.0
32,10.9050002098,0.068516076286,0.0417175292969,-0.918869018555,0.211380004883,0.013947507261,0.0715913627396,0.0688997058259,0.00587768554687,-0.97661895752,0.185258483887,-0.0286672247116,-0.0128956651568,0.00997542912672,0.0252021595016,0.0387531074973,0.0179635641227,0.0345234350148,0.0464697640849,0.0356376169994,0.0
33,11.0650000572,0.00527008076776,0.134353637695,-0.853378295898,0.305938720703,0.101757521039,0.0947856316214,0.0433216414523,0.00209045410156,-0.977360534668,0.206915283203,-0.0365708476683,-0.00518826390925,-0.00739804845535,0.0957702579128,0.09635672535,0.0453959618309,0.0567766670732,0.05883980875,0.0320238798469,0.0
34,11.0,0.0421636619251,0.173568725586,-0.887619018555,0.246734619141,0.0558134648614,0.128590200602,0.0905075296463,0.0504135131836,-0.970021057129,0.175761413574,-0.0180782032697,0.0180957268697,0.00797805830916,0.0843992034741,0.0508810757823,0.0351220888085,0.0414569640222,0.0809550581874,0.0644078028104,0.0
35,10.9549999237,0.0052705833983,0.0671844482422,-0.912689208984,0.232315063477,0.0295469733461,0.0265405307915,0.0676144642838,0.024299621582,-0.989500427246,0.183206176758,-0.00474700474823,-0.00454279355585,0.0019889285969,0.0304458489391,0.0422154937164,0.0292351329968,0.0313024819859,0.0252760053623,0.0327411232179,0.0
36,10.7899999619,0.0527048287217,0.0648040771484,-0.921432495117,0.232727050781,0.0313861523949,0.0982882210871,0.040142359743,-0.00528106689453,-0.968757629395,0.18482208252,-0.0253410164049,-0.00749464130809,-0.00439834369832,0.0417353729495,0.029830069501,0.0268138141005,0.0418546158137,0.0606184103857,0.0252860718732,0.0
37,10.8099999428,0.0316229977591,0.129058837891,-0.933090209961,0.218368530273,0.138126980466,0.104104298592,0.164635020692,0.0468780517578,-0.978422546387,0.191218566895,0.0017817346641,-0.00958058886351,0.0278711525986,0.0562657969128,0.0262901840365,0.0157825062225,0.0543209264177,0.0862166616878,0.058502658599,0.0
38,11.009999752,0.0316229977591,0.0907135009766,-0.918502807617,0.212844848633,0.0387671033561,0.0398792394273,0.0705577899206,-0.00317840576172,-0.974073791504,0.185466003418,-0.0114852017803,-0.0309838020174,0.0129701804041,0.0658982090513,0.0303598221258,0.0183909987747,0.0403409866452,0.0597160320158,0.036979420644,0.0
39,10.9749999046,0.0579749094895,0.0559997558594,-0.920074462891,0.206237792969,0.106608468965,0.0503193635326,0.0690768060384,0.0125274658203,-0.973362731934,0.17537689209,-0.0147049635382,-0.030856183338,0.0148560712985,0.0226431632521,0.0508233409706,0.0212077166547,0.0547057064385,0.0485827186224,0.0488132239035,0.0
40,10.8499999046,0.0527043260912,0.332382202148,-0.849975585938,0.258728027344,0.024364994497,0.260278722817,0.0749096614579,0.070866394043,-0.980526733398,0.201875305176,-0.0345883372896,0.0294733635736,-0.0243133824351,0.132971317658,0.0598074988131,0.0459174199508,0.0414390940367,0.119466282439,0.067370353115,0.0
41,10.8299999237,0.0316224951286,0.111968994141,-0.865341186523,0.271255493164,0.139920885776,0.141658332071,0.0468966688996,0.0127792358398,-0.992297363281,0.186822509766,-0.000156620503708,-0.00712717834088,-0.00797981599548,0.0795046729131,0.0613075074894,0.0492535129235,0.0582072629907,0.101162741787,0.0465218208072,0.0
42,10.875,0.00527058339825,0.122833251953,-0.891540527344,0.239532470703,0.0191404050705,0.0583730289851,0.0414228075951,0.01123046875,-0.962145996094,0.206573486328,-0.0328441798285,0.0145719120101,-0.0121022295733,0.0625198410582,0.0374751018834,0.0305065389376,0.0339151037359,0.0324349855815,0.024486125966,0.0
43,11.0999999046,0.0316229977591,0.144485473633,-0.815185546875,0.240280151367,0.140152580791,0.103412143024,0.0825875548806,0.0373901367187,-0.984130859375,0.187837219238,-0.0160562781069,-0.0128743332365,-0.00876749915109,0.0584678954845,0.100192291215,0.0431853698541,0.117313214748,0.0668953889779,0.0569601385212,0.0
44,10.8599996567,0.0421636619252,0.25080871582,-0.893783569336,0.289886474609,0.0338620932604,0.12865811121,0.0441938267093,0.0690734863281,-0.971949768066,0.185346984863,-0.0131037379328,0.0269922828072,-0.0314438897273,0.12257667588,0.0503720707961,0.0509122786503,0.0351204942553,0.0668112861509,0.0537775104082,0.0
45,10.8350000381,0.0263519117303,0.145874023438,-0.908798217773,0.313537597656,0.0531007689751,0.0621049166206,0.0577455882323,0.0520874023437,-0.993362426758,0.231683349609,-0.0183771431021,0.0189459943109,-0.00855351415751,0.0444250926594,0.0523048058114,0.0447234509888,0.0478504727241,0.0349430818349,0.0333020907286,0.0
46,10.8699998856,0.126490985775,0.130096435547,-0.923141479492,0.287414550781,0.0282191212266,0.0578044440924,0.0520557445633,0.0765258789062,-0.974980163574,0.220529174805,-0.012273630621,-0.0142800561863,0.00193699695565,0.0416807339684,0.0333315292894,0.0326105579649,0.0299920994673,0.0492473632887,0.0417829135317,0.0
47,11.0799999237,0.0421636619252,0.106903076172,-0.896102905273,0.26350402832,0.0492793991269,0.0406030866116,0.0741413394834,0.0588104248047,-0.947703552246,0.228228759766,-0.0186100099078,-0.00296180797472,0.0119719477327,0.0275154125698,0.0318296088892,0.022118670543,0.0427355415192,0.0352290700432,0.0418450099648,0.0
48,11.0399999619,0.0527048287217,0.0829315185547,-0.940780639648,0.239044189453,0.0627454068628,0.0338064331936,0.113784090206,0.026350402832,-0.979217529297,0.206427001953,-0.00641763233165,-0.0227185217847,0.0206774751253,0.041285379881,0.0271199401184,0.0323772345561,0.0432281075419,0.052685969538,0.0432446709732,0.0
49,10.9300003052,1.87244451657e-15,0.109191894531,-0.910110473633,0.2490234375,0.02257907867,0.0394571283945,0.0443381700404,0.0459823608398,-0.959925842285,0.194738769531,-0.0428729254403,-0.00269903386996,0.00308652380857,0.0416411556748,0.0428761945119,0.0271837954491,0.0467267050532,0.0266125413424,0.0172687630399,0.0
50,10.9100003242,0.0210818309626,0.0375061035156,-0.898956298828,0.300659179688,0.00523710628364,0.100302103503,0.0154029247967,-0.000393676757813,-0.960627746582,0.217506408691,-0.0399764714387,-0.00697585752774,-0.0162778797412,0.0457051752406,0.0337540302895,0.0348746961436,0.0205529922276,0.0454494139565,0.0319178295657,0.0
51,10.9600000381,0.0,0.0825653076172,-0.916152954102,0.241729736328,0.0324301115422,0.0861926760482,0.05268771269,0.0527221679687,-0.969102478027,0.21671295166,-0.0100178000197,-0.00546656424316,-0.00243412923633,0.0366725918401,0.0377457383624,0.0194821445745,0.0272309749087,0.0454769416079,0.0234939714439,0.0
52,10.9649996758,0.0263524143609,0.104385375977,-0.8779296875,0.258636474609,0.0362914288067,0.0955678020336,0.0288875746602,0.06982421875,-0.974996948242,0.214189147949,-0.0121341875063,0.0167769827611,-0.0145614191554,0.0233817309011,0.0413287845163,0.0227937101564,0.0505012370248,0.0402146101404,0.0298946614035,0.0
53,10.9500002861,0.0210818309626,0.0894622802734,-0.869049072266,0.274505615234,0.0242424890869,0.0897743613982,0.0964021704031,-0.00235137939453,-0.95671081543,0.223208618164,-0.041362859839,0.00260997776311,0.00458098328588,0.061650129529,0.0397148125607,0.0434404726187,0.0333030599524,0.0564147764503,0.0406850680353,0.0
54,11.0300002098,0.010540664166,0.0783843994141,-0.945617675781,0.272888183594,0.0380214182508,0.0597008811046,0.0833124673293,0.0176071166992,-0.980349731445,0.215229797363,-0.00521556131042,-0.0275163396465,0.000337475773335,0.0377397703106,0.0270860376445,0.0418991764374,0.0362187681927,0.0638410576062,0.0361116892946,0.0
55,10.9300003052,1.87244451657e-15,0.0876007080078,-0.932250976562,0.266311645508,0.00297048987987,0.0727080261847,0.0470719048994,0.0391540527344,-0.977529907227,0.198179626465,-0.0346164070075,0.0188382428132,-0.0125578698042,0.0366751617851,0.0276720141005,0.0408972309605,0.0331945806463,0.0421563245144,0.0350092717212,0.0
56,10.9499998093,1.87244451657e-15,0.182830810547,-0.834823608398,0.267120361328,0.0981966083456,0.141049533446,0.115664814568,-0.00284881591797,-0.931910705566,0.217486572266,-0.00781752295865,-0.013031033635,0.0115753231516,0.106254226287,0.0497181411834,0.0382681971417,0.0654740891904,0.0988129657941,0.0690776848707,0.0
57,10.9850001335,0.0158112475643,0.0685424804688,-0.880630493164,0.28352355957,0.0527660096261,0.0140953127015,0.0586864830454,2.44140625e-05,-0.960922241211,0.223991394043,-0.00629645850205,-0.0327205558907,0.0064172594891,0.0382264784265,0.0313242974471,0.0368653615664,0.0423496933621,0.0445311588885,0.0370885445006,0.0
58,10.9249997139,0.0158112475643,0.120391845703,-0.878524780273,0.272918701172,0.0245641989466,0.156675897458,0.147748981484,0.0357467651367,-0.966535949707,0.21593170166,-0.0235829572429,-0.0137807134819,0.00373910480208,0.0592556583871,0.0496647987676,0.0391204708802,0.0347931284721,0.082045446889,0.0600424925065,0.0
59,10.8249998093,0.0052705833983,0.0689544677734,-0.934143066406,0.247894287109,0.0561684642348,0.048216797852,0.0435184490569,0.0202209472656,-0.976306152344,0.197276306152,-0.0132028607886,-0.00884891198562,0.00276643847715,0.0332913821453,0.0351762808732,0.0281632001078,0.0464026967303,0.0296389723858,0.0305608624241,0.0
60,10.9500002861,0.0210818309626,0.0574188232422,-0.909866333008,0.252944946289,0.0281570695732,0.0182490450537,0.0584372111674,0.0174987792969,-0.954794311523,0.213578796387,-0.0278601271116,-0.0183270756736,0.0025342108301,0.034497056004,0.0281606970117,0.024196362456,0.0289035751802,0.0307191772186,0.0263323145269,0.0
61,10.8499999046,0.0316229977591,0.179748535156,-0.724380493164,0.252365112305,0.056640642696,0.0131104757304,0.117690681209,0.0561264038086,-0.935176086426,0.201127624512,-0.016150314325,-0.0613724940577,0.033685392522,0.052637791318,0.0836954330779,0.0397274179722,0.0374525507113,0.0742859264496,0.0364989786445,0.0
62,10.9100003242,0.0210818309626,0.0897674560547,-0.91340637207,0.290679931641,0.0159129201454,0.0511079255314,0.0694674917703,0.0262954711914,-0.953479003906,0.22632598877,-0.0223618179883,-0.0135764756579,0.000232573857997,0.0410654954694,0.0289062318143,0.034311622153,0.0283422195025,0.0512946209453,0.0455006403789,0.0
63,10.9050002098,0.0158112475643,0.0664367675781,-0.86344909668,0.251098632812,0.00729200138075,0.0714113330499,0.0309043865537,0.0127212524414,-0.950218200684,0.210745239258,-0.0306051537736,-0.00129099397003,-0.00542784188091,0.0422503014299,0.0475967662928,0.0373967502961,0.029176619641,0.0400391088875,0.0257691850092,0.0
64,10.9699997902,0.010540664166,0.195022583008,-0.853164672852,0.279922485352,0.023470705003,0.0906396224364,0.312301710499,0.0666748046875,-0.96163482666,0.204669189453,-0.0389207943826,-0.0166570872488,0.0178767617649,0.0769916735055,0.0901846336224,0.0509860541673,0.0517199239162,0.12278378217,0.117684935539,0.0
65,10.875,0.0474342453234,0.139312744141,-0.891342163086,0.276260375977,0.0932023823534,0.0774335392229,0.0348373428515,0.0265747070312,-0.951921081543,0.210409545898,-0.00566627469331,0.00950255824357,-0.00871886982959,0.053985226332,0.049708681328,0.0373848014631,0.0685716256496,0.0539444597761,0.0361204300154,0.0
66,10.875,0.0474342453234,0.127258300781,-0.890060424805,0.299362182617,0.0609333920571,0.111270332453,0.0417764753879,0.0608459472656,-0.951098632812,0.226007080078,-0.0246307779738,0.0224956684647,-0.0165166853962,0.0391100383614,0.0425911771336,0.0443437050174,0.051841700293,0.0395767734493,0.034669362866,0.0
67,10.9899997711,0.0527048287217,0.0914611816406,-0.898284912109,0.302719116211,0.0469808247901,0.0542424661344,0.0538611014663,0.0259765625,-0.966249084473,0.237086486816,-0.0269947329154,-0.0197133309158,0.0163008095582,0.0406565522783,0.0363727046881,0.0353789970458,0.0404136509597,0.0613953081834,0.0176037676272,0.0
68,11.0199999809,0.0632454928877,0.0933532714844,-0.888671875,0.23860168457,0.0489395797718,0.0837108762284,0.0730462476431,0.0349578857422,-0.953186035156,0.148759460449,-0.0336009436839,-0.0176503131774,0.00993718613347,0.0390517551161,0.0395047950011,0.0670629862532,0.0639299299124,0.0540250647581,0.0358167189532,0.0
69,8.9950003624,0.985576477103,0.0752868652344,-0.960220336914,0.0519561767578,0.0403958926788,0.0396949486798,0.0472263682426,0.00750885009766,-1.00785369873,0.00737762451172,-0.0161680243463,-0.0126620260344,-0.016019446589,0.047089603947,0.027614093488,0.0313764027788,0.0343941735546,0.0437550697938,0.0374671035656,0.0
70,5.17499995232,0.785299082959,0.0406799316406,-0.95051574707,0.316268920898,0.0249876415599,0.0513864921814,0.0352237675257,0.00423431396484,-0.976858520508,0.173031616211,-0.00950809761863,-0.0266357388005,0.0109533951422,0.029051343678,0.0228607331864,0.073577819962,0.0230238902496,0.0390994960764,0.0198276688269,0.0
71,4.42000007629,0.400555290919,0.0459442138672,-0.898452758789,0.407958984375,0.0485235940096,0.0851527116425,0.0188426636606,0.031721496582,-0.938105773926,0.357086181641,-0.012949247958,-0.00310769593924,-0.00481590072563,0.0136365992672,0.0248169859842,0.0356072945509,0.0289949392016,0.0355199986186,0.0264796393833,0.0
72,6.4399998188,0.495423530251,0.0934295654297,-0.892318725586,0.387664794922,0.0366517545022,0.0376086282819,0.0712222486125,0.0286483764648,-0.947332763672,0.298344421387,-0.0393656754427,-0.0325060116333,0.00287948966543,0.0469584512777,0.0349760915696,0.0481325526088,0.0402100012416,0.058411325904,0.041265896162,0.0
73,8.26999998093,0.379473459957,0.109893798828,-0.880035400391,0.338256835938,0.0496434532479,0.0703308885957,0.0218019682639,0.0484497070312,-0.939373779297,0.273138427734,-0.0251888700119,0.0302629375736,-0.0259251275268,0.0475518093627,0.0347267130756,0.0468957760033,0.0425482088078,0.0319840639341,0.0270868601898,0.0
74,9.2999997139,0.20027764546,0.101425170898,-0.90771484375,0.302688598633,-0.00137951744466,0.103383114569,0.0658386684689,0.051838684082,-0.945025634766,0.254061889648,-0.0313833827074,0.017222289927,-0.00846898542451,0.0470887895396,0.0294497517257,0.0402381991089,0.0281256310909,0.0581616347783,0.0459858530069,0.0
75,9.68499994278,0.0158112475643,0.0758361816406,-0.920959472656,0.272018432617,0.0439908938343,0.0393138503279,0.119935459692,-0.017333984375,-0.979507446289,0.198265075684,-0.0114105267433,-0.0499172794712,0.0204833040502,0.0550072481674,0.0291104060411,0.0458042276159,0.0334481762296,0.0892780526741,0.0487021927447,0.0
76,8.90500020981,0.279334385912,0.05078125,-0.910202026367,0.232604980469,0.0409133448786,0.0202429537618,0.0720054842891,-0.0185455322266,-0.967877197266,0.167872619629,-0.0119647571978,-0.0324693931683,0.0160611250601,0.0535858673863,0.0394580397362,0.0404794645396,0.0374568584084,0.0324253670873,0.0367107610425,0.0
77,7.52500009537,0.606103519777,0.0822448730469,-0.965560913086,0.131576538086,0.0432465403096,0.0978874153431,0.0140042325922,0.0280242919922,-1.00080718994,0.0945373535156,-0.0182813758293,0.00958519613219,-0.00511649171787,0.0337829622006,0.0213850130154,0.0311447432244,0.0387486124386,0.0436601295489,0.0213079463051,0.0
78,4.9849998951,0.732594254237,0.0448303222656,-0.947509765625,0.131225585938,0.0163126606251,0.0471249018051,0.040357276843,0.0222274780273,-0.985899353027,0.0867370605469,-0.021652005663,-0.000816178979277,0.00201947505461,0.0199391060555,0.0221678429118,0.0264678563917,0.0191576715217,0.0276020730628,0.0239586648154,0.0
79,2.55500006676,0.426907453965,0.0391082763672,-0.943969726562,0.301620483398,0.00406851119731,0.0170950973533,0.0171028205205,0.00879058837891,-0.972444152832,0.188522338867,-0.0119917616512,-0.0239621381189,-0.000594044712753,0.0241145350818,0.0161737173197,0.0530203923805,0.00848884823937,0.0249418676552,0.0146273032782,0.0
80,2.09499996901,0.500693925163,0.0602569580078,-0.917419433594,0.394897460938,0.0137661459907,0.0214887805197,0.018875420542,0.0254898071289,-0.935897827148,0.352282714844,-0.0187951528668,-0.00796333102833,-0.00827510729715,0.0250821058505,0.0167435730599,0.0300389688659,0.0157178299117,0.0240169179348,0.0235802159624,0.0
81,4.24499988556,0.479612031371,0.151306152344,-0.884201049805,0.377960205078,0.0502549150342,0.071387098284,0.0455232767255,0.0231292724609,-0.942361450195,0.297261047363,-0.00409540912432,-0.0252877798147,0.0130311401615,0.0582390579001,0.046093529047,0.0380401873496,0.0259644584768,0.041289920028,0.0228527179659,0.0
82,5.80999994278,0.421637121882,0.0970001220703,-0.903732299805,0.423049926758,0.04432245739,0.104598847606,0.0550001354645,0.0233245849609,-0.953530883789,0.340139770508,-0.00301981162326,0.0137420177513,0.00249253235904,0.0510535095263,0.0372628516916,0.0444385948441,0.0413564224923,0.0584028019478,0.0307198974169,0.0
83,7.63499999046,0.521775944612,0.0696716308594,-0.867523193359,0.399917602539,0.158700965151,0.0818977961582,0.0375255376559,0.00675659179688,-0.938488769531,0.331707763672,-0.00143565688044,0.0302184627834,-0.00307808158791,0.0411338878596,0.0387500731459,0.0457612012819,0.0636971673929,0.0351745872995,0.0207266076738,0.0
84,9.27500009537,0.34258038143,0.0688323974609,-0.877792358398,0.315185546875,0.0783041265833,0.0759858448544,0.0451744026227,-0.0139602661133,-0.94733581543,0.260038757324,-0.0203670570686,-0.0118870195256,0.00323403630135,0.0562346479291,0.0418195064571,0.0336143041802,0.0555291128079,0.0517745083759,0.0357010909661,0.0
85,10.0799999237,0.115949818979,0.101852416992,-0.880249023438,0.291275024414,0.0548134478721,0.0524379081798,0.0545458001826,0.0150527954102,-0.965322875977,0.238621520996,-0.0299086306221,-0.00129371039434,0.00588116516167,0.0414219066484,0.046330795933,0.0326556862185,0.0400771372351,0.0281363164409,0.03088935793,0.0
86,10.2049999237,0.0368930785269,0.0812072753906,-0.793930053711,0.253372192383,0.0418949860564,0.0733863333143,0.124679348541,0.00727691650391,-0.956195068359,0.224827575684,-0.0295790910688,-0.000338541037771,0.00566883132795,0.0564251113987,0.0700448757048,0.0250406363095,0.0453996369928,0.0668579856047,0.0603719947631,0.0
87,10.1700000763,1.87244451657e-15,0.100524902344,-0.932052612305,0.30842590332,0.0278436155129,0.0693625632233,0.052389704964,0.032942199707,-0.972343444824,0.232466125488,-0.02137405154,-0.0160287676529,0.00451387162641,0.0402669472117,0.0265311933685,0.0491251960267,0.0403354296915,0.0509507314966,0.0341115229554,0.0
88,10.3099999428,0.115950321609,0.12077331543,-0.914016723633,0.305282592773,0.052536178824,0.0427788892222,0.0613842652297,0.0375900268555,-0.95227355957,0.222372436523,-0.0166719743193,-0.0170157351528,0.0105353587459,0.0474070924542,0.021009574919,0.0555719326119,0.0467931579758,0.0406622408312,0.0276027384478,0.0
89,10.4750003815,0.0474342453234,0.201034545898,-0.698852539062,0.309188842773,0.0989050091956,0.0746002021392,0.0660431992407,0.0205764770508,-0.939465332031,0.228193664551,-0.0263240690581,-0.00982461431419,0.019374177351,0.0878571108658,0.0943426770623,0.0684924840955,0.062431017945,0.0711675527077,0.0295585521264,0.0
90,11.009999752,0.242441307385,0.172027587891,-0.78776550293,0.315490722656,0.0999902473398,0.190841591083,0.134262733724,-0.000712585449219,-0.923857116699,0.248402404785,-0.0175000576287,-0.00371297919179,0.0160368636626,0.124362269543,0.0895290265507,0.0417587720406,0.0680720005555,0.105242577732,0.0608710635199,0.0
91,12.0049996376,0.110679738211,0.0740356445312,-0.889022827148,0.268478393555,0.0534997105064,0.0117117835258,0.0497028417403,0.00352630615234,-0.967677307129,0.201594543457,-0.0121440944656,-0.0298103333463,0.0073094717175,0.0428329785495,0.0436665725667,0.0472287691201,0.0387306961647,0.0344420068371,0.023948085194,0.0
92,11.6700000763,0.158113480904,0.102798461914,-0.865676879883,0.167465209961,0.0505268237815,0.102128233063,0.127729733254,0.0249130249023,-0.976020812988,0.0779708862305,-0.00366142039308,-0.0335846984012,0.0311826336244,0.0629016747592,0.0621450860888,0.0755254499659,0.0434941590987,0.0745898415115,0.0559357690003,0.0
93,9.72499990463,0.869626658125,0.0624847412109,-0.912979125977,0.0791168212891,0.0255210727262,0.106711533299,0.0653177541597,-0.00362854003906,-1.00406799316,-0.0196151733398,-0.0270786491214,-0.0171611437484,0.00829675879681,0.0469441901063,0.039340216287,0.0439313125975,0.0497543895828,0.0586813882536,0.0386347486262,0.0
94,5.84999990463,1.09625621531,0.0179595947266,-0.98291015625,0.0200653076172,0.00795060111832,0.0341856673328,0.036177179196,-0.0210861206055,-1.02758483887,-0.0132400512695,-0.0143317215114,-0.0032038626862,0.00274031286686,0.0278062928688,0.0243594117428,0.0224397624564,0.0111497649395,0.0243512497146,0.0261763209247,0.0
95,1.91499993205,1.00665833948,-0.00691223144531,-0.954742431641,0.227142333984,-0.00753834378158,0.00537319381534,0.00723048235957,-0.0226486206055,-0.995919799805,0.0836929321289,-0.0170768546999,-0.00478199868496,0.000157366188813,0.00926412803912,0.0198277801192,0.0788554615037,0.00664273328402,0.00661701755899,0.00534948727692,0.0
96,0.0,0.0,-0.0247955322266,-0.964492797852,0.19482421875,-0.0149315452837,-0.00520701256332,0.00197073920666,-0.0267440795898,-0.970599365234,0.186569213867,-0.0184709928989,-0.00668767686619,-0.000171853785143,0.00148965955225,0.00393407106666,0.00528462483097,0.00341068220981,0.00123900378572,0.0010040572152,0.0
97,0.0,0.0,-0.0261688232422,-0.968368530273,0.190628051758,-0.013898771413,-0.00625017276231,0.00091532846666,-0.0270126342773,-0.971076965332,0.187484741211,-0.0182635060184,-0.00722086834803,-6.1732074068e-05,0.000813422114359,0.00198196274797,0.00284296169929,0.0022701917355,0.00127987154396,0.000777286042104,0.0
98,0.0,0.0,-0.025146484375,-0.97021484375,0.190017700195,-0.014939534767,-0.00308021211679,0.000899083184011,-0.0265411376953,-0.972169494629,0.187881469727,-0.0183578618158,-0.00541191617759,3.92549944678e-05,0.00122628947038,0.00133420057113,0.00159015487618,0.00193391119806,0.00130913195708,0.000665005671429,0.0
99,0.0,0.0,-0.0250854492188,-0.968368530273,0.190643310547,-0.0160495403094,-0.00520754519554,0.000923584266039,-0.0262405395508,-0.970704650879,0.187326049805,-0.0177316727487,-0.00690517723241,0.000156141134711,0.000975556650317,0.00124721246917,0.00212352790752,0.00102603387843,0.00114316214695,0.000722497842023,0.0
100,0.0,0.0,-0.0257720947266,-0.969619750977,0.192169189453,-0.0106952549378,-0.00414361234005,0.00200882241025,-0.0268707275391,-0.971598815918,0.187663269043,-0.017099225253,-0.00659007201223,0.000801531593281,0.000744125668655,0.00166032095323,0.00378890784703,0.0029271756392,0.00151170676133,0.00105696890992,0.0
101,0.0,0.0,-0.0253448486328,-0.969635009766,0.191833496094,-0.0149768190223,-0.0041095238781,0.000931840065419,-0.0266387939453,-0.971446228027,0.188954162598,-0.0192248272771,-0.00742734322734,3.55798321635e-05,0.000690151728784,0.00110633060638,0.00193000795451,0.00223429530384,0.00162684583608,0.000991961027672,0.0
102,0.0,0.0,-0.0247497558594,-0.967834472656,0.190689086914,-0.0160335613428,-0.00518011463631,0.00194330864743,-0.0264297485352,-0.970210266113,0.18695526123,-0.0186893987399,-0.0072180986605,-6.60996582558e-05,0.00108007247345,0.00136342306198,0.00207527073243,0.00236233360756,0.00154697710453,0.000936919440652,0.0
103,0.0,0.0,-0.02587890625,-0.968063354492,0.193862915039,-0.0149368716059,0.00224504479894,0.00189989912166,-0.0265472412109,-0.971580505371,0.18807220459,-0.019546244189,-0.00710608610505,0.000351324211003,0.000603351720276,0.00245459754564,0.00417664427255,0.00265289451493,0.00620144430434,0.000741313082632,0.0
104,0.0,0.0,-0.0252685546875,-0.968215942383,0.193466186523,-0.0138974398325,-0.00519369675787,0.00090733898339,-0.0264709472656,-0.971015930176,0.189306640625,-0.0177290095876,-0.00616055739163,0.00036748959882,0.000659796343928,0.0017900358245,0.00299016207677,0.00175582477066,0.000787364178054,0.00055374543918,0.0
105,0.0,0.0,-0.0247650146484,-0.969314575195,0.191436767578,-0.0149768190223,-0.00414387865616,0.00197340236775,-0.025993347168,-0.971798706055,0.188966369629,-0.017732338539,-0.00679878394686,0.000262481157038,0.00080083207225,0.00172887758822,0.00110238106955,0.00201922286954,0.00134772066003,0.00103468142665,0.0
106,0.0,0.0,-0.0243835449219,-0.968826293945,0.190933227539,-0.014939534767,-0.0062853264887,-0.000150734917698,-0.0263092041016,-0.970899963379,0.187602233887,-0.0175177942815,-0.00775762846574,-0.000372576236502,0.00132330449745,0.0015558886063,0.00171808890551,0.00161021990642,0.000893853539472,0.000437053197628,0.0
107,0.0,0.0,-0.0244445800781,-0.969848632812,0.190979003906,-0.0160335613428,-0.00519369675787,0.000918257943859,-0.0264358520508,-0.971311950684,0.188584899902,-0.0182557828512,-0.00658272168763,-0.000276542647594,0.00113210777673,0.000837689144548,0.00156806197592,0.00116416793837,0.00112850875735,0.000792824146908,0.0
108,0.0,0.0,-0.0241241455078,-0.968200683594,0.190170288086,-0.0128327080287,-0.0052003546606,0.000923584266039,-0.026286315918,-0.971630859375,0.187573242188,-0.0169931515468,-0.00722904425258,0.000484402370675,0.00113925593043,0.00173237551025,0.00162775992602,0.00215618146252,0.00146103952276,0.000542837139908,0.0
109,0.0,0.0,-0.0261535644531,-0.963577270508,0.200607299805,-0.00867098619319,0.010803379278,0.00185888644088,-0.0271560668945,-0.971774291992,0.188610839844,-0.0217740583357,-0.00581511876663,0.000431804939145,0.000730407558718,0.00517782974491,0.00651563514736,0.00666594125315,0.00846798311403,0.000974828000155,0.0
110,0.0,0.0,-0.0231781005859,-0.964263916016,0.191101074219,-0.00529835898871,0.00535322010717,0.00406717961677,-0.0272323608398,-0.969378662109,0.186790466309,-0.0160175823763,-0.00532072954187,0.000276223068263,0.00232629735145,0.00249991560833,0.00484640135418,0.00465387198563,0.0042185168686,0.00188554469072,0.0
111,0.0,0.0,-0.0184936523438,-0.965148925781,0.194534301758,-0.00966114948648,-0.00310178372162,0.000989098028855,-0.0262405395508,-0.971955871582,0.188958740234,-0.0158074323347,-0.00627949416591,-3.90153099697e-05,0.00311186242583,0.00395701750679,0.00515912171873,0.00368613639002,0.00187730843222,0.00136555670581,0.0
112,0.0,0.0,-0.0227508544922,-0.969223022461,0.192977905273,-0.0138827924465,-0.00413668812122,0.000893756861831,-0.0265747070312,-0.971742248535,0.188691711426,-0.0180411054357,-0.00615861328403,-0.0001688177815,0.00239544305525,0.00157551789743,0.0028458671108,0.00243793521833,0.00127560627748,0.000988904590556,0.0
113,0.0,0.0,-0.0240325927734,-0.969421386719,0.192459106445,-0.0117519972583,-0.00519343044176,0.000896420022921,-0.0259460449219,-0.970959472656,0.188653564453,-0.0172959263311,-0.0063762201767,-0.000267248215389,0.00137521491274,0.00140548090449,0.00314512231457,0.00274333370328,0.00136641994128,0.000929786555156,0.0
114,0.0,0.0,-0.0248413085938,-0.968826293945,0.193405151367,-0.0117826236108,-0.00413003021849,0.000964596946827,-0.0266342163086,-0.971398925781,0.190089416504,-0.0170867083959,-0.00648391841118,-5.15854303148e-05,0.00101062523149,0.00139727338244,0.00255738447779,0.00264542599587,0.00229556387193,0.000788842651045,0.0
115,0.0,0.0,-0.0230255126953,-0.968872070312,0.208801269531,-0.00322748492507,-0.00204477508496,0.00300937203179,-0.0263000488281,-0.975132751465,0.192001342773,-0.0172864721093,-0.00648277325191,-0.00101322626833,0.00143037436499,0.00508484400982,0.00635884187892,0.00959214485017,0.00252268481892,0.00278369884895,0.0
116,0.0,0.0,-0.0218048095703,-0.950149536133,0.199340820312,-0.00855780184686,0.0194229664622,0.00306396683414,-0.0273635864258,-0.968902587891,0.188442993164,-0.0185540302617,-0.00317683160113,3.14785640847e-05,0.00288846051238,0.00728293546112,0.0077130551686,0.00991646462838,0.00852921844286,0.00168431601,0.0
117,0.0,0.0,-0.0248107910156,-0.966537475586,0.194274902344,-0.0149528505725,-0.000959536940756,0.00092891058822,-0.0266403198242,-0.970042419434,0.187911987305,-0.0177280774812,-0.0058414307982,0.000473296988929,0.000888931238895,0.00180185919605,0.00367804697331,0.0023110759478,0.00275638022746,0.000545130041076,0.0
118,0.0,0.0,-0.0227355957031,-0.967849731445,0.190948486328,-0.012784771129,-0.000980575913367,0.00198698448931,-0.0258453369141,-0.970346069336,0.185096740723,-0.0168718978224,-0.0058470500681,0.000162213141997,0.0017234823073,0.0017854333649,0.00317751230473,0.0020643897844,0.00219181409806,0.000877785853585,0.0
119,0.0,0.0,-0.0235900878906,-0.968673706055,0.198318481445,-0.00960655468413,0.000117711720182,0.00204397613664,-0.026416015625,-0.971951293945,0.186219787598,-0.0145352136503,-0.00681960986659,8.20253615744e-05,0.00122939932906,0.00248219849423,0.0052673819687,0.00318140597328,0.00600038198989,0.000989383505042,0.0
120,0.0,0.0,-0.0242919921875,-0.964721679688,0.194046020508,-0.0127821079679,0.00327462287636,0.00199310975982,-0.0263305664062,-0.972480773926,0.187156677246,-0.0194336457381,-0.0066813651744,0.000138138165742,0.00110453210937,0.00444836811632,0.00524101953157,0.00475680218963,0.00620396401787,0.00101388518929,0.0
121,0.0,0.0,-0.0248260498047,-0.965576171875,0.1943359375,-0.0117599867416,-0.00414414497227,0.000879908424162,-0.0261535644531,-0.971871948242,0.188990783691,-0.0187881487531,-0.00657925957821,-0.000282002127828,0.000773011585878,0.00307748083828,0.00353895770106,0.0036639691301,0.00158802515066,0.000781648819149,0.0
122,0.0,0.0,-0.025146484375,-0.969116210938,0.193298339844,-0.0106872654545,-0.00413695443733,0.00198432132822,-0.0265548706055,-0.971855163574,0.187840270996,-0.017838012771,-0.00669172487104,0.000261122944882,0.00127087485299,0.00195904008244,0.00405804141077,0.00451902135979,0.00175116153372,0.00102899632726,0.0
123,0.0,0.0,-0.0257720947266,-0.969970703125,0.191314697266,-0.0106952549378,-0.0051798483202,0.000948351664177,-0.0267959594727,-0.971675109863,0.18715057373,-0.0174066605693,-0.0061626879205,0.000157552610089,0.000834254126161,0.00206299292108,0.00270658450716,0.00434331392873,0.000786105341156,0.000741668472537,0.0
124,0.0,0.0,-0.0233154296875,-0.970352172852,0.192672729492,-0.0139040977352,-0.00412976390239,0.0019542276079,-0.0259521484375,-0.971278381348,0.188464355469,-0.0173056468691,-0.00669518698046,0.000266582425117,0.00121541041453,0.000648734853733,0.00281197030766,0.00164818193932,0.00134720232931,0.00114573048099,0.0
125,0.0,0.0,0.00321960449219,-0.909942626953,0.419677734375,0.00624857486565,0.00645177405683,0.0160383550328,-0.0270050048828,-0.939088439941,0.325068664551,-0.0115480257504,-0.011837777677,0.0047102797568,0.0125934430321,0.0225903844957,0.0964985321344,0.0119067764471,0.0100702401557,0.0063804663291,0.0
126,2.77000004053,0.906519673823,0.149841308594,-0.886245727539,0.423889160156,0.0204615992873,0.176702069907,-0.00623685695686,0.0346466064453,-0.927221679687,0.348596191406,-0.027507817531,0.0761243025994,-0.0259606008325,0.0628089237197,0.0202683761222,0.0529963332029,0.0283280444619,0.0677169328905,0.0243481301769,0.0
127,5.29999995232,0.32676888255,0.237396240234,-0.924407958984,0.257385253906,0.0168349065148,0.367168421593,0.0142175517955,0.168174743652,-0.969030761719,0.21524810791,-0.00727903178624,0.297986660376,-0.0521284222295,0.0532462310152,0.0287003415783,0.0295600928034,0.0140654287365,0.052089847554,0.0343375598,0.0
128,6.17499995232,0.321498299152,0.28727722168,-0.902404785156,0.318649291992,0.0683617472857,0.397662415022,0.00450473698387,0.219255065918,-0.948774719238,0.250315856934,-0.00203912918345,0.312627947732,-0.0767421027091,0.0599137472276,0.0282295831325,0.0547085028434,0.0508386235159,0.0740115517751,0.0538915697477,0.0
129,8.53999996185,0.843274243764,0.167678833008,-0.821197509766,0.325988769531,0.022928485405,0.188126498352,0.0393860219934,0.0113754272461,-0.938227844238,0.295095825195,-0.0299880727175,0.0382740723435,-0.0133069903872,0.0651517389257,0.0649125422443,0.0229176629005,0.0423677835614,0.0717554296435,0.023919599965,0.0
130,11.2300000191,0.516505612529,0.119674682617,-0.797088623047,0.331970214844,0.126557409742,0.26198208065,0.0538009140257,0.0334823608398,-0.941441345215,0.233366394043,0.0136035600062,0.00926963817463,-0.0161977185924,0.064920448345,0.0834547347072,0.0514471727937,0.0764281430283,0.106976206251,0.0784099863528,0.0
131,12.595000267,0.258252554949,0.246109008789,-0.841354370117,0.284072875977,0.0628346227593,0.0917946354012,0.128667964906,-0.00961456298828,-0.957368469238,0.21725769043,-0.0104104564908,-0.0439669253844,0.0206914300894,0.121266011681,0.0560055497649,0.0488740830834,0.0464032539415,0.0671506164284,0.0466391235274,0.0
132,13.3899998665,0.115950321609,0.210235595703,-0.809585571289,0.294418334961,0.0653742131748,0.196200670144,0.0489574229511,-0.0225204467773,-0.971514892578,0.205834960937,-0.0356833758666,0.0376709462514,-0.0254119630164,0.140647108541,0.079733747342,0.0750945298666,0.0787634447463,0.0807478787221,0.0593455783503,0.0
133,12.8850002289,0.447989536243,0.146301269531,-0.890045166016,0.149871826172,0.0648234714614,0.141445279184,0.0809260086765,0.0479797363281,-0.998896789551,0.082160949707,-0.00755434937973,0.0205793909023,0.00296156829022,0.106350380594,0.0444914176362,0.035249155559,0.0469587118514,0.0897211329727,0.0591422124733,0.0
134,10.5999999046,0.85381490793,0.113327026367,-0.915008544922,0.108993530273,0.0215883827445,0.0298010389141,0.047808801573,-0.010661315918,-0.999548339844,0.031510925293,-0.0191997402996,-0.0323160217211,0.0156667907975,0.0805361626917,0.038365859105,0.0362898771168,0.0304477690484,0.0381895979764,0.027676447115,0.0
135,7.18000030518,1.41248418238,0.069580078125,-0.973663330078,-0.00386047363281,0.0241519416098,0.0948777769952,0.024770593931,0.0136703491211,-1.02325439453,-0.0588775634766,-0.0168275828218,0.0272342043606,-0.000562432990614,0.0227918180906,0.0248601260551,0.0392668644563,0.0204758435764,0.0385648999563,0.0105806283014,0.0
136,2.04499995708,1.12260850402,0.0556488037109,-0.971450805664,0.159851074219,0.0141645548898,0.0289070157362,0.0460308752293,0.00784454345703,-0.9966796875,0.08173828125,-0.0133331692607,-0.0048053013445,0.00669966109109,0.0255626526508,0.0312535431297,0.0849578601699,0.0115853723891,0.02228108378,0.0168235536536,0.0
137,0.140000000596,0.147572958103,0.0226135253906,-0.965744018555,0.206665039062,-0.0116960708754,0.00220349948593,0.00516573356643,0.00664978027344,-0.972319030762,0.185237121582,-0.0170908362956,-0.00605831863738,0.000480380997428,0.00594049305098,0.00416067787018,0.0174948152321,0.00258502962301,0.00393028500461,0.00189492376134,0.0
138,0.0750000029802,0.0790569446456,0.0772247314453,-0.94108581543,0.330871582031,-0.0030511836609,0.16705396991,0.00305890682807,0.0331237792969,-0.954977416992,0.264428710937,-0.0139226333364,0.0608264395077,-0.0154397563146,0.0221761193698,0.0096935398576,0.0385946135386,0.00636176179497,0.0612617274196,0.0173439046948,0.0
139,1.87000006437,0.822192224315,0.27018737793,-0.914489746094,0.343200683594,0.0184178894668,0.54250642039,-0.0540390006271,0.195454406738,-0.944464111328,0.289904785156,-0.0149286424382,0.447478148161,-0.119337526764,0.0440872983643,0.0226524410572,0.0326340087883,0.023227460577,0.104599620042,0.0441103978208,0.0
140,4.32499992847,0.374202750901,0.203979492188,-0.892700195312,0.399490356445,0.135826009284,0.43551019517,0.00680624079792,0.04052734375,-0.959120178223,0.282678222656,-0.015150963126,0.258147315101,-0.0589299758639,0.114478453633,0.0625291454429,0.0520316559003,0.073923030002,0.118390897738,0.0426659616144,0.0
141,5.51428576878,0.297649354725,0.106597900391,-0.801406860352,0.301773071289,0.106365322357,-0.0210794526602,0.226548988663,-0.0181971958705,-0.922631399972,0.20786176409,0.0296377490941,-0.106251947785,0.0549545573647,0.130146415171,0.0816999596721,0.0848449704183,0.0486843748121,0.085581181741,0.0865421930732,0.0
