timestamp,latitude,longitude,speed,accelerometerX,accelerometerY,accelerometerZ,gyroX,gyroY,gyroZ
1492617766.1,40.4795644758646,-79.922401523292,0.0,0.056304931640625,-0.96099853515625,0.212783813476562,-0.0221689518621466,0.000141946486101223,-0.0140881221665192
1492617766.3,40.4795644758646,-79.922401523292,0.0,0.0389556884765625,-0.967254638671875,0.2110595703125,-0.0107578392233751,-0.0126944899680807,0.000988831712746421
1492617766.5,40.4795644758646,-79.922401523292,0.0,0.035858154296875,-0.966018676757812,0.212066650390625,-0.0107365339346544,-0.0020567593098682,0.00522645363928051
1492617766.7,40.4795644758646,-79.922401523292,0.0,0.0408477783203125,-0.967041015625,0.211074829101562,-0.0159962770875609,-0.00521473573048416,-0.0012165319859482
1492617766.9,40.4795644758646,-79.922401523292,0.0,0.044158935546875,-0.964202880859375,0.21337890625,-0.0160468771482725,-0.00415000392667048,0.0030450583903966
1492617767.1,40.4795644758646,-79.922401523292,0.0,0.04083251953125,-0.962249755859375,0.213088989257812,-0.0117892815135628,-0.0063053001968716,0.00202799717009534
1492617767.3,40.4795644758646,-79.922401523292,0.0,0.05169677734375,-0.965972900390625,0.231582641601562,-0.0127181921017824,8.20253615744405e-05,-0.00439528106306677
1492617767.5,40.4795644758646,-79.922401523292,0.0,0.047760009765625,-0.955551147460938,0.23699951171875,-0.0148849399646709,-0.000967260107916779,-0.00228232905419791
1492617767.7,40.4795644758646,-79.922401523292,0.0,0.042938232421875,-0.962432861328125,0.222625732421875,-0.0189973933199712,0.0107597034361381,-0.00661955320550095
1492617767.9,40.4795644758646,-79.922401523292,0.0,0.045318603515625,-0.962051391601562,0.234771728515625,-0.0169185297730554,0.0118105868022834,-0.00233612490821751
1492617768.1,40.4795644758646,-79.922401523292,0.0,0.0497894287109375,-0.9617919921875,0.227935791015625,-0.0136257974012814,0.017107081578233,-0.00658093736969481
1492617768.3,40.4795644758646,-79.922401523292,0.0,0.04632568359375,-0.958938598632812,0.223846435546875,-0.0168932297426996,0.0171291858152807,-0.00128337732930918
1492617768.5,40.4795644758646,-79.922401523292,0.0,0.0535736083984375,-0.963958740234375,0.235733032226562,-0.0125064707951211,0.022418223740178,-0.0076493975990346
1492617768.7,40.4795644758646,-79.922401523292,0.0,0.0543060302734375,-0.960601806640625,0.258056640625,-0.00820626458297016,0.0298364589565937,-0.00655830050042913
1492617768.9,40.4795644758646,-79.922401523292,0.0,0.064971923828125,-0.940093994140625,0.324508666992188,-0.00471912145162041,0.0532142196375273,-0.0151126402378727
1492617769.1,40.4795644758646,-79.922401523292,0.0,0.0731048583984375,-0.933029174804688,0.364974975585938,-0.00776284826147197,0.0713170571473409,-0.0162567342421707
1492617769.3,40.4795507714529,-79.9224073906242,0.439999997615814,0.0696258544921875,-0.925933837890625,0.381378173828125,-0.0150481917394927,0.093702524006111,-0.0163890933483476
1492617769.5,40.4795507714529,-79.9224073906242,0.439999997615814,0.0416412353515625,-0.916091918945312,0.40216064453125,-0.00655563733933905,0.0883285312424401,-0.0173544892435014
1492617769.7,40.4795507714529,-79.9224073906242,0.439999997615814,0.066619873046875,-0.926513671875,0.394607543945312,-0.00635190551594799,0.0978991332518578,-0.0269730281525405
1492617769.9,40.4795507714529,-79.9224073906242,0.439999997615814,0.0120849609375,-0.935882568359375,0.400283813476562,0.0312540596048429,0.0519191243994218,0.00125221834455526
1492617770.1,40.4795507714529,-79.9224073906242,0.439999997615814,0.022705078125,-0.906585693359375,0.38525390625,0.0349630440549963,0.0157318251913161,0.0216416459663109
1492617770.3,40.4795384081458,-79.9224106595665,1.9099999666214,-0.0275726318359375,-0.920333862304688,0.490859985351562,-0.0367867767694825,0.000246076084723322,0.0422712907183917
1492617770.5,40.4795384081458,-79.9224106595665,1.9099999666214,0.021148681640625,-0.917282104492188,0.391860961914062,-0.0631467452390868,-0.00809600971384088,0.0185662275394874
1492617770.7,40.4795384081458,-79.9224106595665,1.9099999666214,0.0476531982421875,-0.932403564453125,0.371612548828125,-0.0367215293227756,-0.0242227816948157,0.0242094658893653
1492617770.9,40.4795384081458,-79.9224106595665,1.9099999666214,0.0014801025390625,-0.968658447265625,0.353240966796875,-0.00736790147181322,-0.0276121868141596,-0.0213284582221176
1492617771.1,40.4795384081458,-79.9224106595665,1.9099999666214,0.04052734375,-0.920135498046875,0.388397216796875,-0.0756811792256538,-0.0537612329254296,-0.0240928194336198
1492617771.3,40.4795092391227,-79.9224187061935,3.73000001907349,0.0382232666015625,-0.942489624023438,0.399322509765625,0.0101319963672065,-0.0511228392334881,0.00983159179624552
1492617771.5,40.4795092391227,-79.9224187061935,3.73000001907349,-0.05548095703125,-0.941116333007812,0.380477905273438,0.00630396861632656,-0.104281132488124,0.026989007119081
1492617771.7,40.4795092391227,-79.9224187061935,3.73000001907349,0.0274810791015625,-0.932952880859375,0.403640747070312,-0.0438723831657474,-0.056094162040339,-0.0152314172224902
1492617771.9,40.4795092391227,-79.9224187061935,3.73000001907349,0.00128173828125,-0.905990600585938,0.355056762695312,-0.0239767056100924,-0.0636663279677613,0.0052498894568732
1492617772.1,40.4794928442752,-79.9224106365645,5.32999992370605,-0.0032501220703125,-0.9503173828125,0.3675537109375,0.00810772762263723,-0.0819614457082786,-0.0146324722933314
1492617772.3,40.4794928442752,-79.9224106365645,5.32999992370605,0.0285491943359375,-0.838577270507812,0.321426391601562,-0.0359071346614294,-0.0497566375942774,0.0285485542534314
1492617772.5,40.4794928442752,-79.9224106365645,5.32999992370605,-0.0408935546875,-0.94110107421875,0.353103637695312,-0.0553407537679556,-0.0294271310970486,-0.0186162949679809
1492617772.7,40.4794928442752,-79.9224106365645,5.32999992370605,-0.0279083251953125,-0.905426025390625,0.290191650390625,0.0175166757538872,-0.141581633031883,0.0431932770877771
1492617772.9,40.4794928442752,-79.9224106365645,5.32999992370605,-0.0361480712890625,-0.915802001953125,0.350982666015625,-0.031996282600648,-0.130615268295154,0.0874390354383536
1492617773.1,40.4794928442752,-79.9224106365645,5.32999992370605,-0.0018157958984375,-0.898223876953125,0.31280517578125,-0.0125642613907758,-0.0860770948568871,0.0150204948641559
1492617773.3,40.479492203123,-79.9224110464762,6.65999984741211,-0.0337066650390625,-0.945602416992188,0.311538696289062,0.000711330327160165,-0.124454045113256,0.0355135194523157
1492617773.5,40.479492203123,-79.9224110464762,6.65999984741211,0.0180816650390625,-0.961334228515625,0.387466430664062,0.0705149130270091,-0.124902521440825,0.0703481991427701
1492617773.7,40.479492203123,-79.9224110464762,6.65999984741211,-0.0537109375,-0.955535888671875,0.353347778320312,-0.0396858939321428,-0.117809191877399,0.0340165566035821
1492617773.9,40.479492203123,-79.9224110464762,6.65999984741211,-0.011138916015625,-0.9034423828125,0.357742309570312,-0.0264718212353876,-0.0232334173498513,-0.0236677789236432
1492617774.1,40.479492203123,-79.9224110464762,6.65999984741211,-0.056884765625,-0.90130615234375,0.368072509765625,-0.017409084045848,-0.0860387453371899,0.0576193543966274
1492617774.3,40.4793536979888,-79.9224967365548,7.82999992370605,0.0805511474609375,-0.984237670898438,0.338943481445312,-0.0187111035027877,0.0118183099694446,-0.0268774206694067
1492617774.5,40.4793536979888,-79.9224967365548,7.82999992370605,-0.0306396484375,-0.970123291015625,0.345565795898438,-0.0877692674135234,-0.0855801489974783,0.0632950833118043
1492617774.7,40.4793536979888,-79.9224967365548,7.82999992370605,-0.098480224609375,-0.952285766601562,0.286300659179688,0.0485302519122959,-0.0364799806119054,0.0133855802709563
1492617774.9,40.4793536979888,-79.9224967365548,7.82999992370605,-0.0057373046875,-0.961013793945312,0.352615356445312,0.0256995045192647,-0.0756870381800519,0.026047579673738
1492617775.1,40.4793536979888,-79.9224967365548,7.82999992370605,0.0964202880859375,-0.969894409179688,0.348358154296875,-0.02698927343519,0.0203798402418314,-0.0397788382541866
1492617775.3,40.4792854642181,-79.9225389366844,8.78999996185303,0.064453125,-0.93145751953125,0.363754272460938,0.0171808511404282,-0.025644909716918,-0.0242808386065794
1492617775.5,40.4792854642181,-79.9225389366844,8.78999996185303,-0.108734130859375,-0.933914184570312,0.347869873046875,0.0369926391217457,-0.00342881990347702,0.0185132306337948
1492617775.7,40.4792854642181,-79.9225389366844,8.78999996185303,0.112564086914062,-0.95526123046875,0.336944580078125,-0.0075588501219719,-0.0680211289822589,0.0480777808430915
1492617775.9,40.4792854642181,-79.9225389366844,8.78999996185303,0.111724853515625,-0.863571166992188,0.397354125976562,-0.0834746538396617,0.0388326171188814,-0.0265439929009288
1492617776.1,40.4792854642181,-79.9225389366844,8.78999996185303,-0.0758514404296875,-0.92718505859375,0.357711791992188,0.0238544665160578,-0.140558446541074,0.0475203812269379
1492617776.3,40.4792081810281,-79.922586733554,10.0,-0.085479736328125,-1.01890563964844,0.31787109375,0.00681209975231368,-0.151085656014048,0.0420419925485359
1492617776.5,40.4792081810281,-79.922586733554,10.0,0.179168701171875,-0.875457763671875,0.262237548828125,0.059286226922908,-0.0897293539758218,0.0541492554962541
1492617776.7,40.4792081810281,-79.922586733554,10.0,-0.04931640625,-0.8837890625,0.262359619140625,-0.0191270892650581,-0.0839047543557095,0.0288084787758232
1492617776.9,40.4792081810281,-79.922586733554,10.0,0.03582763671875,-0.9693603515625,0.294876098632812,-0.00164130617981583,-0.0435988765217962,0.0182213481783221
1492617777.1,40.4792081810281,-79.922586733554,10.0,0.0170440673828125,-0.935699462890625,0.312271118164062,0.0219026357531387,-0.0394981410752922,0.0120545323581347
1492617777.3,40.4791214213784,-79.9226403912725,10.8000001907349,-0.1099853515625,-0.95440673828125,0.339080810546875,0.0368919716325407,0.0157091883220504,-0.0412451747503842
1492617777.5,40.4791214213784,-79.9226403912725,10.8000001907349,-0.0873260498046875,-0.923629760742188,0.285629272460938,-0.00737296147788437,-0.126521723383593,0.0802170751942767
1492617777.7,40.4791214213784,-79.9226403912725,10.8000001907349,0.037353515625,-0.890884399414062,0.366439819335938,-0.0564614119546609,-0.0251639428240497,-0.0122414862666582
1492617777.9,40.4791214213784,-79.9226403912725,10.8000001907349,0.0313568115234375,-0.927734375,0.278778076171875,0.00400992165333231,-2.31695014836894e-05,0.0181667533759755
1492617778.1,40.4791214213784,-79.9226403912725,10.8000001907349,0.078033447265625,-0.9608154296875,0.313034057617188,0.0482319778702071,-0.0566869816989906,0.024096814175255
1492617778.3,40.4790301847456,-79.9226968178439,11.3999996185303,0.126220703125,-0.94232177734375,0.19287109375,-0.086980439098642,-0.00262960526034424,-0.0264728864998237
1492617778.5,40.4790301847456,-79.9226968178439,11.3999996185303,0.0080108642578125,-0.8709716796875,0.233505249023438,0.0661486604198241,-0.0461632343354335,0.0434449458107896
1492617778.7,40.4790301847456,-79.9226968178439,11.3999996185303,0.032928466796875,-0.979034423828125,0.207611083984375,-0.0135557562646123,-0.0509657127291734,0.0287805155843773
1492617778.9,40.4790301847456,-79.9226968178439,11.3999996185303,0.013641357421875,-0.909194946289062,0.21002197265625,-0.0266667646271814,-0.0700251577025435,0.0425562489550302
1492617779.1,40.4790301847456,-79.9226968178439,11.3999996185303,0.12225341796875,-1.00833129882812,0.114944458007812,-0.0296548313702503,0.0693263442325067,-0.0516607977736841
1492617779.3,40.4789374972908,-79.9227541416964,11.5200004577637,0.0584259033203125,-1.06248474121094,0.16546630859375,0.0868419547219579,-0.00800599486899621,0.0307637716481593
1492617779.5,40.4789374972908,-79.9227541416964,11.5200004577637,0.124481201171875,-0.955551147460938,0.145431518554688,-0.0409437049149872,-0.0284385657004111,0.0966796717887106
1492617779.7,40.4789374972908,-79.9227541416964,11.5200004577637,-0.04559326171875,-0.965011596679688,0.179061889648438,-0.0287429650130072,0.0150926665296971,0.084963893521234
1492617779.9,40.4789374972908,-79.9227541416964,11.5200004577637,-0.0123291015625,-0.999618530273438,0.191299438476562,0.0203433549348973,-0.1086175576911,0.0879181381184589
1492617780.1,40.4789374972908,-79.9227541416964,11.5200004577637,0.0086669921875,-0.950393676757812,0.257537841796875,0.0534123588226292,0.0113525230947898,-0.00587972705467694
1492617780.3,40.4788438274449,-79.9228120731224,11.1099996566772,0.011138916015625,-1.01022338867188,0.232589721679688,-0.0460471205119061,-0.0348032543895915,-0.000381630984208355
1492617780.5,40.4788438274449,-79.9228120731224,11.1099996566772,-0.04022216796875,-0.77154541015625,0.237945556640625,-0.123376263820101,-0.084291711662098,0.0202786401204084
1492617780.7,40.4788438274449,-79.9228120731224,11.1099996566772,0.0568389892578125,-0.959579467773438,0.204833984375,-0.0627299605284894,-0.00916739942037976,-0.0123469474458254
1492617780.9,40.4788438274449,-79.9228120731224,11.1099996566772,-0.0076751708984375,-0.996292114257812,0.181976318359375,0.142879924063296,-0.05091830846177,0.0367793199184303
1492617781.1,40.4788438274449,-79.9228120731224,11.1099996566772,0.0720062255859375,-0.951736450195312,0.21002197265625,-0.0452953101361767,-0.0784207730390183,-0.0013275858034045
1492617781.3,40.478755353069,-79.9228667913374,10.7399997711182,-0.063934326171875,-0.94329833984375,0.214920043945312,-0.0198024669175022,0.0394848252698418,-0.00990056766847858
1492617781.5,40.478755353069,-79.9228667913374,10.7399997711182,0.018798828125,-0.980850219726562,0.24346923828125,-0.0272334853071503,-0.0115176390823747,0.0381346025971716
1492617781.7,40.478755353069,-79.9228667913374,10.7399997711182,0.120269775390625,-0.9578857421875,0.17877197265625,-0.0462250196727234,0.0364629363809289,-0.0261565029623222
1492617781.9,40.478755353069,-79.9228667913374,10.7399997711182,0.0356292724609375,-1.07817077636719,0.18756103515625,0.0605839853221036,-0.115271998306881,0.0233082521764825
1492617782.1,40.478755353069,-79.9228667913374,10.7399997711182,0.102401733398438,-0.919845581054688,0.202484130859375,-0.0103202818562751,-0.00843476380449896,0.0489619503249978
1492617782.3,40.4786642175545,-79.9229139090329,10.6800003051758,0.021575927734375,-1.04951477050781,0.179122924804688,0.0349798219698638,-0.0555314361020052,0.0591432151723707
1492617782.5,40.4786642175545,-79.9229139090329,10.6800003051758,-0.011810302734375,-0.931503295898438,0.221786499023438,-0.00753594693659722,0.122363463657544,-0.0824914147652044
1492617782.7,40.4786642175545,-79.9229139090329,10.6800003051758,0.06756591796875,-0.988388061523438,0.163619995117188,-0.0566720679968862,0.138642035820653,-0.0627784300603289
1492617782.9,40.4786642175545,-79.9229139090329,10.6800003051758,0.127151489257812,-0.975753784179688,0.219619750976562,0.0698592427666316,0.1676079074169,-0.032769930897316
1492617783.1,40.4786642175545,-79.9229139090329,10.6800003051758,-0.115249633789062,-0.9847412109375,0.259231567382812,0.0455821325855782,-0.206636266875902,0.135342911862263
1492617783.3,40.478571807072,-79.9229703192412,11.0699996948242,-0.0089111328125,-0.954177856445312,0.249557495117188,-0.0237410158536204,0.00866858934820792,0.0274561255742809
1492617783.5,40.478571807072,-79.9229703192412,11.0699996948242,-0.168487548828125,-0.963394165039062,0.252487182617188,-0.108252970937868,-0.0418401249379079,0.0277874228138868
1492617783.7,40.478571807072,-79.9229703192412,11.0699996948242,-0.02532958984375,-0.930221557617188,0.210968017578125,-0.00192360125536423,-0.0616785445301261,0.0289272557604407
1492617783.9,40.478571807072,-79.9229703192412,11.0699996948242,0.069244384765625,-0.904754638671875,0.178848266601562,-0.044264134162098,0.0875026849884065,-0.0635856341867319
1492617784.1,40.478571807072,-79.9229703192412,11.0699996948242,0.1370849609375,-0.96240234375,0.226058959960938,-0.0476338318893753,-0.037978275041184,0.035861594606789
1492617784.3,40.4784808634226,-79.923025304526,11.4399995803833,-0.035125732421875,-0.85760498046875,0.294876098632812,-0.0367417693470602,0.104473945351045,-0.059287558503453
1492617784.5,40.4784808634226,-79.923025304526,11.4399995803833,0.0557861328125,-0.987762451171875,0.221466064453125,-0.0162114605036393,0.0415844614732603,-0.0375907851025775
1492617784.7,40.4784808634226,-79.923025304526,11.4399995803833,0.0680084228515625,-1.05531311035156,0.20672607421875,0.00827417519076718,-0.038348188116596,-0.00301496467007871
1492617784.9,40.4784808634226,-79.923025304526,11.4399995803833,0.0045166015625,-0.935562133789062,0.257064819335938,-0.0712270423024963,-0.0739924687784345,0.0282494812630155
1492617785.1,40.4784808634226,-79.923025304526,11.4399995803833,0.103607177734375,-0.960464477539062,0.276840209960938,0.0268073795327376,0.0562054821739043,0.0171888406236984
1492617785.3,40.4783919094292,-79.9230870181431,11.5799999237061,0.04998779296875,-1.0140380859375,0.157318115234375,-0.0487832522158535,0.0183997799713575,-0.00481179945755517
1492617785.5,40.4783919094292,-79.9230870181431,11.5799999237061,-0.0069427490234375,-0.904541015625,0.230422973632812,-0.0523508228121236,-0.0677289802106772,0.0529495014251734
1492617785.7,40.4783919094292,-79.9230870181431,11.5799999237061,0.0124053955078125,-0.940750122070312,0.223480224609375,-0.00147299439892283,0.0191505250826508,-0.0373819932731152
1492617785.9,40.4783919094292,-79.9230870181431,11.5799999237061,0.03399658203125,-0.94921875,0.275161743164062,-0.00704246318660554,0.0989630661073445,-0.0536381948830679
1492617786.1,40.4783919094292,-79.9230870181431,11.5799999237061,0.0413818359375,-0.96002197265625,0.246612548828125,-0.00433535993853999,-0.032936644781555,0.0650796675582663
1492617786.3,40.4782996267682,-79.9231428560533,11.5,-0.0514678955078125,-0.912582397460938,0.187026977539062,-0.0349942030397502,-0.0699732260612869,0.0286100732746122
1492617786.5,40.4782996267682,-79.9231428560533,11.5,-0.022918701171875,-0.966598510742188,0.205368041992188,0.00986754447096159,0.0339744786583589,-0.00211907727937605
1492617786.7,40.4782996267682,-79.9231428560533,11.5,0.0555419921875,-0.984375,0.21527099609375,-0.0108079066518686,0.0404845759430576,-0.0439299074452931
1492617786.9,40.4782996267682,-79.9231428560533,11.5,0.145980834960938,-0.955032348632812,0.196868896484375,-0.0687401824765803,0.010015882543679,-0.0295174122580022
1492617787.1,40.4782996267682,-79.9231428560533,11.5,0.125579833984375,-0.91107177734375,0.169815063476562,-0.0515002091599523,0.071590031159074,-0.0881415773339165
1492617787.3,40.4782033362492,-79.9232011190171,11.539999961853,0.104339599609375,-0.866912841796875,0.246673583984375,-0.0800804550303557,-0.106909139851814,0.0346410678792057
1492617787.5,40.4782033362492,-79.9232011190171,11.539999961853,0.0116119384765625,-0.991287231445312,0.323074340820312,0.0486500941613495,-0.0322269123510489,0.00697854732044364
1492617787.7,40.4782033362492,-79.9232011190171,11.539999961853,0.0289764404296875,-1.03251647949219,0.2557373046875,-0.0214371151945928,0.00652394572236711,0.0136244658207364
1492617787.9,40.4782033362492,-79.9232011190171,11.539999961853,0.198226928710938,-1.03013610839844,0.172409057617188,-0.0194983339210151,-0.159403773362802,0.169739767869508
1492617788.1,40.4782033362492,-79.9232011190171,11.539999961853,0.0267181396484375,-0.937393188476562,0.236663818359375,-0.0398456835975475,-0.115678663005336,0.0468039908937066
1492617788.3,40.4781098120732,-79.9232577081365,11.4200000762939,-0.004241943359375,-1.00747680664062,0.219573974609375,0.000344879361165261,0.00105754126887047,-0.0245221210013406
1492617788.5,40.4781098120732,-79.9232577081365,11.4200000762939,0.0027618408203125,-1.00367736816406,0.279708862304688,0.0701580494409384,-0.121704597603858,0.0980578576528266
1492617788.7,40.4781098120732,-79.9232577081365,11.4200000762939,-0.015869140625,-0.9229736328125,0.231887817382812,-0.00520301782168781,-0.0339971155276245,0.050146524377865
1492617788.9,40.4781098120732,-79.9232577081365,11.4200000762939,-0.013580322265625,-0.8812255859375,0.228561401367188,-0.0666426768020339,0.0408531574379245,-0.0103836650902189
1492617789.1,40.4781098120732,-79.9232577081365,11.4200000762939,0.077972412109375,-1.00785827636719,0.136825561523438,0.029978938074913,-0.00338833985490781,-0.013545103620252
1492617789.3,40.4780150400213,-79.9233150523142,11.3599996566772,0.056732177734375,-1.01908874511719,0.234695434570312,0.0207138006425273,0.0753778451774938,-0.071418789900982
1492617789.5,40.4780150400213,-79.9233150523142,11.3599996566772,0.055450439453125,-0.950302124023438,0.224044799804688,-0.0421232189617833,-0.027390611811465,-0.049406431910932
1492617789.7,40.4780150400213,-79.9233150523142,11.3599996566772,0.0186920166015625,-1.0147705078125,0.190170288085938,-0.000146473859954358,-0.0468050561581426,-0.0148077082930586
1492617789.9,40.4780150400213,-79.9233150523142,11.3599996566772,-0.059906005859375,-0.948699951171875,0.275680541992188,-0.0556707194270164,-0.167691796991237,0.0851599021774638
1492617790.1,40.4780150400213,-79.9233150523142,11.3599996566772,0.0492095947265625,-0.893692016601562,0.206863403320312,-0.0206940932504607,0.0469352847354475,-0.0184586358314482
1492617790.3,40.4779227882085,-79.9233696757714,11.2600002288818,0.0778045654296875,-0.949981689453125,0.15362548828125,-0.0267229573261821,0.0597360348310224,-0.0377452484458021
1492617790.5,40.4779227882085,-79.9233696757714,11.2600002288818,0.03228759765625,-0.966094970703125,0.17718505859375,0.0541015849127417,-0.00354093898536936,0.0133576170795104
1492617790.7,40.4779227882085,-79.9233696757714,11.2600002288818,0.04736328125,-1.02987670898438,0.243423461914062,-0.00751437533176758,0.00749626583635504,0.00843343222395392
1492617790.9,40.4779227882085,-79.9233696757714,11.2600002288818,-0.0149383544921875,-0.973831176757812,0.220199584960938,-0.031693481184706,-0.0636130647459597,0.0243625976520449
1492617791.1,40.4779227882085,-79.9233696757714,11.2600002288818,0.0424652099609375,-0.94268798828125,0.145523071289062,-0.0260521070475911,-0.0753429577672137,0.072430258482994
1492617791.3,40.4778311563437,-79.9234237049024,11.25,-0.0346832275390625,-0.938461303710938,0.21319580078125,-0.0614987811565458,0.0110350742928523,-0.0134526919304263
1492617791.5,40.4778311563437,-79.9234237049024,11.25,0.067718505859375,-1.03395080566406,0.180694580078125,0.0101112237107038,0.0371614835348567,-0.0181180175280271
1492617791.7,40.4778311563437,-79.9234237049024,11.25,0.0537261962890625,-0.956710815429688,0.189239501953125,-0.03414598623256,-0.025308552471241,-0.00881399794372625
1492617791.9,40.4778311563437,-79.9234237049024,11.25,0.036590576171875,-0.925125122070312,0.165420532226562,-0.0892403975996832,-0.000485760582830453,-0.0158394168993553
1492617792.1,40.4778311563437,-79.9234237049024,11.25,0.0070648193359375,-0.9830322265625,0.1656494140625,0.035357191896328,0.0135970352615086,-0.00820280247355306
1492617792.3,40.477742052647,-79.9234762433432,11.1700000762939,0.0904541015625,-0.933670043945312,0.18292236328125,-0.024737304417419,0.0171723290249399,-0.0504096446935649
1492617792.5,40.477742052647,-79.9234762433432,11.1700000762939,0.127593994140625,-0.977615356445312,0.181304931640625,-0.021611552245993,-0.026451048578885,0.00837670689273524
1492617792.7,40.477742052647,-79.9234762433432,11.1700000762939,0.03082275390625,-0.982177734375,0.172515869140625,0.00126846362720474,-0.00213825203922462,-0.0159747054827313
1492617792.9,40.477742052647,-79.9234762433432,11.1700000762939,0.077484130859375,-1.00827026367188,0.195541381835938,0.0088795117065422,-0.0351553242857,0.0321680564909581
1492617793.1,40.477742052647,-79.9234762433432,11.1700000762939,0.140533447265625,-0.99005126953125,0.215164184570312,0.048698563693189,0.119884859631007,0.00871892309281042
1492617793.3,40.477648440761,-79.9235314399592,11.2399997711182,0.019989013671875,-0.9407958984375,0.2054443359375,-0.0217819945557581,-0.041341314865736,0.0126782446854312
1492617793.5,40.477648440761,-79.9235314399592,11.2399997711182,0.0308074951171875,-0.961669921875,0.159439086914062,-0.00806245388410589,0.0372805268355832,-0.012973322934212
1492617793.7,40.477648440761,-79.9235314399592,11.2399997711182,0.09954833984375,-1.07186889648438,0.154037475585938,-0.0263288094848504,0.104408964220448,-0.0421213547490203
1492617793.9,40.477648440761,-79.9235314399592,11.2399997711182,0.115081787109375,-0.969192504882812,0.23809814453125,-0.0587120493918869,-0.0081269023824858,0.00581714276906008
1492617794.1,40.477648440761,-79.9235314399592,11.2399997711182,0.097381591796875,-0.94427490234375,0.229476928710938,0.0395615243092361,0.0082512720053925,-0.00707974744186665
1492617794.3,40.477556194078,-79.9235858316071,11.3400001525879,0.0481414794921875,-0.95294189453125,0.243118286132812,-0.0150492570039288,-0.069035793357579,0.0501361380496137
1492617794.5,40.477556194078,-79.9235858316071,11.3400001525879,-0.061370849609375,-0.9647216796875,0.272247314453125,0.0201201820355486,-0.0394781673671166,0.0642807192312426
1492617794.7,40.477556194078,-79.9235858316071,11.3400001525879,0.0999298095703125,-1.02815246582031,0.1893310546875,0.0301027750656017,0.0540552459097743,0.00869841675241681
1492617794.9,40.477556194078,-79.9235858316071,11.3400001525879,0.118743896484375,-0.975143432617188,0.232894897460938,0.0328559510005256,0.10720821284223,-0.0852374001651851
1492617795.1,40.477556194078,-79.9235858316071,11.3400001525879,-0.0926513671875,-1.03724670410156,0.262527465820312,0.0671795700777938,-0.128070617873584,0.0788519388195021
1492617795.3,40.4774647870681,-79.9236397281563,11.25,0.058135986328125,-0.950912475585938,0.193603515625,-0.0545556538786002,0.0152511246145568,0.0260574333697713
1492617795.5,40.4774647870681,-79.9236397281563,11.25,0.073699951171875,-1.06495666503906,0.190994262695312,0.0440468202171475,0.0305595071925502,-0.0113562515203159
1492617795.7,40.4774647870681,-79.9236397281563,11.25,0.113739013671875,-0.970352172851562,0.266983032226562,0.067286629153615,-0.0227676304751964,0.0508597189177883
1492617795.9,40.4774647870681,-79.9236397281563,11.25,-0.0102996826171875,-0.987014770507812,0.214935302734375,0.00677641339370662,0.086107721209423,-0.0587946073856793
1492617796.1,40.4774647870681,-79.9236397281563,11.25,-0.09136962890625,-0.941574096679688,0.220779418945312,-0.041744517454774,0.12577896775557,-0.0711221137555471
1492617796.3,40.4773667546819,-79.9236975312432,11.3400001525879,0.105682373046875,-0.89703369140625,0.200637817382812,-0.11297155975727,0.121998077955985,-0.00467011928756295
1492617796.5,40.4773667546819,-79.9236975312432,11.3400001525879,0.06439208984375,-0.903656005859375,0.213912963867188,-0.00371431077233351,0.0510807612882648,-0.011898204802147
1492617796.7,40.4773667546819,-79.9236975312432,11.3400001525879,0.0120086669921875,-0.9764404296875,0.223358154296875,-0.036702887195145,-0.02954217965614,0.0199585281573808
1492617796.9,40.4773667546819,-79.9236975312432,11.3400001525879,-0.150909423828125,-0.968170166015625,0.280242919921875,0.053943126827882,-0.0460905300376744,0.0017374462951677
1492617797.1,40.4773667546819,-79.9236975312432,11.3400001525879,-0.0230560302734375,-0.931900024414062,0.215179443359375,-0.083722327821039,0.0409647438875988,-0.00736017830465199
1492617797.3,40.477274464197,-79.9237519487181,11.4399995803833,0.109298706054688,-1.02885437011719,0.153228759765625,0.0446913052009467,0.100759368262603,-0.0200605272271309
1492617797.5,40.477274464197,-79.9237519487181,11.4399995803833,0.06463623046875,-0.948501586914062,0.224960327148438,-0.0834328422105474,0.0866909534881504,-0.0810439867127463
1492617797.7,40.477274464197,-79.9237519487181,11.4399995803833,0.20806884765625,-0.949844360351562,0.15045166015625,0.0036935381158309,0.0255016316502718,-0.022418490056287
1492617797.9,40.477274464197,-79.9237519487181,11.4399995803833,-0.0005950927734375,-1.02159118652344,0.209014892578125,0.0328002909337429,-0.0491462410724313,-0.0112657040432532
1492617798.1,40.477274464197,-79.9237519487181,11.4399995803833,0.039154052734375,-0.89923095703125,0.201950073242188,-0.0112212292530489,-0.0626852194221761,0.00751038059013246
1492617798.3,40.4772486975624,-79.9237671415648,11.5900001525879,0.008453369140625,-0.93267822265625,0.194290161132812,-0.0531295311148628,0.0237356895314402,-0.0731077666643102
1492617798.5,40.4772486975624,-79.9237671415648,11.5900001525879,0.12347412109375,-0.974411010742188,0.170639038085938,-0.0692003767129459,0.0515004754760613,-0.050953462188159
1492617798.7,40.4772486975624,-79.9237671415648,11.5900001525879,0.147201538085938,-0.92669677734375,0.202133178710938,-0.0638873703382379,0.0578489188825922,-0.046650592814918
1492617798.9,40.4772486975624,-79.9237671415648,11.5900001525879,0.115386962890625,-0.951736450195312,0.198989868164062,-0.0533878577406005,0.00884702114124323,-0.0624098485654619
1492617799.1,40.4772486975624,-79.9237671415648,11.5900001525879,0.106552124023438,-1.03024291992188,0.179306030273438,0.0138899829814173,0.0584063184987458,-0.0490543620148235
1492617799.3,40.4770797875974,-79.9238437929638,11.6599998474121,0.13720703125,-0.946762084960938,0.141632080078125,-0.0393013334707353,0.0725812597168015,-0.0453706775950259
1492617799.5,40.4770797875974,-79.9238437929638,11.6599998474121,0.13018798828125,-0.974578857421875,0.174163818359375,-0.0718310472377262,0.0185577054239992,0.0450638814374488
1492617799.7,40.4770797875974,-79.9238437929638,11.6599998474121,0.113937377929688,-0.959930419921875,0.217864990234375,-0.0483118727029094,0.034348386475406,-0.0304372680985156
1492617799.9,40.4770797875974,-79.9238437929638,11.6599998474121,0.0571441650390625,-0.995529174804688,0.180099487304688,-0.00295238038446184,-0.00422643664995575,0.0575562374787925
1492617800.1,40.4770797875974,-79.9238437929638,11.6599998474121,0.096405029296875,-0.958389282226562,0.18328857421875,0.00595163240410908,-0.00748028686981456,0.0278018038837732
1492617800.3,40.4769814958175,-79.9238882849198,11.7799997329712,0.0089569091796875,-0.968597412109375,0.211624145507812,-0.0829430868860818,-0.0451933110664267,0.0440484181138016
1492617800.5,40.4769814958175,-79.9238882849198,11.7799997329712,0.0856781005859375,-0.99981689453125,0.193817138671875,0.0386467284747939,-0.0257740730297869,0.0409783260091582
1492617800.7,40.4769814958175,-79.9238882849198,11.7799997329712,0.0024261474609375,-1.03208923339844,0.123367309570312,-0.0475821665642277,0.0417818017100351,-0.0794948259066472
1492617800.9,40.4769814958175,-79.9238882849198,11.7799997329712,0.040069580078125,-0.993026733398438,0.165496826171875,-0.0394163820298268,0.00132039526846129,0.00172546207026234
1492617801.1,40.4769814958175,-79.9238882849198,11.7799997329712,0.08441162109375,-0.927810668945312,0.12786865234375,-0.00270816851250158,0.0393729725040585,-0.0139901178384043
1492617801.3,40.4768803739309,-79.9239340579288,11.7700004577637,0.0562286376953125,-0.958038330078125,0.133041381835938,-0.0224738838069607,-0.00729919191568918,0.00405359749520961
1492617801.5,40.4768803739309,-79.9239340579288,11.7700004577637,0.0934295654296875,-0.925537109375,0.187652587890625,-0.0378315348651206,-0.0263426579225188,0.0263360000197936
1492617801.7,40.4768803739309,-79.9239340579288,11.7700004577637,0.0793304443359375,-1.00460815429688,0.155288696289062,-0.0248851098579184,0.0384512524507821,-0.0280755768438333
1492617801.9,40.4768803739309,-79.9239340579288,11.7700004577637,0.0809783935546875,-0.978805541992188,0.14947509765625,-0.0296353902942928,0.0140202115587221,-0.00567066890910572
1492617802.1,40.4768803739309,-79.9239340579288,11.7700004577637,0.0118560791015625,-0.937026977539062,0.167694091796875,-0.0509420105954717,0.0184141610412439,-0.00270151060977638
1492617802.3,40.4767801054736,-79.9239794446315,11.7200002670288,0.0960693359375,-0.954254150390625,0.160140991210938,-0.0213612151035256,0.0107778129315507,0.0104156230232999
1492617802.5,40.4767801054736,-79.9239794446315,11.7200002670288,0.177398681640625,-1.06787109375,0.134841918945312,0.0174583525260144,0.141356063287553,-0.0311062541643435
1492617802.7,40.4767801054736,-79.9239794446315,11.7200002670288,0.305999755859375,-0.935775756835938,0.18206787109375,-0.0555961509164942,0.184366381208442,-0.116196115205138
1492617802.9,40.4767801054736,-79.9239794446315,11.7200002670288,0.046966552734375,-0.977371215820312,0.272674560546875,0.0236699094525153,-0.0448244632554507,0.0355430805404155
1492617803.1,40.4767801054736,-79.9239794446315,11.7200002670288,-0.08551025390625,-1.0435791015625,0.140594482421875,-0.0354506688505898,0.0916971637052813,-0.0826980760657945
1492617803.3,40.476680655809,-79.9240244607061,11.6199998855591,0.07232666015625,-0.971389770507812,0.143112182617188,-0.00796258534322791,0.0330234638330916,-0.0225572407490802
1492617803.5,40.476680655809,-79.9240244607061,11.6199998855591,0.107940673828125,-0.93560791015625,0.185409545898438,-0.0629691123943786,0.0461427279950399,-0.0423461255450229
1492617803.7,40.476680655809,-79.9240244607061,11.6199998855591,0.188873291015625,-0.944610595703125,0.1396484375,0.0185228180137191,-0.106481702496856,0.0665697061881657
1492617803.9,40.476680655809,-79.9240244607061,11.6199998855591,0.0115966796875,-0.999771118164062,0.20477294921875,0.0431701075862935,-0.0640913684777379,0.0784410130633029
1492617804.1,40.476680655809,-79.9240244607061,11.6199998855591,0.04736328125,-0.902633666992188,0.188064575195312,-0.0220163527316851,-0.0413370538079919,0.0297352588351707
1492617804.3,40.4765770125405,-79.9240713750233,11.460000038147,0.0897064208984375,-1.01219177246094,0.174835205078125,-0.00465387400491347,0.0404472916877964,-0.0268073795327376
1492617804.5,40.4765770125405,-79.9240713750233,11.460000038147,0.0160064697265625,-0.955551147460938,0.27069091796875,-0.00691702829926281,-0.013778396531743,0.0308849454777579
1492617804.7,40.4765770125405,-79.9240713750233,11.460000038147,0.016876220703125,-0.9599609375,0.22271728515625,-0.0221614950110944,-0.0860145105712702,0.0159882876042907
1492617804.9,40.4765770125405,-79.9240713750233,11.460000038147,0.0702972412109375,-1.06166076660156,0.177780151367188,-0.00157499346867286,0.0595647935729303,-0.0854669646511499
1492617805.1,40.4765770125405,-79.9240713750233,11.460000038147,0.00982666015625,-1.02951049804688,0.18011474609375,-0.0290593485505086,-0.0295941112973965,0.00617613688400276
1492617805.3,40.4764795299495,-79.9241155006984,11.4499998092651,0.2642822265625,-0.971832275390625,0.08416748046875,-0.100159624385117,0.17083725655473,-0.05797568535048
1492617805.5,40.4764795299495,-79.9241155006984,11.4499998092651,-0.038970947265625,-0.970855712890625,0.120742797851562,-0.0607387149814372,-0.121917916807173,0.0913871717543961
1492617805.7,40.4764795299495,-79.9241155006984,11.4499998092651,0.0581512451171875,-0.88018798828125,0.164276123046875,-0.0270390745475745,-0.00513830300719888,0.027457989787044
1492617805.9,40.4764795299495,-79.9241155006984,11.4499998092651,-0.00396728515625,-0.960311889648438,0.142288208007812,-0.0609573605069327,-0.00598332402108102,0.0153845489851697
1492617806.1,40.4764795299495,-79.9241155006984,11.4499998092651,-0.0749969482421875,-0.93701171875,0.192230224609375,0.0404345085145641,0.0178221403309193,0.0120963439872489
1492617806.3,40.4763839462024,-79.9241587668583,11.25,0.12371826171875,-0.907943725585938,0.211517333984375,-0.116866166535402,0.0443733237667913,0.00402004166547461
1492617806.5,40.4763839462024,-79.9241587668583,11.25,-0.0589599609375,-0.887222290039062,0.176681518554688,0.0416166857224502,-0.177903421875037,0.0520634677305041
1492617806.7,40.4763839462024,-79.9241587668583,11.25,-0.056060791015625,-0.962936401367188,0.187454223632812,0.0382738859221828,-0.106616991080232,0.0241237121022648
1492617806.9,40.4763839462024,-79.9241587668583,11.25,-0.0596771240234375,-1.02406311035156,0.203414916992188,-0.0543074472650048,0.0418294722935476,-0.0550408818292127
1492617807.1,40.4763839462024,-79.9241587668583,11.25,0.0244293212890625,-0.994308471679688,0.20245361328125,0.00433056624857785,0.135050230458463,-0.0866675176705577
1492617807.3,40.4762938948914,-79.924198891748,11.210000038147,0.120880126953125,-0.898849487304688,0.180023193359375,-0.070346334930007,0.0387431349062547,-0.0519984865999061
1492617807.5,40.4762938948914,-79.924198891748,11.210000038147,-0.0576934814453125,-0.931777954101562,0.242050170898438,-0.0669113897560228,-0.128263164420396,0.0721484960396637
1492617807.7,40.4762938948914,-79.924198891748,11.210000038147,0.0173492431640625,-0.95611572265625,0.191452026367188,0.0155928081824139,-0.042649459593183,0.00453456438807792
1492617807.9,40.4762938948914,-79.924198891748,11.210000038147,0.0875091552734375,-1.00343322753906,0.186676025390625,-0.0558110680164636,0.105660649932785,-0.0658831432591433
1492617808.1,40.4762938948914,-79.924198891748,11.210000038147,0.0922698974609375,-0.9620361328125,0.153656005859375,-0.0235247671731059,0.089501920018729,-0.0217961093095355
1492617808.3,40.4761929445112,-79.9242434296478,11.2700004577637,0.0159454345703125,-0.896774291992188,0.247039794921875,-0.0408140089699004,-0.0273895465470289,0.0103149555340949
1492617808.5,40.4761929445112,-79.9242434296478,11.2700004577637,0.064971923828125,-0.965362548828125,0.200393676757812,-0.00950402298216578,0.00857138396842003,-0.00118563931730328
1492617808.7,40.4761929445112,-79.9242434296478,11.2700004577637,0.06890869140625,-0.940597534179688,0.179885864257812,-0.0264318738190364,0.00548877500665331,-0.0109469236607707
1492617808.9,40.4761929445112,-79.9242434296478,11.2700004577637,0.1141357421875,-0.906143188476562,0.165451049804688,-0.00582300172345825,-0.0488916428722197,0.00966248106702549
1492617809.1,40.4761929445112,-79.9242434296478,11.2700004577637,0.0837860107421875,-0.983169555664062,0.169189453125,-0.0497196196551253,0.0641358432679423,-0.0667798295981729
1492617809.3,40.4760954538286,-79.9242864411773,11.3400001525879,0.0397491455078125,-0.937545776367188,0.207000732421875,-0.0526387105259612,0.0194839528511287,-0.033641849838208
1492617809.5,40.4760954538286,-79.9242864411773,11.3400001525879,0.07110595703125,-1.00469970703125,0.167724609375,0.0833468221073378,-0.0324474220893074,0.0393207745466929
1492617809.7,40.4760954538286,-79.9242864411773,11.3400001525879,0.0086517333984375,-0.984817504882812,0.237777709960938,0.0597341706182593,0.0570560958260756,0.0239210455433097
1492617809.9,40.4760954538286,-79.9242864411773,11.3400001525879,0.135787963867188,-0.98895263671875,0.1461181640625,-0.102290419573289,0.110213856448493,-0.0908936880044044
1492617810.1,40.4760954538286,-79.9242864411773,11.3400001525879,0.145156860351562,-1.01199340820312,0.205642700195312,0.036130307560778,0.0391268964193352,0.0269242923045921
1492617810.3,40.4759959673846,-79.9243303332088,11.5299997329712,-0.01934814453125,-0.93109130859375,0.28155517578125,0.0700214292770174,-0.0546944045713933,0.0669633213972794
1492617810.5,40.4759959673846,-79.9243303332088,11.5299997329712,0.033905029296875,-1.00161743164062,0.295791625976562,-0.00916500257539869,-0.0392938766196831,0.0255967065011876
1492617810.7,40.4759959673846,-79.9243303332088,11.5299997329712,0.079620361328125,-0.998764038085938,0.156570434570312,-0.00259232100508313,0.0138393829207058,-0.0363135330437755
1492617810.9,40.4759959673846,-79.9243303332088,11.5299997329712,0.12603759765625,-1.00267028808594,0.161178588867188,-0.00943211763273364,-0.0286633364964138,-0.0266779499037598
1492617811.1,40.4759959673846,-79.9243303332088,11.5299997329712,0.111053466796875,-0.982376098632812,0.110671997070312,0.0131030188792989,0.0413996380936088,-0.00103889914123991
1492617811.3,40.4758999927325,-79.9243726758868,11.4499998092651,0.0343017578125,-1.02767944335938,0.138565063476562,0.0106047074606955,-0.00964277367495891,-0.00199896871421348
1492617811.5,40.4758999927325,-79.9243726758868,11.4499998092651,0.0816650390625,-1.01087951660156,0.104019165039062,0.0504439994716269,-0.0301070361233458,0.0325805801438114
1492617811.7,40.4758999927325,-79.9243726758868,11.4499998092651,0.1103515625,-0.98675537109375,0.14642333984375,-0.0249237256937246,0.0118566594891418,-0.0397356950445273
1492617811.9,40.4758999927325,-79.9243726758868,11.4499998092651,-0.0042266845703125,-0.904098510742188,0.155410766601562,-0.0631379568074896,-0.0336152182273072,0.0815388020432831
1492617812.1,40.4758999927325,-79.9243726758868,11.4499998092651,-0.0973358154296875,-1.00999450683594,0.030120849609375,0.124168554244399,-0.181613471589627,0.164870710448516
1492617812.3,40.4758028183301,-79.9244155478778,11.0600004196167,-0.132080078125,-1.0047607421875,0.127487182617188,-0.00467651087417914,0.319104222871038,-0.261027603715244
1492617812.5,40.4758028183301,-79.9244155478778,11.0600004196167,0.052886962890625,-0.976715087890625,-0.0002899169921875,-0.0797997578514613,0.0579517169006693,-0.0510786307593928
1492617812.7,40.4758028183301,-79.9244155478778,11.0600004196167,0.189834594726562,-0.989715576171875,-0.057769775390625,-0.0722664740759542,-0.0803688753764113,0.0229242243472931
1492617812.9,40.4758028183301,-79.9244155478778,11.0600004196167,0.112030029296875,-1.03265380859375,0.0307464599609375,0.0169233234630175,-0.0437125935003426,0.0621264882254775
1492617813.1,40.4758028183301,-79.9244155478778,11.0600004196167,0.085662841796875,-0.959060668945312,-0.027923583984375,-0.0424081771984218,0.0204861003693255,-0.00261948524820194
1492617813.3,40.4757185837453,-79.9244527110019,9.63000011444092,0.239410400390625,-1.01724243164062,-0.07501220703125,-0.100983340110279,0.134670197370909,-0.0952082752864418
1492617813.5,40.4757185837453,-79.9244527110019,9.63000011444092,-0.0207061767578125,-1.12384033203125,0.0011749267578125,-0.0744361514160417,0.0866392881630028,-0.0383031806941736
1492617813.7,40.4757185837453,-79.9244527110019,9.63000011444092,0.142578125,-0.957046508789062,0.0048980712890625,-0.0383111701774439,0.0704480676836481,-0.0410901787749416
1492617813.9,40.4757185837453,-79.9244527110019,9.63000011444092,0.205032348632812,-0.8992919921875,-0.033721923828125,-0.0183912578558692,-0.1413515359137,0.0215007647446457
1492617814.1,40.4757185837453,-79.9244527110019,9.63000011444092,0.260101318359375,-1.06956481933594,-0.243728637695312,0.0964572978376889,-0.0655023112232619,0.0747253707104243
1492617814.3,40.4756494227253,-79.9244832238793,7.69999980926514,0.109268188476562,-0.900833129882812,-0.11151123046875,0.0706680447896886,-0.114267187627594,0.0649912506100757
1492617814.5,40.4756494227253,-79.9244832238793,7.69999980926514,0.0736541748046875,-0.943893432617188,-0.0391845703125,-0.00547359498843986,0.0340668903481846,-0.0481235872138408
1492617814.7,40.4756494227253,-79.9244832238793,7.69999980926514,0.0601654052734375,-1.0626220703125,-0.126602172851562,-0.108702778845982,0.153872121462598,-0.0654828701473043
1492617814.9,40.4756494227253,-79.9244832238793,7.69999980926514,0.08917236328125,-1.1058349609375,-0.151077270507812,-0.00411192072308234,0.0638412976513795,-0.0535175536856873
1492617815.1,40.4756494227253,-79.9244832238793,7.69999980926514,0.041900634765625,-0.99560546875,-0.122268676757812,0.00240589972877758,-0.0659627717757366,0.0215191405561673
1492617815.3,40.4755991458064,-79.9245054053547,5.34000015258789,0.07989501953125,-1.01295471191406,-0.0958099365234375,-0.0095484977723701,-0.0552440810203857,0.0448257948359957
1492617815.5,40.4755991458064,-79.9245054053547,5.34000015258789,0.0298919677734375,-0.997833251953125,-0.061126708984375,-0.0182056355278907,-0.0275394825164004,-0.0075788238301475
1492617815.7,40.4755991458064,-79.9245054053547,5.34000015258789,0.073333740234375,-1.03721618652344,0.0173492431640625,-0.0206421616092042,0.0245942926668818,-0.0343936602139373
1492617815.9,40.4755991458064,-79.9245054053547,5.34000015258789,0.06060791015625,-0.948440551757812,0.222885131835938,-0.00876020208970665,-0.012705941560768,0.0106052400929135
1492617816.1,40.4755991458064,-79.9245054053547,5.34000015258789,0.036407470703125,-0.951889038085938,0.184066772460938,-0.028835643018942,-0.0115133780246306,-0.0002655171606809
1492617816.3,40.4755666659077,-79.924519735033,2.91000008583069,0.124420166015625,-0.981338500976562,0.2392578125,-0.0340008439531506,0.00766697446222912,-0.00143411224700767
1492617816.5,40.4755666659077,-79.924519735033,2.91000008583069,0.058990478515625,-0.94732666015625,0.315185546875,-0.020199277919924,0.0022586269204962,-0.00127884995545605
1492617816.7,40.4755666659077,-79.924519735033,2.91000008583069,0.05810546875,-0.954620361328125,0.33856201171875,-0.0140758716255048,-0.0116076539272194,0.0105479821294768
1492617816.9,40.4755666659077,-79.924519735033,2.91000008583069,0.046417236328125,-0.930511474609375,0.320266723632812,-0.0215396468965609,-0.00517611989467801,0.014719823977086
1492617817.1,40.4755666659077,-79.924519735033,2.91000008583069,0.072265625,-0.890304565429688,0.3331298828125,0.0168159980710873,-0.0118087225895203,0.00979856859872854
1492617817.3,40.4755385113386,-79.9245321564363,3.33999991416931,0.03173828125,-0.917022705078125,0.3828125,-0.0470937428203072,-0.0922300622394062,0.0445368418577221
1492617817.5,40.4755385113386,-79.9245321564363,3.33999991416931,0.089080810546875,-0.918487548828125,0.378555297851562,-0.00897325497691298,-0.0254678095044278,0.0191657051008642
1492617817.7,40.4755385113386,-79.9245321564363,3.33999991416931,0.026580810546875,-0.897796630859375,0.455490112304688,-0.0702736306322479,0.0217332587078096,0.0109527826151689
1492617817.9,40.4755385113386,-79.9245321564363,3.33999991416931,0.0691070556640625,-0.95648193359375,0.3670654296875,-0.000263652947917845,0.0117067235197703,0.0255562264526184
1492617818.1,40.4755385113386,-79.9245321564363,3.33999991416931,0.0394439697265625,-0.949798583984375,0.339874267578125,-0.0614654916429198,0.0174173398452272,-0.012402607512608
1492617818.3,40.475496260825,-79.9245507967736,5.28000020980835,-0.01190185546875,-0.92559814453125,0.370956420898438,-0.011327223064434,0.0298559000325513,-0.0119213743036307
1492617818.5,40.475496260825,-79.9245507967736,5.28000020980835,0.0517425537109375,-0.911285400390625,0.370010375976562,-0.0144042393879116,0.0181726123303737,-0.0268497237940699
1492617818.7,40.475496260825,-79.9245507967736,5.28000020980835,0.051300048828125,-0.900970458984375,0.410079956054688,-0.0381724194846508,-0.0327193308366045,0.0476732466735084
1492617818.9,40.475496260825,-79.9245507967736,5.28000020980835,0.047698974609375,-0.977279663085938,0.343124389648438,-0.0406909709275387,0.0215311247810726,-0.0495180183606063
1492617819.1,40.475496260825,-79.9245507967736,5.28000020980835,0.118179321289062,-0.889144897460938,0.363571166992188,0.0078174430638186,-0.0425951311069453,0.0279115261206845
1492617819.3,40.4754496375787,-79.9245713662996,7.15000009536743,0.0525665283203125,-0.956146240234375,0.360107421875,0.0187955257093432,0.0456135578864412,-0.0255144148235041
1492617819.5,40.4754496375787,-79.9245713662996,7.15000009536743,0.127212524414062,-0.961700439453125,0.371902465820312,-0.057305634020216,-0.0634458182295027,0.028364796138216
1492617819.7,40.4754496375787,-79.9245713662996,7.15000009536743,-0.000335693359375,-0.8543701171875,0.362152099609375,-0.00235583230028409,-0.0223220836248262,0.00429834199938789
1492617819.9,40.4754496375787,-79.9245713662996,7.15000009536743,0.0801849365234375,-0.9676513671875,0.42291259765625,-0.0457381938254569,0.0375303313458327,0.0164942882114058
1492617820.1,40.4754496375787,-79.9245713662996,7.15000009536743,0.0382843017578125,-0.90887451171875,0.294189453125,-0.00756577434080611,0.058547732352629,-0.0375460439962641
1492617820.3,40.4754511715028,-79.9245706895537,8.8100004196167,-0.07232666015625,-1.00419616699219,0.425079345703125,0.0089500854754293,-0.0511137844857818,0.018349179910646
1492617820.5,40.4754511715028,-79.9245706895537,8.8100004196167,-0.0550537109375,-0.993698120117188,0.4088134765625,-0.0194629138785171,0.0203300391294469,-0.0450327224526949
1492617820.7,40.4754511715028,-79.9245706895537,8.8100004196167,0.1636962890625,-0.99945068359375,0.28753662109375,-0.0737748885173751,0.0504700984503097,-0.0286071437974132
1492617820.9,40.4754511715028,-79.9245706895537,8.8100004196167,0.160110473632812,-0.914825439453125,0.298355102539062,-0.0684267284162779,0.129144670741212,-0.0650066969443982
1492617821.1,40.4754511715028,-79.9245706895537,8.8100004196167,0.05670166015625,-0.9595947265625,0.333038330078125,-0.0131629400038256,-0.00842038273461253,0.0233436722189806
1492617821.3,40.4752836735503,-79.9246448167118,10.3199996948242,0.0091094970703125,-0.950393676757812,0.307861328125,-0.0560086745693475,0.0663156406201721,0.00458649602933446
1492617821.5,40.4752836735503,-79.9246448167118,10.3199996948242,0.0178070068359375,-0.998641967773438,0.277069091796875,-0.00717482229278248,0.0117453393555765,-0.0139645514919395
1492617821.7,40.4752836735503,-79.9246448167118,10.3199996948242,0.0160369873046875,-0.813812255859375,0.26593017578125,-0.0218080935344409,0.0501345401529597,-0.0131472273533942
1492617821.9,40.4752836735503,-79.9246448167118,10.3199996948242,0.0242767333984375,-1.02510070800781,0.26171875,-0.0182708829745976,-0.0147725545666695,0.00411591546471746
1492617822.1,40.4751894016574,-79.9246865385132,11.3000001907349,0.0641937255859375,-0.906097412109375,0.251876831054688,-0.0146593702203412,0.0479515470074217,-0.0695777466394102
1492617822.3,40.4751894016574,-79.9246865385132,11.3000001907349,0.0701141357421875,-0.940963745117188,0.286209106445312,-0.0174378461856208,-0.0456258084274555,0.00420406609679909
1492617822.5,40.4751894016574,-79.9246865385132,11.3000001907349,0.003570556640625,-0.996536254882812,0.1871337890625,-0.0504751584563808,-0.0475382244062414,0.00493696802878889
1492617822.7,40.4751894016574,-79.9246865385132,11.3000001907349,0.0172882080078125,-0.935546875,0.17242431640625,-0.0593786386127337,0.00782995992094197,-0.0144889279105761
1492617822.9,40.4751894016574,-79.9246865385132,11.3000001907349,0.0015716552734375,-0.983001708984375,0.147872924804688,0.00869175884969161,-0.0425985932163625,0.0417812690778171
1492617823.1,40.4751894016574,-79.9246865385132,11.3000001907349,-0.0074615478515625,-0.983108520507812,0.096893310546875,0.0122894231662797,-0.0181590302088143,0.0257618224887725
1492617823.3,40.4750902966988,-79.9247303992789,11.6800003051758,0.2486572265625,-1.10086059570312,0.150039672851562,-0.000858603135441546,0.104231864007957,-0.11329646541026
1492617823.5,40.4750902966988,-79.9247303992789,11.6800003051758,0.09979248046875,-0.988021850585938,0.233200073242188,0.0515438850018296,-0.00459555077704073,-0.0335792655525911
1492617823.7,40.4750902966988,-79.9247303992789,11.6800003051758,0.062347412109375,-0.936172485351562,0.212615966796875,0.0288910367696156,-0.0448572201368587,0.0430601190332732
1492617823.9,40.4750902966988,-79.9247303992789,11.6800003051758,0.0562896728515625,-0.960311889648438,0.121337890625,-0.0450210045438985,0.00880680740878303,0.0261716829805357
1492617824.1,40.4750902966988,-79.9247303992789,11.6800003051758,0.108047485351562,-0.9901123046875,0.140609741210938,-0.0195561245166699,0.0586289587658764,-0.017410948258611
1492617824.3,40.4749887055969,-79.9247753603342,11.6899995803833,-0.111495971679688,-0.906570434570312,0.133331298828125,-0.0320029405033732,-0.152955195099284,0.0757682645932994
1492617824.5,40.4749887055969,-79.9247753603342,11.6899995803833,0.196884155273438,-0.919769287109375,0.1116943359375,-0.0568899145740547,0.181186034234669,-0.101274157301315
1492617824.7,40.4749887055969,-79.9247753603342,11.6899995803833,0.078765869140625,-1.008056640625,0.14862060546875,0.0026687537283684,0.019124958736186,-0.0288098103563682
1492617824.9,40.4749887055969,-79.9247753603342,11.6899995803833,0.035858154296875,-0.968017578125,0.160079956054688,-0.0330532912373004,0.0310660404318833,0.0198394848566543
1492617825.1,40.4749887055969,-79.9247753603342,11.6899995803833,-0.04071044921875,-1.0772705078125,0.172760009765625,0.000294279300453756,0.00212227307268414,-0.0202605306249958
1492617825.3,40.4748884058594,-79.9248197498717,11.5299997329712,0.025421142578125,-1.00570678710938,0.194381713867188,0.0418134933270071,0.0167456906183092,-0.0113434683470835
1492617825.5,40.4748884058594,-79.9248197498717,11.5299997329712,-0.0011749267578125,-0.939605712890625,0.203292846679688,-0.0560720578032913,0.0865167827528592,-0.0573066992846521
1492617825.7,40.4748884058594,-79.9248197498717,11.5299997329712,0.08184814453125,-0.976318359375,0.1279296875,-0.0428084503102607,0.0523952976023279,-0.0336261371877765
1492617825.9,40.4748884058594,-79.9248197498717,11.5299997329712,0.1343994140625,-0.895828247070312,0.160186767578125,-0.0497941881656475,0.0971153649430475,-0.0434089931360736
1492617826.1,40.4748884058594,-79.9248197498717,11.5299997329712,0.074981689453125,-0.936386108398438,0.13690185546875,-0.0750281721263664,0.139828207770174,-0.0437775746309405
1492617826.3,40.4747914069487,-79.9248626785662,11.3199996948242,0.082244873046875,-0.936187744140625,0.15924072265625,-0.0659939307604906,-0.0431749012762556,0.0516802388496417
1492617826.5,40.4747914069487,-79.9248626785662,11.3199996948242,-0.051544189453125,-1.033935546875,0.168746948242188,0.0467344823892555,-0.069437930682181,0.0486373109881171
1492617826.7,40.4747914069487,-79.9248626785662,11.3199996948242,-0.02850341796875,-0.956497192382812,0.18609619140625,0.0326538170737886,-0.0257397182517248,0.0121291008686569
1492617826.9,40.4747914069487,-79.9248626785662,11.3199996948242,0.05120849609375,-0.9560546875,0.222549438476562,-0.101888015932579,0.00704166423827851,-0.0213194034744113
1492617827.1,40.4747914069487,-79.9248626785662,11.3199996948242,0.0199737548828125,-0.921798706054688,0.19757080078125,-0.0170503562470143,0.0118129836472645,0.00725844555101096
1492617827.3,40.4746948064772,-79.924905430924,11.3199996948242,0.111282348632812,-0.959487915039062,0.155990600585938,-0.0444351091040811,0.0204980845942309,-0.0101037668596516
1492617827.5,40.4746948064772,-79.924905430924,11.3199996948242,0.0367279052734375,-1.00218200683594,0.10400390625,-0.00714472857246458,-0.0616457876487182,0.021410217267583
1492617827.7,40.4746948064772,-79.924905430924,11.3199996948242,0.0357208251953125,-0.961471557617188,0.197341918945312,-0.0213526929880373,0.0288500240888284,-0.0578686262746588
1492617827.9,40.4746948064772,-79.924905430924,11.3199996948242,-0.0547637939453125,-0.972427368164062,0.255111694335938,-0.0635954878827652,-0.0463850756542371,0.0303887985666762
1492617828.1,40.4746948064772,-79.924905430924,11.3199996948242,-0.0502777099609375,-0.960479736328125,0.16326904296875,-0.0487864480091616,-0.0496716827555039,0.0358799704183106
1492617828.3,40.4745974209002,-79.924948530745,11.3400001525879,0.08294677734375,-0.990386962890625,0.17645263671875,-0.048700161589843,0.0854059782621871,-0.0518972864784831
1492617828.5,40.4745974209002,-79.924948530745,11.3400001525879,0.0772705078125,-0.952194213867188,0.214279174804688,-0.0127541447764985,0.00114649084927911,-0.0011997540710807
1492617828.7,40.4745974209002,-79.924948530745,11.3400001525879,-0.0564422607421875,-0.985824584960938,0.198867797851562,-0.0385612410038023,-0.0805837924763806,0.0499252156912794
1492617828.9,40.4745974209002,-79.924948530745,11.3400001525879,-0.0456390380859375,-1.04653930664062,0.190216064453125,0.0762819883675756,-0.0717546145144409,0.0670714457375366
1492617829.1,40.4745974209002,-79.924948530745,11.3400001525879,0.0280609130859375,-0.955154418945312,0.195098876953125,-0.0012737899493849,-0.0180740753700408,0.00536467169985562
1492617829.3,40.4745013661045,-79.9249910416037,11.289999961853,-0.027374267578125,-0.964645385742188,0.244583129882812,-0.0653542394666535,0.0589269664918563,-0.0168144001744333
1492617829.5,40.4745013661045,-79.9249910416037,11.289999961853,0.128311157226562,-0.920623779296875,0.238998413085938,-0.0590337592515685,0.0205894310196206,-0.0326439633777553
1492617829.7,40.4745013661045,-79.9249910416037,11.289999961853,0.03228759765625,-0.978195190429688,0.254837036132812,-0.0238217096346498,0.0246147990072754,-0.035492480479704
1492617829.9,40.4745013661045,-79.9249910416037,11.289999961853,-0.0366973876953125,-0.847824096679688,0.221908569335938,-0.0609818615889614,-0.0495867279167304,0.0709399535369857
1492617830.1,40.4745013661045,-79.9249910416037,11.289999961853,0.0720672607421875,-0.917587280273438,0.180465698242188,-0.0209524198761984,0.00864275668563415,-0.0204948888009228
1492617830.3,40.4744052195036,-79.9250335930925,11.3500003814697,-0.001739501953125,-0.987808227539062,0.2086181640625,-0.0380379298496018,-0.0752742482110897,0.0147318082019913
1492617830.5,40.4744052195036,-79.9250335930925,11.3500003814697,0.070526123046875,-1.02291870117188,0.23492431640625,-0.0266470572351148,0.0405860423805896,-0.0536882623115614
1492617830.7,40.4744052195036,-79.9250335930925,11.3500003814697,0.010406494140625,-0.992874145507812,0.260726928710938,-0.00132918370005855,0.0148926631318321,-0.0501641012410596
1492617830.9,40.4744052195036,-79.9250335930925,11.3500003814697,0.0928955078125,-1.05673217773438,0.20477294921875,0.0123890253910486,0.0913869054382871,-0.0768764059228813
1492617831.1,40.4744052195036,-79.9250335930925,11.3500003814697,0.201507568359375,-0.829513549804688,0.184036254882812,-0.0925565657890499,0.0899487984496443,-0.0352986023523463
1492617831.3,40.4743072695766,-79.9250769426772,11.4499998092651,-0.0448455810546875,-0.99493408203125,0.126358032226562,0.0141206127318181,-0.0383798797335679,0.0364948943140098
1492617831.5,40.4743072695766,-79.9250769426772,11.4499998092651,0.0197296142578125,-1.03657531738281,0.235794067382812,0.0216150143554101,-0.0192804873438467,0.0439858338281847
1492617831.7,40.4743072695766,-79.9250769426772,11.4499998092651,0.0023651123046875,-0.974456787109375,0.15496826171875,-0.0247998887030359,0.0224925259345912,-0.0429605168085042
1492617831.9,40.4743072695766,-79.9250769426772,11.4499998092651,-0.0005035400390625,-0.938186645507812,0.244430541992188,-0.0774319413262719,0.0409125459302333,-0.0776657668699808
1492617832.1,40.4743072695766,-79.9250769426772,11.4499998092651,0.027496337890625,-1.06028747558594,0.120925903320312,0.0168684623445619,0.0179646194492385,-0.0553167853181449
1492617832.3,40.4742292429465,-79.9251114748316,11.6199998855591,0.024749755859375,-0.88739013671875,0.222366333007812,-0.00736124356908802,-0.016974189839838,-0.0160247729112248
1492617832.5,40.4742292429465,-79.9251114748316,11.6199998855591,-0.00347900390625,-1.01597595214844,0.183578491210938,-0.0873000184294515,0.0367372419732071,0.0182032386829096
1492617832.7,40.4742292429465,-79.9251114748316,11.6199998855591,0.023651123046875,-0.932510375976562,0.177398681640625,-0.0233407427417815,-0.0349425377146027,0.052095691979694
1492617832.9,40.4742292429465,-79.9251114748316,11.6199998855591,-0.0341796875,-0.968658447265625,0.16900634765625,-0.0167859043507694,-0.0381785447551579,0.0383103712291169
1492617833.1,40.4742292429465,-79.9251114748316,11.6199998855591,0.008544921875,-0.9757080078125,0.190261840820312,-0.014887603125761,0.0298833305917791,0.0146974534239293
1492617833.3,40.4741113606431,-79.92516398401,11.6700000762939,0.0200653076171875,-0.945449829101562,0.131118774414062,-0.00636309079252632,-0.0180437153336139,-0.0117469372522305
1492617833.5,40.4741113606431,-79.92516398401,11.6700000762939,-0.078155517578125,-0.925186157226562,0.181350708007812,-0.0134305876933786,-0.0499041767186678,0.0202493453484175
1492617833.7,40.4741113606431,-79.92516398401,11.6700000762939,0.024078369140625,-1.00650024414062,0.202072143554688,0.0534483114973453,-0.00141387222272307,-0.0154423395808245
1492617833.9,40.4741113606431,-79.92516398401,11.6700000762939,0.100845336914062,-0.90106201171875,0.225753784179688,-0.00745312262669576,-0.0233553901277769,-0.0128106037916082
1492617834.1,40.4741113606431,-79.92516398401,11.6700000762939,0.122467041015625,-0.990325927734375,0.17205810546875,-0.0670101930324648,-0.0197774332032554,-0.0166282452142367
1492617834.3,40.4740422049911,-79.9251948012017,11.6599998474121,-0.129898071289062,-0.917129516601562,0.21917724609375,-0.0502040486574107,0.227934365061593,-0.174895115107684
1492617834.5,40.4740422049911,-79.9251948012017,11.6599998474121,0.0972137451171875,-0.99700927734375,0.0905609130859375,-0.0410739334922921,0.0928010439771191,-0.0603680029576982
1492617834.7,40.4740422049911,-79.9251948012017,11.6599998474121,0.184158325195312,-1.01272583007812,0.144622802734375,-0.0118393489420563,0.0819795552036912,-0.0237894853854598
1492617834.9,40.4740422049911,-79.9251948012017,11.6599998474121,0.0047607421875,-1.07173156738281,0.188705444335938,-0.017041567815417,-0.0722158740152427,0.0383955923839994
1492617835.1,40.4740422049911,-79.9251948012017,11.6599998474121,0.120391845703125,-0.915435791015625,0.14752197265625,0.138858018185058,0.0352738349542085,0.0663697027903007
1492617835.3,40.4739170290179,-79.9252503065009,11.460000038147,0.0985260009765625,-0.96209716796875,0.198410034179688,-0.0822293597139406,0.00692049040867991,0.0204645287644959
1492617835.5,40.4739170290179,-79.9252503065009,11.460000038147,0.0894622802734375,-0.921066284179688,0.199386596679688,-0.0199819639749735,-0.0923997056008442,0.0863972068199146
1492617835.7,40.4739170290179,-79.9252503065009,11.460000038147,0.062957763671875,-0.948760986328125,0.177932739257812,0.0486753941917053,-0.0269083133380516,0.00803129489935196
1492617835.9,40.4739170290179,-79.9252503065009,11.460000038147,-0.04229736328125,-1.02748107910156,0.20281982421875,-0.008839297974082,-0.085031271496813,0.0545058527662157
1492617836.1,40.4739170290179,-79.9252503065009,11.460000038147,0.0845794677734375,-0.954849243164062,0.134719848632812,0.00716416964842216,-0.0170642046846827,0.0118457405286725
1492617836.3,40.4738187561542,-79.9252938813623,11.4099998474121,0.0774383544921875,-0.980682373046875,0.1669921875,0.0287504218640594,0.00406824488120504,0.00241628605702889
1492617836.5,40.4738187561542,-79.9252938813623,11.4099998474121,0.01959228515625,-0.98455810546875,0.267898559570312,-0.0259849953881211,-0.0455698820445639,0.00624884118176192
1492617836.7,40.4738187561542,-79.9252938813623,11.4099998474121,0.0280609130859375,-0.976791381835938,0.14825439453125,-0.0319680530930932,0.0448758622644892,-0.0516213829895509
1492617836.9,40.4738187561542,-79.9252938813623,11.4099998474121,0.033599853515625,-0.930633544921875,0.173492431640625,-0.0541974587119846,0.0258827300022621,0.00577559745605484
1492617837.1,40.4738187561542,-79.9252938813623,11.4099998474121,0.049163818359375,-0.957901000976562,0.15625,-0.0150372727790234,-0.0732912584634167,0.0469486005408979
1492617837.3,40.4737146993902,-79.9253400208446,11.3900003433228,0.0384368896484375,-0.889801025390625,0.162887573242188,0.0475414201995495,-0.0439211190136958,0.00379873297888903
1492617837.5,40.4737146993902,-79.9253400208446,11.3900003433228,-0.0296478271484375,-0.963485717773438,0.190643310546875,0.0350682389180544,-0.0151206297211429,-0.00280058020232733
1492617837.7,40.4737146993902,-79.9253400208446,11.3900003433228,0.0036773681640625,-1.06109619140625,0.182022094726562,0.0180759395828038,-0.0905288349350635,0.0302726847431487
1492617837.9,40.4737146993902,-79.9253400208446,11.3900003433228,-0.0943756103515625,-0.884170532226562,0.236160278320312,0.00228579116361501,0.0669910182726162,-0.0523939660217829
1492617838.1,40.4737146993902,-79.9253400208446,11.3900003433228,-0.0273284912109375,-0.840057373046875,0.224929809570312,0.0120862239751066,-0.0224230174301402,-0.0392683102732184
1492617838.3,40.4736216544197,-79.9253812776222,11.3999996185303,0.012908935546875,-0.878097534179688,0.199798583984375,-0.0219106252364089,-0.00837324478331813,-0.0375202113336904
1492617838.5,40.4736216544197,-79.9253812776222,11.3999996185303,-0.0610198974609375,-1.0020751953125,0.182861328125,-0.0653904584574786,0.0918809218204968,-0.151242782518363
1492617838.7,40.4736216544197,-79.9253812776222,11.3999996185303,0.129867553710938,-0.886520385742188,0.137557983398438,-0.0436063333728484,0.097065031198445,-0.106252138010891
1492617838.9,40.4736216544197,-79.9253812776222,11.3999996185303,0.06475830078125,-0.868057250976562,0.183868408203125,-0.103808954026853,-0.050381681502119,0.00972932641038648
1492617839.1,40.4736216544197,-79.9253812776222,11.3999996185303,0.160919189453125,-0.944107055664062,0.1455078125,0.0155155765108016,0.0445845124412345,0.0576193543966274
1492617839.3,40.4735220655951,-79.9254254359897,11.4300003051758,0.196365356445312,-0.9083251953125,0.259475708007812,0.136064628517674,-0.0381156941534321,-0.00277341595920852
1492617839.5,40.4735220655951,-79.9254254359897,11.4300003051758,0.0310516357421875,-0.986495971679688,0.233016967773438,-0.0541593755083964,-0.0464447304626549,0.0411477030544873
1492617839.7,40.4735220655951,-79.9254254359897,11.4300003051758,0.0206756591796875,-1.02281188964844,0.203140258789062,0.00297368567318248,0.0499699567975928,-0.0342173589497741
1492617839.9,40.4735220655951,-79.9254254359897,11.4300003051758,0.125030517578125,-1.01066589355469,0.19842529296875,0.0298947821844665,0.105097125046124,-0.103387908258511
1492617840.1,40.4735220655951,-79.9254254359897,11.4300003051758,0.009552001953125,-1.00572204589844,0.245635986328125,-0.000414654181725337,-0.0935954649302898,0.0567466365074084
1492617840.3,40.4734246237157,-79.9254686423868,11.3999996185303,0.0778350830078125,-0.981582641601562,0.174972534179688,-0.0468836194102999,0.0651853950535425,-0.0400981512688871
1492617840.5,40.4734246237157,-79.9254686423868,11.3999996185303,-0.0371856689453125,-0.884384155273438,0.25555419921875,-0.10322439016758,-0.00571221422211096,-0.00850560388949507
1492617840.7,40.4734246237157,-79.9254686423868,11.3999996185303,0.0645751953125,-0.980682373046875,0.163604736328125,0.0536328685608878,0.00816951295992707,0.0538387309131509
1492617840.9,40.4734246237157,-79.9254686423868,11.3999996185303,-0.124420166015625,-1.00595092773438,0.232574462890625,0.0471480713065448,-0.0917730637963486,0.0838842480153158
1492617841.1,40.4734246237157,-79.9254686423868,11.3999996185303,0.063446044921875,-0.9591064453125,0.152938842773438,-0.106007926138931,0.104925084839705,-0.0557330373965243
1492617841.3,40.4733256361296,-79.925512534161,11.3900003433228,0.0382843017578125,-0.9285888671875,0.1737060546875,-0.0288609430492977,0.0182738124517967,0.0177829918628951
1492617841.5,40.4733256361296,-79.925512534161,11.3900003433228,-0.03143310546875,-0.90478515625,0.2354736328125,3.8615835806149e-05,-0.00851119652778424,-0.0074411384017904
1492617841.7,40.4733256361296,-79.925512534161,11.3900003433228,0.0208587646484375,-0.910202026367188,0.232757568359375,0.00574177531021084,0.0244254482537707,-0.0170636720524647
1492617841.9,40.4733256361296,-79.925512534161,11.3900003433228,-0.0393829345703125,-0.937728881835938,0.217254638671875,-0.0113637083713681,-0.0797036177361095,0.00861905455193245
1492617842.1,40.4733256361296,-79.925512534161,11.3900003433228,-0.015777587890625,-0.97265625,0.169326782226562,-0.0980013986377169,0.0484969623986699,-0.0491081578688431
1492617842.3,40.473272141075,-79.9255362542348,11.4499998092651,0.05499267578125,-0.995590209960938,0.13580322265625,-0.0257847256741472,0.0331361155472019,-0.0429980673798743
1492617842.5,40.473272141075,-79.9255362542348,11.4499998092651,0.0665130615234375,-1.03445434570312,0.205062866210938,0.0119930133369538,0.0158759022062894,-0.0116465360791345
1492617842.7,40.473272141075,-79.9255362542348,11.4499998092651,0.0427703857421875,-0.998245239257812,0.207977294921875,-0.0395522032454208,-0.0167619359009587,0.00177073580879369
1492617842.9,40.473272141075,-79.9255362542348,11.4499998092651,0.022003173828125,-1.000244140625,0.1986083984375,-0.0229079790646436,-0.0455885241721944,0.0148101051380397
1492617843.1,40.473272141075,-79.9255362542348,11.4499998092651,-0.03558349609375,-0.94049072265625,0.130645751953125,0.0153770921341175,-0.0479645964967631,0.0173406408058329
1492617843.3,40.4731265870447,-79.9256015060149,11.6300001144409,-0.0134735107421875,-0.944778442382812,0.241241455078125,-0.0425226931252952,-0.0103623598014983,-0.0110707606514594
1492617843.5,40.4731265870447,-79.9256015060149,11.6300001144409,0.0843048095703125,-0.964828491210938,0.204605102539062,-0.0585184375806381,0.0716430280647666,-0.0423663655693075
1492617843.7,40.4731265870447,-79.9256015060149,11.6300001144409,0.0773162841796875,-0.964218139648438,0.216064453125,-0.00718014861496263,0.00323494177611925,-0.0182074997406537
1492617843.9,40.4731265870447,-79.9256015060149,11.6300001144409,0.083709716796875,-1.00004577636719,0.149566650390625,-0.0676994191225773,0.00681795870671186,-0.0294985038142627
1492617844.1,40.4731265870447,-79.9256015060149,11.6300001144409,-0.017913818359375,-0.945526123046875,0.284774780273438,-0.038853123459275,0.0236502020604487,-0.0271141756903147
1492617844.3,40.473026881495,-79.9256456010456,11.5500001907349,0.0320281982421875,-0.958343505859375,0.213851928710938,-0.0727540988715477,0.0270601135201861,-0.0381322057521906
1492617844.5,40.473026881495,-79.9256456010456,11.5500001907349,0.020050048828125,-0.9642333984375,0.239044189453125,-0.00827284361022215,0.0287738576816521,-0.00229138380190418
1492617844.7,40.473026881495,-79.9256456010456,11.5500001907349,-0.0023193359375,-0.949844360351562,0.208816528320312,0.00894502546935814,0.129697010351295,-0.115394237400915
1492617844.9,40.473026881495,-79.9256456010456,11.5500001907349,0.245986938476562,-0.930389404296875,0.166610717773438,-0.0124838339258554,0.0117796941336385,-0.0150852096786448
1492617845.1,40.473026881495,-79.9256456010456,11.5500001907349,-0.0169525146484375,-1.02508544921875,0.269149780273438,-0.00934663016174209,-0.0882134826833487,0.0896939339333237
1492617845.3,40.472932293176,-79.9256874329682,11.5200004577637,0.0147552490234375,-0.966812133789062,0.200942993164062,-0.0097836548966241,-0.0286569449097976,-0.0010924286791505
1492617845.5,40.472932293176,-79.9256874329682,11.5200004577637,0.052764892578125,-0.996307373046875,0.158493041992188,-0.085737275501793,0.0601251226662829,-0.00529782635649463
1492617845.7,40.472932293176,-79.9256874329682,11.5200004577637,-0.00762939453125,-1.01177978515625,0.215316772460938,0.0332130809027052,0.0253130798450941,-0.00079149147597155
1492617845.9,40.472932293176,-79.9256874329682,11.5200004577637,-0.014373779296875,-0.945648193359375,0.189743041992188,-0.0227902673444621,0.0299275390658744,-0.0301645604028915
1492617846.1,40.472932293176,-79.9256874329682,11.5200004577637,0.00396728515625,-0.926483154296875,0.239730834960938,-0.0121847609354395,-0.0180000394917366,0.0244446230136193
1492617846.3,40.4728329919386,-79.9257313491908,11.5799999237061,0.10577392578125,-0.952011108398438,0.202178955078125,0.00449328539118169,0.0116699718967272,-0.0106462527737008
1492617846.5,40.4728329919386,-79.9257313491908,11.5799999237061,-0.009033203125,-0.925064086914062,0.244735717773438,-0.0494330635218328,-0.0252046891887279,0.0187507846030299
1492617846.7,40.4728329919386,-79.9257313491908,11.5799999237061,0.0271759033203125,-0.87603759765625,0.216964721679688,-0.0508956715925043,0.148173489362047,-0.0904654517011197
1492617846.9,40.4728329919386,-79.9257313491908,11.5799999237061,0.0115966796875,-1.06723022460938,0.18731689453125,-0.0630556651298061,-0.243150335949761,0.194032857017102
1492617847.1,40.4728329919386,-79.9257313491908,11.5799999237061,0.0166168212890625,-0.904067993164062,0.202224731445312,0.0110188290102028,0.00843449748838996,-0.0222994467555605
1492617847.3,40.4727347656051,-79.9257756049452,11.5500001907349,-0.0776214599609375,-1.06687927246094,0.24664306640625,-0.00402803114874485,0.0691588313999407,-0.0567290596442139
1492617847.5,40.4727347656051,-79.9257756049452,11.5500001907349,0.0052490234375,-0.97265625,0.178512573242188,0.0288297840645438,-0.0842171431515757,0.0261016418438666
1492617847.7,40.4727347656051,-79.9257756049452,11.5500001907349,-0.0287628173828125,-0.961929321289062,0.215423583984375,0.0132516232681253,-0.0298660200446936,0.0268680996055914
1492617847.9,40.4727347656051,-79.9257756049452,11.5500001907349,-0.07794189453125,-0.971939086914062,0.142669677734375,-0.0472950777987172,0.0162575331904977,-0.0367774557056673
1492617848.1,40.4727347656051,-79.9257756049452,11.5500001907349,0.0682830810546875,-0.985137939453125,0.16839599609375,-0.0227561788825091,-0.0136769300942109,0.0211265906114896
1492617848.3,40.4726385623063,-79.9258190068814,11.5299997329712,0.011474609375,-1.00422668457031,0.213699340820312,-0.00827151202967711,-0.00420433241290809,-0.0203319033422099
1492617848.5,40.4726385623063,-79.9258190068814,11.5299997329712,-0.03173828125,-0.98193359375,0.161468505859375,0.0195558582005609,0.078577899543333,-0.0629091912698518
1492617848.7,40.4726385623063,-79.9258190068814,11.5299997329712,0.135894775390625,-1.00318908691406,0.187088012695312,-0.0691231450413337,0.0578819420801092,-0.053101567923417
1492617848.9,40.4726385623063,-79.9258190068814,11.5299997329712,0.0726776123046875,-1.01310729980469,0.149658203125,0.022350046816272,-0.0384424640191848,-0.019930032333717
1492617849.1,40.4726385623063,-79.9258190068814,11.5299997329712,0.0233306884765625,-0.979782104492188,0.216049194335938,0.00489089534193052,-0.0478982837856201,0.00550475397319379
1492617849.3,40.4725399345699,-79.9258635025979,11.5200004577637,-0.098358154296875,-0.957901000976562,0.216079711914062,-0.023291474261615,-0.0966445180623215,0.0149379368703635
1492617849.5,40.4725399345699,-79.9258635025979,11.5200004577637,-0.0569915771484375,-0.9425048828125,0.181411743164062,-0.000438089999318035,-0.0680759901007145,-0.00515987461202852
1492617849.7,40.4725399345699,-79.9258635025979,11.5200004577637,0.0031585693359375,-0.986068725585938,0.174453735351562,0.00270151060977638,-0.0266071098187637,0.0214206035958343
1492617849.9,40.4725399345699,-79.9258635025979,11.5200004577637,0.0468292236328125,-1.009765625,0.188446044921875,0.0447533568543456,-0.0151848119034138,-0.0101647532486144
1492617850.1,40.4725399345699,-79.9258635025979,11.5200004577637,0.0244293212890625,-1.01383972167969,0.210739135742188,-0.0145094342509697,0.00221734792359997,-0.0278758397620774
1492617850.3,40.4724875822478,-79.9258871212489,11.4399995803833,0.098388671875,-0.89007568359375,0.183334350585938,-0.0723751310484294,0.00791704528858756,0.00137099532917279
1492617850.5,40.4724875822478,-79.9258871212489,11.4399995803833,0.104995727539062,-0.977523803710938,0.172378540039062,-0.0829052699986027,0.0547918762672902,0.0182016407862556
1492617850.7,40.4724875822478,-79.9258871212489,11.4399995803833,0.0075836181640625,-1.01414489746094,0.203720092773438,-0.0217068934130179,0.0480050765453323,-0.0216704081060838
1492617850.9,40.4724875822478,-79.9258871212489,11.4399995803833,0.0636749267578125,-0.935440063476562,0.1466064453125,0.0404278506118389,0.00718414335659775,0.0067926586763561
1492617851.1,40.4724875822478,-79.9258871212489,11.4399995803833,0.0521240234375,-1.0084228515625,0.110809326171875,0.0117450730394675,0.0615994486457508,-0.123719545284612
1492617851.3,40.4723428703032,-79.9259524171415,11.4200000762939,0.14813232421875,-0.976730346679688,0.198989868164062,-0.0212533570793774,-0.00411751336137151,-0.00553804348681978
1492617851.5,40.4723428703032,-79.9259524171415,11.4200000762939,-0.179214477539062,-0.966079711914062,0.240432739257812,-0.0521236551711399,-0.0953797828606429,0.0988703881014097
1492617851.7,40.4723428703032,-79.9259524171415,11.4200000762939,-0.182937622070312,-0.825393676757812,0.230499267578125,-0.0910268460589084,0.307977535836687,-0.182983135338254
1492617851.9,40.4723428703032,-79.9259524171415,11.4200000762939,0.166900634765625,-1.02871704101562,0.181289672851562,0.000415453130052361,0.0319068003880213,-0.012872655445007
1492617852.1,40.4723428703032,-79.9259524171415,11.4200000762939,0.1256103515625,-0.920089721679688,0.194839477539062,-0.0453893197226565,-0.0135389783497448,-0.0366810492742064
1492617852.3,40.4722445580596,-79.9259967771707,11.3800001144409,0.0866851806640625,-0.950958251953125,0.187164306640625,-0.0230163697210098,-0.094509461816405,0.0735770156483822
1492617852.5,40.4722445580596,-79.9259967771707,11.3800001144409,0.0670928955078125,-0.983642578125,0.141204833984375,-0.0083620595067398,0.03834978601325,0.00941134497623102
1492617852.7,40.4722445580596,-79.9259967771707,11.3800001144409,0.0147705078125,-0.921279907226562,0.224838256835938,-0.0413221401058875,0.00771304714908749,-0.0111051154295214
1492617852.9,40.4722445580596,-79.9259967771707,11.3800001144409,0.0024261474609375,-0.941360473632812,0.16546630859375,-0.0281205842662557,0.00762223335591579,-0.0418899260502924
1492617853.1,40.4722445580596,-79.9259967771707,11.3800001144409,-0.009002685546875,-0.967636108398438,0.171005249023438,-0.0408579511278867,-0.0390906774285101,0.00714606015300962
1492617853.3,40.4721477746243,-79.9260404473776,11.4200000762939,0.085845947265625,-1.00457763671875,0.219955444335938,-0.0154444701096965,0.0617829404448573,-0.0824160473063552
1492617853.5,40.4721477746243,-79.9260404473776,11.4200000762939,0.0449066162109375,-0.945358276367188,0.19622802734375,0.095013598210757,-0.0229484591132128,0.0479454217369145
1492617853.7,40.4721477746243,-79.9260404473776,11.4200000762939,-0.118179321289062,-1.02812194824219,0.162261962890625,-0.0728872569260516,0.0366368408001111,-0.0232312868209792
1492617853.9,40.4721477746243,-79.9260404473776,11.4200000762939,0.0577392578125,-0.908035278320312,0.0702056884765625,-0.100778276706342,0.0878587496261501,-0.13560150480411
1492617854.1,40.4721477746243,-79.9260404473776,11.4200000762939,0.123565673828125,-0.982101440429688,0.058502197265625,-0.0341361325365267,0.0416989774001337,-0.0505691680428606
1492617854.3,40.4720509853153,-79.9260841202348,11.3500003814697,-0.0630340576171875,-0.89984130859375,0.137496948242188,0.0975827497143564,-0.195282944832785,0.0772042410530701
1492617854.5,40.4720509853153,-79.9260841202348,11.3500003814697,-0.019378662109375,-0.965927124023438,0.0678863525390625,-0.0361148612264555,-0.0423061781286718,0.0477190530442578
1492617854.7,40.4720509853153,-79.9260841202348,11.3500003814697,-0.0363616943359375,-1.04437255859375,0.152801513671875,-0.0109474562929887,-0.0977835520605484,0.0459874657034883
1492617854.9,40.4720509853153,-79.9260841202348,11.3500003814697,0.0118560791015625,-0.989852905273438,0.086578369140625,-0.00873649995600494,0.104288056706958,-0.0824570599871424
1492617855.1,40.4720509853153,-79.9260841202348,11.3500003814697,0.04693603515625,-0.981338500976562,0.0525970458984375,0.0169358403201409,-0.00755565432866381,0.00339153564821591
1492617855.3,40.4719611582378,-79.9261243652645,10.5,-0.0360870361328125,-1.03028869628906,0.0429534912109375,0.0110550480010279,-0.106432966648908,0.0675593368492391
1492617855.5,40.4719611582378,-79.9261243652645,10.5,-0.0241546630859375,-1.00761413574219,-0.02569580078125,-0.00546693708571466,0.0447048873225061,-0.042819901902948
1492617855.7,40.4719611582378,-79.9261243652645,10.5,0.048828125,-0.964523315429688,0.0186767578125,-0.039960998472748,-0.00292494982523403,0.0390483331671778
1492617855.9,40.4719611582378,-79.9261243652645,10.5,0.04058837890625,-1.03477478027344,-0.0052947998046875,-0.00568718050786421,-0.0308093117027997,0.00961720732849414
1492617856.1,40.4719611582378,-79.9261243652645,10.5,0.0528717041015625,-1.03144836425781,-0.0077667236328125,-0.0223886626520781,0.000145941227736342,0.00190282859886162
1492617856.3,40.4718813428395,-79.926159638255,8.9399995803833,-0.0021209716796875,-0.98345947265625,0.0319671630859375,-0.0215223363494754,-0.0126231172508666,0.00940814918292292
1492617856.5,40.4718813428395,-79.926159638255,8.9399995803833,0.0967254638671875,-1.00624084472656,-0.0190887451171875,-0.00883876534186398,-0.0212150075596802,0.0116926087659929
1492617856.7,40.4718813428395,-79.926159638255,8.9399995803833,0.0226898193359375,-1.01580810546875,0.0005035400390625,-0.0547034593190996,-0.0102776712788338,0.022923159082857
1492617856.9,40.4718813428395,-79.926159638255,8.9399995803833,-0.0223846435546875,-0.980331420898438,-0.0505523681640625,-0.0558041437976294,-0.00920628157229492,0.0261077671143738
1492617857.1,40.4718813428395,-79.926159638255,8.9399995803833,0.0392608642578125,-1.00505065917969,-0.051239013671875,-0.00846059646707273,-0.00207327090862669,-0.00541234228336804
1492617857.3,40.4718144879234,-79.9261891835916,7.17000007629395,0.0585479736328125,-1.02110290527344,-0.029388427734375,0.0065170215035329,-0.0564134750550395,0.0375297987136146
1492617857.5,40.4718144879234,-79.9261891835916,7.17000007629395,0.113204956054688,-1.02922058105469,-0.0266571044921875,0.0161427509475153,0.00521207256939408,-0.00944410185763899
1492617857.7,40.4718144879234,-79.9261891835916,7.17000007629395,-0.051544189453125,-1.03152465820312,-0.0240936279296875,-0.0137536291336052,-0.0233154427114257,-0.0192724978605764
1492617857.9,40.4718144879234,-79.9261891835916,7.17000007629395,0.0314788818359375,-1.0150146484375,-0.045623779296875,-0.0333116178630381,-0.0189284174477382,0.0114361463530183
1492617858.1,40.4718144879234,-79.9261891835916,7.17000007629395,-0.0224456787109375,-1.0189208984375,-0.0547943115234375,0.0131051494081709,-0.0532672165432199,0.0247945623808557
1492617858.3,40.4717681259909,-79.9262096724201,4.80999994277954,0.01611328125,-1.01463317871094,-0.022491455078125,-0.04611316690694,0.0279504082725996,-0.0389279582859062
1492617858.5,40.4717681259909,-79.9262096724201,4.80999994277954,0.04833984375,-1.03486633300781,-0.0678863525390625,-0.0122827652635545,0.0170950973533276,-0.0268252227120411
1492617858.7,40.4717681259909,-79.9262096724201,4.80999994277954,0.0255889892578125,-0.997039794921875,-0.03326416015625,-0.0211601464412246,0.00439128632143166,-0.00769147554425785
1492617858.9,40.4717681259909,-79.9262096724201,4.80999994277954,0.0334014892578125,-1.02983093261719,-0.0212554931640625,-0.0213905098755164,-0.00092358426603948,0.0061806642578559
1492617859.1,40.4717681259909,-79.9262096724201,4.80999994277954,0.0185546875,-1.00247192382812,-0.0103302001953125,-0.0192543883651639,-0.0137032953890027,-0.00122798357863554
1492617859.3,40.4717387695027,-79.926222645996,2.44000005722046,0.0222015380859375,-1.01536560058594,-0.0045166015625,-0.00633379602053545,-0.00634231813602371,-0.00751197848678651
1492617859.5,40.4717387695027,-79.926222645996,2.44000005722046,0.0509033203125,-1.01416015625,0.01385498046875,-0.013846839771758,-0.00842038273461253,-0.00438489473481547
1492617859.7,40.4717387695027,-79.926222645996,2.44000005722046,0.0467681884765625,-1.0015869140625,0.04931640625,-0.0025608957042202,-0.0223183551993,0.01922322938041
1492617859.9,40.4717387695027,-79.926222645996,2.44000005722046,0.0397491455078125,-1.0037841796875,0.062103271484375,-0.0138748029632038,-0.00629225070753022,-0.00119203090391947
1492617860.1,40.4717387695027,-79.926222645996,2.44000005722046,0.0368194580078125,-0.996490478515625,0.062591552734375,-0.0149994558915443,-0.00841186061912428,0.00200056661086752
1492617860.3,40.4717311081613,-79.926226031789,0.330000013113022,0.0341796875,-0.964431762695312,0.259063720703125,-0.0119024658598911,-0.0116223013132148,0.00737162989733933
1492617860.5,40.4717311081613,-79.926226031789,0.330000013113022,0.038055419921875,-0.957977294921875,0.16046142578125,-0.0149941295693641,-0.0116033928694752,-0.000123570674579677
1492617860.7,40.4717311081613,-79.926226031789,0.330000013113022,0.030517578125,-0.960693359375,0.21148681640625,-0.0159816297015655,-0.00521500204659316,-0.00228259537030692
1492617860.9,40.4717311081613,-79.926226031789,0.330000013113022,0.037506103515625,-0.97955322265625,0.20208740234375,-0.0191997935628173,-0.00838522900822349,-0.00230736276844465
1492617861.1,40.4717311081613,-79.926226031789,0.330000013113022,0.036651611328125,-0.976348876953125,0.196975708007812,-0.0160482087288175,-0.00627760332153478,0.00198432132821804
1492617861.3,40.4717325892248,-79.9262253772595,0.0,0.036102294921875,-0.959976196289062,0.202667236328125,-0.0160202455373717,-0.0084057353486171,-0.00120854250267796
1492617861.5,40.4717325892248,-79.9262253772595,0.0,0.0351104736328125,-0.972000122070312,0.198333740234375,-0.0149621716362832,-0.00734872671196465,-0.000134223318939994
1492617861.7,40.4717325892248,-79.9262253772595,0.0,0.03466796875,-0.969451904296875,0.19720458984375,-0.0213345834926248,-0.00517984832020412,-0.000205063403936101
1492617861.9,40.4717325892248,-79.9262253772595,0.0,0.0343017578125,-0.965087890625,0.203765869140625,-0.0160335613428221,-0.00627786963764379,0.000918257943859321
1492617862.1,40.4717325892248,-79.9262253772595,0.0,0.034759521484375,-0.968551635742188,0.191360473632812,-0.0192051198849974,-0.00519369675787253,-0.000183225482997452
1492617862.3,40.4717322834776,-79.926225512379,0.0,0.0341033935546875,-0.967636108398438,0.202072143554688,-0.0202924885580768,-0.00625017276230696,0.000874582101982022
1492617862.5,40.4717322834776,-79.926225512379,0.0,0.0349884033203125,-0.969467163085938,0.19915771484375,-0.0171142721131762,-0.00839827849756488,0.000912665305570155
1492617862.7,40.4717322834776,-79.926225512379,0.0,0.0351104736328125,-0.971206665039062,0.200363159179688,-0.0202631937860859,-0.00625070539452498,-0.00125754466673542
1492617862.9,40.4717322834776,-79.926225512379,0.0,0.0343475341796875,-0.966949462890625,0.199783325195312,-0.0160189139568266,-0.0062781359537528,-0.000147805440499398
1492617863.1,40.4717322834776,-79.926225512379,0.0,0.0348052978515625,-0.967254638671875,0.201461791992188,-0.0181257406951883,-0.00520088729281574,-0.00123836990688685
1492617863.3,40.4717322553978,-79.9262255247884,0.0,0.03240966796875,-0.971878051757812,0.20025634765625,-0.0191984619822722,-0.00625762961335919,-0.00124662570626609
1492617863.5,40.4717322553978,-79.9262255247884,0.0,0.0373077392578125,-0.968490600585938,0.199111938476562,-0.0181790039169899,-0.00839135427873067,0.00090174634510083
1492617863.7,40.4717322553978,-79.9262255247884,0.0,0.0300445556640625,-0.968231201171875,0.201889038085938,-0.018148377564454,-0.00626428751608438,-0.000169643361438047
1492617863.9,40.4717322553978,-79.9262255247884,0.0,0.03765869140625,-0.969436645507812,0.20062255859375,-0.0170916352439105,-0.00733487827429624,-0.000156061239878643
1492617864.1,40.4717322553978,-79.9262255247884,0.0,0.03387451171875,-0.96929931640625,0.19775390625,-0.0170916352439105,-0.00733487827429624,-0.000156061239878643
1492617864.3,40.4717322273342,-79.9262255371906,0.0,0.0357818603515625,-0.969818115234375,0.198776245117188,-0.0170849773411853,-0.00839881112978289,-0.00121946146314728
1492617864.5,40.4717322273342,-79.9262255371906,0.0,0.034271240234375,-0.967926025390625,0.198806762695312,-0.0192131093682677,-0.00625736329725018,-0.000180562321907372
1492617864.7,40.4717322273342,-79.9262255371906,0.0,0.0358123779296875,-0.9676513671875,0.19964599609375,-0.0170916352439105,-0.00733487827429624,-0.000156061239878643
1492617864.9,40.4717322273342,-79.9262255371906,0.0,0.0340118408203125,-0.969024658203125,0.198867797851562,-0.0202924885580768,-0.00625017276230696,0.000874582101982022
1492617865.1,40.4717322273342,-79.9262255371906,0.0,0.0358734130859375,-0.96923828125,0.199295043945312,-0.0160189139568266,-0.0062781359537528,-0.000147805440499398
1492617865.3,40.4717313179885,-79.9262259390596,0.0,0.0350494384765625,-0.969970703125,0.20086669921875,-0.0192357462375333,-0.00732076352051882,0.000888164223541426
1492617865.5,40.4717313179885,-79.9262259390596,0.0,0.0365447998046875,-0.968490600585938,0.199920654296875,-0.0160335613428221,-0.00627786963764379,0.000918257943859321
1492617865.7,40.4717313179885,-79.9262259390596,0.0,0.0335693359375,-0.969741821289062,0.201202392578125,-0.0170769878579151,-0.00733514459040525,-0.00122212462423736
1492617865.9,40.4717313179885,-79.9262259390596,0.0,0.0350189208984375,-0.968246459960938,0.2025146484375,-0.018148377564454,-0.00626428751608438,-0.000169643361438047
1492617866.1,40.4717313179885,-79.9262259390596,0.0,0.0343170166015625,-0.967636108398438,0.199172973632812,-0.0170610088913746,-0.00520781151164995,-0.00122745094641752
1492617866.3,40.4717312899294,-79.9262259514599,0.0,0.0349578857421875,-0.96685791015625,0.196746826171875,-0.018149709144999,-0.00839188691094869,-0.00123038042361661
1492617866.5,40.4717312899294,-79.9262259514599,0.0,0.0335235595703125,-0.96881103515625,0.20135498046875,-0.0202858306553516,-0.00731410561779362,-0.000188818121286618
1492617866.7,40.4717312899294,-79.9262259514599,0.0,0.0355377197265625,-0.96673583984375,0.197311401367188,-0.0181417196617288,-0.00732822037157104,-0.00123304358470669
1492617866.9,40.4717312899294,-79.9262259514599,0.0,0.03228759765625,-0.969131469726562,0.198806762695312,-0.0181643565309945,-0.00839162059483968,-0.000164317039257889
1492617867.1,40.4717312899294,-79.9262259514599,0.0,0.037109375,-0.969329833984375,0.197418212890625,-0.0181936513029853,-0.00839108796262166,0.00196780972945955
1492617867.3,40.4717328330482,-79.9262252695061,0.0,0.033233642578125,-0.967636108398438,0.1993408203125,-0.0149768190222786,-0.00734846039585564,0.000931840065418725
1492617867.5,40.4717328330482,-79.9262252695061,0.0,0.0370330810546875,-0.966232299804688,0.200302124023438,-0.0170916352439105,-0.00733487827429624,-0.000156061239878643
1492617867.7,40.4717328330482,-79.9262252695061,0.0,0.033782958984375,-0.9677734375,0.198806762695312,-0.0170916352439105,-0.00733487827429624,-0.000156061239878643
1492617867.9,40.4717328330482,-79.9262252695061,0.0,0.0368499755859375,-0.968017578125,0.197341918945312,-0.0181417196617288,-0.00732822037157104,-0.00123304358470669
1492617868.1,40.4717328330482,-79.9262252695061,0.0,0.0352020263671875,-0.966094970703125,0.196914672851562,-0.0192424041402585,-0.00625683066503216,0.00195156444681007
1492617868.3,40.471732800479,-79.9262252838994,0.0,0.037506103515625,-0.9677734375,0.198135375976562,-0.0181337301784585,-0.00626455383219339,-0.00123570674579677
1492617868.5,40.471732800479,-79.9262252838994,0.0,0.0330963134765625,-0.969390869140625,0.199188232421875,-0.0149608400557381,-0.00522112731710035,0.000926513743238567
1492617868.7,40.471732800479,-79.9262252838994,0.0,0.036346435546875,-0.967636108398438,0.196701049804688,-0.0160189139568266,-0.0062781359537528,-0.000147805440499398
1492617868.9,40.471732800479,-79.9262252838994,0.0,0.0323638916015625,-0.96856689453125,0.19879150390625,-0.0181630249504494,-0.00626402119997538,0.000896420022920672
1492617869.1,40.471732800479,-79.9262252838994,0.0,0.0350341796875,-0.965789794921875,0.196273803710938,-0.0149461926697427,-0.00522139363320935,-0.000139549641120152
1492617869.3,40.4717323698916,-79.9262254741899,0.0,0.035430908203125,-0.9697265625,0.196990966796875,-0.0160495403093625,-0.00840520271639908,0.00092358426603948
1492617869.5,40.4717323698916,-79.9262254741899,0.0,0.03460693359375,-0.968765258789062,0.198699951171875,-0.0160269034400969,-0.00734180249313044,-0.000145142279409318
1492617869.7,40.4717323698916,-79.9262254741899,0.0,0.0345458984375,-0.967819213867188,0.196685791015625,-0.0181630249504494,-0.00626402119997538,0.000896420022920672
1492617869.9,40.4717323698916,-79.9262254741899,0.0,0.0342864990234375,-0.970108032226562,0.202545166015625,-0.0181270722757333,-0.00732848668768005,-0.00229910696906541
1492617870.1,40.4717323698916,-79.9262254741899,0.0,0.03668212890625,-0.969131469726562,0.19915771484375,-0.0181710144337196,-0.00732768773935302,0.000899083184010751
1492617870.3,40.4717323418921,-79.9262254865637,0.0,0.033477783203125,-0.9698486328125,0.202407836914062,-0.0192064514655425,-0.00732129615273683,-0.00124396254517601
1492617870.5,40.4717323418921,-79.9262254865637,0.0,0.037200927734375,-0.96917724609375,0.2000732421875,-0.0170903036633655,-0.00520727887943193,0.000904675822299917
1492617870.7,40.4717323418921,-79.9262254865637,0.0,0.0343170166015625,-0.970001220703125,0.201522827148438,-0.0170982931466357,-0.00627094541880958,0.000907338983389996
1492617870.9,40.4717323418921,-79.9262254865637,0.0,0.0360870361328125,-0.96868896484375,0.20361328125,-0.0181710144337196,-0.00732768773935302,0.000899083184010751
1492617871.1,40.4717323418921,-79.9262254865637,0.0,0.0330810546875,-0.968963623046875,0.197372436523438,-0.0160042665708312,-0.0062784022698618,-0.00121386882485812
1492617871.3,40.4717333628275,-79.9262250353796,0.0,0.03546142578125,-0.969802856445312,0.201278686523438,-0.0192503936235288,-0.00732049720440981,0.00195422760790014
1492617871.5,40.4717333628275,-79.9262250353796,0.0,0.0345306396484375,-0.967437744140625,0.198440551757812,-0.0149475242502877,-0.00734899302807366,-0.00120028670329871
1492617871.7,40.4717333628275,-79.9262250353796,0.0,0.0356903076171875,-0.970596313476562,0.202163696289062,-0.0170916352439105,-0.00733487827429624,-0.000156061239878643
1492617871.9,40.4717333628275,-79.9262250353796,0.0,0.035186767578125,-0.966552734375,0.196395874023438,-0.0181563670477242,-0.00732795405546203,-0.000166980200347968
1492617872.1,40.4717333628275,-79.9262250353796,0.0,0.0354461669921875,-0.96661376953125,0.19793701171875,-0.0192210988515379,-0.00732102983662783,-0.000177899160817293
1492617872.3,40.471732445874,-79.9262254406108,0.0,0.0347900390625,-0.968673706054688,0.200897216796875,-0.0181550354671792,-0.00520035466059773,0.000893756861830592
1492617872.5,40.471732445874,-79.9262254406108,0.0,0.0359039306640625,-0.970947265625,0.202407836914062,-0.0160042665708312,-0.0062784022698618,-0.00121386882485812
1492617872.7,40.471732445874,-79.9262254406108,0.0,0.033538818359375,-0.968551635742188,0.201446533203125,-0.0192131093682677,-0.00625736329725018,-0.000180562321907372
1492617872.9,40.471732445874,-79.9262254406108,0.0,0.035888671875,-0.968246459960938,0.19964599609375,-0.0181563670477242,-0.00732795405546203,-0.000166980200347968
1492617873.1,40.471732445874,-79.9262254406108,0.0,0.0338592529296875,-0.968002319335938,0.199172973632812,-0.0170836457606403,-0.00627121173491859,-0.000158724400968723
1492617873.3,40.4717324179317,-79.9262254529594,0.0,0.0372772216796875,-0.967117309570312,0.196975708007812,-0.0181563670477242,-0.00732795405546203,-0.000166980200347968
1492617873.5,40.4717324179317,-79.9262254529594,0.0,0.03338623046875,-0.968399047851562,0.196746826171875,-0.0192357462375333,-0.00732076352051882,0.000888164223541426
1492617873.7,40.4717324179317,-79.9262254529594,0.0,0.035125732421875,-0.962661743164062,0.204376220703125,-0.0213585519424355,-0.00837084793833706,-0.000197073920665864
1492617873.9,40.4717324179317,-79.9262254529594,0.0,0.0403900146484375,-0.966903686523438,0.20318603515625,-0.0212893097540934,-0.00305304787366684,-0.0023425164948337
1492617874.1,40.4717324179317,-79.9262254529594,0.0,0.03662109375,-0.968307495117188,0.202590942382812,-0.0170689983746449,-0.0062714780510276,-0.00122478778532744
1492617874.3,40.4717323899822,-79.9262254653112,0.0,0.035980224609375,-0.968002319335938,0.201171875,-0.0170916352439105,-0.00733487827429624,-0.000156061239878643
1492617874.5,40.4717323899822,-79.9262254653112,0.0,0.0318756103515625,-0.969589233398438,0.201828002929688,-0.0181323985979135,-0.00413695443732909,-0.000174969683618206
1492617874.7,40.4717323899822,-79.9262254653112,0.0,0.0370941162109375,-0.969528198242188,0.202880859375,-0.0170610088913746,-0.00520781151164995,-0.00122745094641752
1492617874.9,40.4717323899822,-79.9262254653112,0.0,0.034210205078125,-0.969650268554688,0.201934814453125,-0.0170982931466357,-0.00627094541880958,0.000907338983389996
1492617875.1,40.4717323899822,-79.9262254653112,0.0,0.0391845703125,-0.969314575195312,0.199508666992188,-0.018148377564454,-0.00626428751608438,-0.000169643361438047
1492617875.3,40.47173236205,-79.9262254776553,0.0,0.0293731689453125,-0.968963623046875,0.199172973632812,-0.0170836457606403,-0.00627121173491859,-0.000158724400968723
1492617875.5,40.47173236205,-79.9262254776553,0.0,0.0418243408203125,-0.968505859375,0.201446533203125,-0.0170756562773701,-0.00520754519554094,-0.000161387562058802
1492617875.7,40.47173236205,-79.9262254776553,0.0,0.0277252197265625,-0.966659545898438,0.2001953125,-0.0191984619822722,-0.00625762961335919,-0.00124662570626609
1492617875.9,40.47173236205,-79.9262254776553,0.0,0.045654296875,-0.967758178710938,0.200820922851562,-0.0181776723364448,-0.00626375488386637,0.00196248340727939
1492617876.1,40.47173236205,-79.9262254776553,0.0,0.022430419921875,-0.969696044921875,0.199295043945312,-0.0181643565309945,-0.00839162059483968,-0.000164317039257889
1492617876.3,40.4717314281651,-79.9262258903691,0.0,0.04400634765625,-0.966217041015625,0.20172119140625,-0.0181936513029853,-0.00839108796262166,0.00196780972945955
1492617876.5,40.4717314281651,-79.9262258903691,0.0,0.024139404296875,-0.97027587890625,0.200439453125,-0.0170543509886494,-0.00627174436713661,-0.00229085116968616
1492617876.7,40.4717314281651,-79.9262258903691,0.0,0.0407562255859375,-0.969619750976562,0.200347900390625,-0.0160854929840786,-0.00734073722869441,0.00411911125802556
1492617876.9,40.4717314281651,-79.9262258903691,0.0,0.02838134765625,-0.968109130859375,0.197021484375,-0.0159749717988403,-0.00627893490207982,-0.00334599559357556
1492617877.1,40.4717314281651,-79.9262258903691,0.0,0.0374755859375,-0.971694946289062,0.198394775390625,-0.0182003092057105,-0.00732715510713501,0.00303120995272819
1492617877.3,40.4717324987932,-79.9262254172241,0.0,0.036529541015625,-0.971328735351562,0.199295043945312,-0.0159523349295746,-0.00521553467881118,-0.00441472213902435
1492617877.5,40.4717324987932,-79.9262254172241,0.0,0.029541015625,-0.968994140625,0.197662353515625,-0.0160415508260923,-0.00734153617702144,0.000920921104949401
1492617877.7,40.4717324987932,-79.9262254172241,0.0,0.0435943603515625,-0.965682983398438,0.19805908203125,-0.0181350617590036,-0.00839215322705769,-0.00229644380797533
1492617877.9,40.4717324987932,-79.9262254172241,0.0,0.025726318359375,-0.967849731445312,0.198959350585938,-0.0160495403093625,-0.00840520271639908,0.00092358426603948
1492617878.1,40.4717324987932,-79.9262254172241,0.0,0.044219970703125,-0.968231201171875,0.198974609375,-0.0181177512119181,-0.0041372207534381,-0.00124103306797692
1492617878.3,40.4717320612322,-79.9262256105964,0.0,0.026885986328125,-0.970230102539062,0.201324462890625,-0.0181643565309945,-0.00839162059483968,-0.000164317039257889
1492617878.5,40.4717320612322,-79.9262256105964,0.0,0.0399322509765625,-0.968185424804688,0.2030029296875,-0.0170836457606403,-0.00627121173491859,-0.000158724400968723
1492617878.7,40.4717320612322,-79.9262256105964,0.0,0.03118896484375,-0.969833374023438,0.200942993164062,-0.0170836457606403,-0.00627121173491859,-0.000158724400968723
1492617878.9,40.4717320612322,-79.9262256105964,0.0,0.0396270751953125,-0.968093872070312,0.202285766601562,-0.0170530194081044,-0.0041441449722723,-0.0012301141075076
1492617879.1,40.4717320612322,-79.9262256105964,0.0,0.0313873291015625,-0.970550537109375,0.197174072265625,-0.0170982931466357,-0.00627094541880958,0.000907338983389996
1492617879.3,40.4717320332824,-79.9262256229483,0.0,0.0377960205078125,-0.969955444335938,0.19970703125,-0.0170769878579151,-0.00733514459040525,-0.00122212462423736
1492617879.5,40.4717320332824,-79.9262256229483,0.0,0.0341949462890625,-0.969467163085938,0.198760986328125,-0.0171289194991716,-0.00839801218145587,0.00197872868992887
1492617879.7,40.4717320332824,-79.9262256229483,0.0,0.0373382568359375,-0.970382690429688,0.199493408203125,-0.0170836457606403,-0.00627121173491859,-0.000158724400968723
1492617879.9,40.4717320332824,-79.9262256229483,0.0,0.0332183837890625,-0.9705810546875,0.201309204101562,-0.0192197672709929,-0.00519343044176352,0.000882837901361267
1492617880.1,40.4717320332824,-79.9262256229483,0.0,0.0352020263671875,-0.968521118164062,0.197555541992188,-0.0203151254273424,-0.0073135729855756,0.00194330864743082
1492617880.3,40.4717320053426,-79.9262256352958,0.0,0.0346527099609375,-0.967117309570312,0.198577880859375,-0.0192210988515379,-0.00732102983662783,-0.000177899160817293
1492617880.5,40.4717320053426,-79.9262256352958,0.0,0.034088134765625,-0.96551513671875,0.1995849609375,-0.0181403880811837,-0.00520062097670674,-0.000172306522528127
1492617880.7,40.4717320053426,-79.9262256352958,0.0,0.0328369140625,-0.967941284179688,0.198287963867188,-0.0160122560541014,-0.00734206880923945,-0.00121120566376804
1492617880.9,40.4717320053426,-79.9262256352958,0.0,0.0364532470703125,-0.968307495117188,0.202713012695312,-0.0170916352439105,-0.00733487827429624,-0.000156061239878643
1492617881.1,40.4717320053426,-79.9262256352958,0.0,0.0347747802734375,-0.968719482421875,0.195999145507812,-0.0181723460142647,-0.00945528713421733,-0.00016165387816781
1492617881.3,40.4717320609202,-79.9262256107342,0.0,0.0365447998046875,-0.9681396484375,0.197219848632812,-0.0192210988515379,-0.00732102983662783,-0.000177899160817293
1492617881.5,40.4717320609202,-79.9262256107342,0.0,0.0354766845703125,-0.968917846679688,0.198455810546875,-0.0192357462375333,-0.00732076352051882,0.000888164223541426
1492617881.7,40.4717320609202,-79.9262256107342,0.0,0.0350799560546875,-0.968185424804688,0.198150634765625,-0.0191758251130065,-0.00519422939009055,-0.00231535225171489
1492617881.9,40.4717320609202,-79.9262256107342,0.0,0.0346832275390625,-0.96734619140625,0.195571899414062,-0.0170916352439105,-0.00733487827429624,-0.000156061239878643
1492617882.1,40.4717320609202,-79.9262256107342,0.0,0.034881591796875,-0.967208862304688,0.199172973632812,-0.0170849773411853,-0.00839881112978289,-0.00121946146314728
1492617882.3,40.4717320329844,-79.92622562308,0.0,0.035491943359375,-0.96978759765625,0.195892333984375,-0.0181563670477242,-0.00732795405546203,-0.000166980200347968
1492617882.5,40.4717320329844,-79.92622562308,0.0,0.0352783203125,-0.968017578125,0.198165893554688,-0.0192051198849974,-0.00519369675787253,-0.000183225482997452
1492617882.7,40.4717320329844,-79.92622562308,0.0,0.0347900390625,-0.968185424804688,0.199005126953125,-0.018148377564454,-0.00626428751608438,-0.000169643361438047
1492617882.9,40.4717320329844,-79.92622562308,0.0,0.0333404541015625,-0.967819213867188,0.202743530273438,-0.0202778411720813,-0.00625043907841597,-0.000191481282376697
1492617883.1,40.4717320329844,-79.92622562308,0.0,0.0341644287109375,-0.968505859375,0.201065063476562,-0.0170903036633655,-0.00520727887943193,0.000904675822299917
1492617883.3,40.4717325478231,-79.9262253955562,0.0,0.033660888671875,-0.969329833984375,0.199996948242188,-0.0149621716362832,-0.00734872671196465,-0.000134223318939994
1492617883.5,40.4717325478231,-79.9262253955562,0.0,0.03363037109375,-0.96875,0.200271606445312,-0.0170982931466357,-0.00627094541880958,0.000907338983389996
1492617883.7,40.4717325478231,-79.9262253955562,0.0,0.0341796875,-0.970001220703125,0.2005615234375,-0.018148377564454,-0.00626428751608438,-0.000169643361438047
1492617883.9,40.4717325478231,-79.9262253955562,0.0,0.035430908203125,-0.968826293945312,0.195602416992188,-0.0171209300159014,-0.00733434564207822,0.00197606552883879
1492617884.1,40.4717325478231,-79.9262253955562,0.0,0.0339813232421875,-0.968353271484375,0.1990966796875,-0.0170769878579151,-0.00733514459040525,-0.00122212462423736
1492617884.3,40.4717325199099,-79.9262254078919,0.0,0.0352935791015625,-0.967147827148438,0.199935913085938,-0.0170916352439105,-0.00733487827429624,-0.000156061239878643
1492617884.5,40.4717325199099,-79.9262254078919,0.0,0.034515380859375,-0.967117309570312,0.19927978515625,-0.0160428824066373,-0.00946913557188574,-0.00013981595722916
1492617884.7,40.4717325199099,-79.9262254078919,0.0,0.0377960205078125,-0.967941284179688,0.201416015625,-0.018148377564454,-0.00626428751608438,-0.000169643361438047
1492617884.9,40.4717325199099,-79.9262254078919,0.0,0.0342559814453125,-0.968093872070312,0.1990966796875,-0.0181790039169899,-0.00839135427873067,0.00090174634510083
1492617885.1,40.4717325199099,-79.9262254078919,0.0,0.039794921875,-0.968780517578125,0.203048706054688,-0.0203071359440722,-0.00624990644619796,0.00194064548634074
1492617885.3,40.4717324920031,-79.9262254202249,0.0,0.03204345703125,-0.9700927734375,0.196746826171875,-0.0202046042421042,-0.00625177065896101,-0.00552179820417029
1492617885.5,40.4717324920031,-79.9262254202249,0.0,0.0326385498046875,-0.948150634765625,0.236083984375,-0.0116707708450542,-0.00417983133087936,-0.00543977284259585
1492617885.7,40.4717324920031,-79.9262254202249,0.0,0.0359039306640625,-0.9610595703125,0.293304443359375,-0.0107338707735644,-0.00950349034994776,0.000980842229476183
1492617885.9,40.4717324920031,-79.9262254202249,0.0,0.0355224609375,-0.93524169921875,0.354629516601562,0.00316889538108529,-0.00533937166949986,-0.00101999069750035
1492617886.1,40.4717324920031,-79.9262254202249,0.0,0.013519287109375,-0.925918579101562,0.370498657226562,-0.0247005527943759,-0.0221769413454168,0.00300298044517335
1492617886.3,40.4717327490112,-79.9262253066447,0.340000003576279,0.030853271484375,-0.920013427734375,0.380035400390625,-0.0172807196813062,-0.016905746599823,0.00839641428480182
1492617886.5,40.4717327490112,-79.9262253066447,0.340000003576279,0.0440826416015625,-0.929367065429688,0.386306762695312,-0.0245554105149666,-0.000903344241754878,0.00401578060773048
1492617886.7,40.4717327490112,-79.9262253066447,0.340000003576279,0.0262908935546875,-0.946762084960938,0.368759155273438,-0.0287570797667846,-0.00300431202571839,-0.00135288583376025
1492617886.9,40.4717327490112,-79.9262253066447,0.340000003576279,0.0205078125,-0.910537719726562,0.3941650390625,-0.0278827639809116,-0.0264116337947518,-0.000217313944950466
1492617887.1,40.4717327490112,-79.9262253066447,0.340000003576279,0.0433349609375,-0.933868408203125,0.38037109375,-0.0266595740922382,-0.00727282662089739,-0.00132039526846129
1492617887.3,40.4717216835918,-79.9262301968093,2.02999997138977,0.05230712890625,-0.913955688476562,0.35028076171875,-0.0342218863236272,-0.0178604898506164,0.00076193038787167
1492617887.5,40.4717216835918,-79.9262301968093,2.02999997138977,0.0400238037109375,-0.942031860351562,0.372482299804688,-0.0382384658796847,-0.0167733874936461,-0.0163414227648352
1492617887.7,40.4717216835918,-79.9262301968093,2.02999997138977,0.091522216796875,-0.942718505859375,0.40850830078125,0.0205508151838145,0.00943691132269578,-0.0179395857349918
1492617887.9,40.4717216835918,-79.9262301968093,2.02999997138977,0.0656890869140625,-0.916000366210938,0.378921508789062,-0.0486261257115388,0.000312122479757287,-0.0260877934061982
1492617888.1,40.4717216835918,-79.9262301968093,2.02999997138977,0.120269775390625,-0.91912841796875,0.337722778320312,-0.038919169854309,0.0747019348928316,-0.0720275885261741
1492617888.3,40.4716956295418,-79.9262417109316,3.69000005722046,0.101730346679688,-0.911148071289062,0.423355102539062,-0.0508748989360017,0.0481872367638937,-0.0688829279110085
1492617888.5,40.4716956295418,-79.9262417109316,3.69000005722046,0.09515380859375,-0.902389526367188,0.36419677734375,-0.0162958827101949,-0.0275493362124337,0.00843396485617194
1492617888.7,40.4716956295418,-79.9262417109316,3.69000005722046,0.0747222900390625,-0.90765380859375,0.3660888671875,-0.0223274099470063,0.00440007475302892,-0.000239950814216139
1492617888.9,40.4716956295418,-79.9262417109316,3.69000005722046,0.0538330078125,-0.984054565429688,0.372833251953125,-0.0122241757195727,0.00539210225908343,-0.0374565617836375
1492617889.1,40.4716956295418,-79.9262417109316,3.69000005722046,0.016448974609375,-0.9656982421875,0.375885009765625,0.0201579989230278,-0.0214064888420569,-0.00613565683543356
1492617889.3,40.4716532314763,-79.9262604479998,5.44000005722046,0.0727691650390625,-0.88702392578125,0.397842407226562,0.0571652854307689,0.0102702144277816,0.0304127670164869
1492617889.5,40.4716532314763,-79.9262604479998,5.44000005722046,-0.0312652587890625,-0.964157104492188,0.40570068359375,0.0209843778092794,-0.0160900203579317,0.014117150622401
1492617889.7,40.4716532314763,-79.9262604479998,5.44000005722046,-0.0626678466796875,-0.790557861328125,0.392242431640625,-0.0834898338578751,-0.0600891699915669,-0.00176594211883154
1492617889.9,40.4716532314763,-79.9262604479998,5.44000005722046,0.0318603515625,-0.956283569335938,0.363937377929688,-0.0485201319001536,-0.0337193478259293,0.0251793891583722
1492617890.1,40.4716532314763,-79.9262604479998,5.44000005722046,-0.0342254638671875,-0.9083251953125,0.27191162109375,0.0910761145390748,0.0270601135201861,-0.0257927151574174
1492617890.3,40.4715983664944,-79.9262846945991,7.21999979019165,0.127044677734375,-0.9134521484375,0.364273071289062,-0.0744428093187669,0.0642993613588731,-0.0499739515392279
1492617890.5,40.4715983664944,-79.9262846945991,7.21999979019165,-0.0234222412109375,-0.949752807617188,0.372222900390625,-0.00255823254313012,-0.0297650862393796,0.0149776179706056
1492617890.7,40.4715983664944,-79.9262846945991,7.21999979019165,0.0545806884765625,-0.896774291992188,0.401229858398438,-0.00416704815764698,-0.0286968923261488,-0.0223591015639783
1492617890.9,40.4715983664944,-79.9262846945991,7.21999979019165,0.118240356445312,-0.977188110351562,0.365219116210938,-0.019930298649826,-0.0009376990198169,-0.0225921281593602
1492617891.1,40.4715983664944,-79.9262846945991,7.21999979019165,0.063446044921875,-0.829376220703125,0.376205444335938,-0.0486442352069513,0.0343419948887898,-0.0837513562769209
1492617891.3,40.4715485824901,-79.9263066957511,8.77999973297119,0.044769287109375,-1.00779724121094,0.325698852539062,0.00358781062055475,-0.0425679668638265,0.0257357235100897
1492617891.5,40.4715485824901,-79.9263066957511,8.77999973297119,0.163604736328125,-0.912384033203125,0.355255126953125,-0.0287173986665424,0.127818949150571,-0.0880534267018349
1492617891.7,40.4715485824901,-79.9263066957511,8.77999973297119,0.0500640869140625,-1.0211181640625,0.30908203125,0.0434124552454907,-0.0630319629961044,0.0613813357524733
1492617891.9,40.4715485824901,-79.9263066957511,8.77999973297119,0.15576171875,-0.977005004882812,0.281845092773438,0.0508147114953659,0.0400853680956547,-0.0337020372788438
1492617892.1,40.4715485824901,-79.9263066957511,8.77999973297119,0.083892822265625,-0.871658325195312,0.326141357421875,-0.115567076555662,0.0326602086604048,-0.019393139057957
1492617892.3,40.4714412677699,-79.9263541289618,10.1400003433228,0.03228759765625,-0.96728515625,0.296600341796875,-0.0438737147462924,-0.034817901775587,-0.00355798321634586
1492617892.5,40.4714412677699,-79.9263541289618,10.1400003433228,0.1387939453125,-0.966110229492188,0.297576904296875,-0.0109463910285527,0.0532528354733335,-0.0269048512286345
1492617892.7,40.4714412677699,-79.9263541289618,10.1400003433228,0.05621337890625,-0.953811645507812,0.281234741210938,-0.0180351932181256,0.010754643430067,0.000853809445479404
1492617892.9,40.4714412677699,-79.9263541289618,10.1400003433228,-0.034515380859375,-0.943710327148438,0.31524658203125,0.0275037961577933,0.0689585616859668,-0.02655171606809
1492617893.1,40.4714412677699,-79.9263541289618,10.1400003433228,0.05755615234375,-0.953521728515625,0.35400390625,0.0864145173670001,-0.0473592599809881,0.0404568790677207
1492617893.3,40.4713512603162,-79.9263939123835,10.9499998092651,0.0554046630859375,-0.90679931640625,0.272445678710938,-0.0773499159646974,-0.0314157134830107,-0.0454918514246245
1492617893.5,40.4713512603162,-79.9263939123835,10.9499998092651,0.02197265625,-0.962478637695312,0.273651123046875,-0.0362003486974471,0.0289458978880712,-0.0622857452586642
1492617893.7,40.4713512603162,-79.9263939123835,10.9499998092651,0.0181121826171875,-0.949295043945312,0.25482177734375,-0.0317882897195128,0.0161496751663495,-0.0803331890178042
1492617893.9,40.4713512603162,-79.9263939123835,10.9499998092651,0.0853118896484375,-0.995086669921875,0.25439453125,0.0377511074002002,-0.0364083415785823,0.0228709611254915
1492617894.1,40.4713512603162,-79.9263939123835,10.9499998092651,0.033935546875,-0.973876953125,0.27593994140625,0.0510746360177576,-0.0567013627688771,0.0497150922812722
1492617894.3,40.4712546254559,-79.9264366251284,11.5200004577637,0.102981567382812,-0.953857421875,0.29901123046875,-0.0162625931965689,0.00223678899955755,0.0222182203423131
1492617894.5,40.4712546254559,-79.9264366251284,11.5200004577637,0.12432861328125,-0.920516967773438,0.226791381835938,0.00215076889634799,0.0223258120503523,0.0106265453816342
1492617894.7,40.4712546254559,-79.9264366251284,11.5200004577637,0.0820159912109375,-0.958587646484375,0.229583740234375,0.0321203859074457,0.0274481360910107,0.00239045339445512
1492617894.9,40.4712546254559,-79.9264366251284,11.5200004577637,0.0693206787109375,-0.942520141601562,0.30645751953125,0.00881746005314335,0.0105772769014677,-0.015930230692527
1492617895.1,40.4712546254559,-79.9264366251284,11.5200004577637,0.0967254638671875,-0.967926025390625,0.297470092773438,-0.0520325750618591,-0.0507137776900519,0.0390480668510688
1492617895.3,40.4711540791945,-79.926481066718,12.0600004196167,0.073394775390625,-1.02005004882812,0.27252197265625,-0.0598300444175021,-0.0230123749793747,0.00157925452641699
1492617895.5,40.4711540791945,-79.926481066718,12.0600004196167,0.107254028320312,-0.913665771484375,0.227066040039062,-0.0528064896746362,0.00884888535400629,-0.0272188379211549
1492617895.7,40.4711540791945,-79.926481066718,12.0600004196167,0.129058837890625,-0.960006713867188,0.24261474609375,-0.0117866183524727,-0.0137520312369512,-0.00221761423970898
1492617895.9,40.4711540791945,-79.926481066718,12.0600004196167,0.122085571289062,-1.00839233398438,0.204254150390625,0.0168365044114809,0.0488157427811524,-0.0362048760713002
1492617896.1,40.4711540791945,-79.926481066718,12.0600004196167,0.03363037109375,-0.975051879882812,0.184539794921875,-0.0339262754426284,0.0331971019361647,0.00703047896170018
1492617896.3,40.4710502857497,-79.9265267613226,12.2600002288818,-0.000396728515625,-1.06240844726562,0.173416137695312,0.02372770004817,0.0168631360223817,-0.0125951540594207
1492617896.5,40.4710502857497,-79.9265267613226,12.2600002288818,0.0867767333984375,-0.949478149414062,0.174423217773438,-0.0333768653097451,-0.0295653491576237,0.0103967145795603
1492617896.7,40.4710502857497,-79.9265267613226,12.2600002288818,0.134063720703125,-0.984588623046875,0.11090087890625,-0.0123932864487927,0.016033295026713,-0.01936011586044
1492617896.9,40.4710502857497,-79.9265267613226,12.2600002288818,0.144851684570312,-0.933074951171875,0.218185424804688,-0.0402209229951397,0.0821598512094895,-0.0507358819270996
1492617897.1,40.4710502857497,-79.9265267613226,12.2600002288818,0.0932464599609375,-0.992568969726562,0.225006103515625,-0.0415538351207244,0.0119725069965602,0.00807337284457521
1492617897.3,40.4709471331211,-79.9265717344212,11.8199996948242,0.0242919921875,-0.994613647460938,0.210769653320312,-0.04927274122421,0.0481829757061496,-0.030482808153156
1492617897.5,40.4709471331211,-79.9265717344212,11.8199996948242,0.08782958984375,-0.976669311523438,0.226226806640625,-0.00470234353675291,-0.00634711182598585,0.0287560145023486
1492617897.7,40.4709471331211,-79.9265717344212,11.8199996948242,0.070953369140625,-0.899642944335938,0.172195434570312,-0.103552757929987,0.0123661222056739,-0.0522703953472032
1492617897.9,40.4709471331211,-79.9265717344212,11.8199996948242,-0.047882080078125,-0.968826293945312,0.229888916015625,-0.0247346412563289,0.0331294576444767,-0.0419210850350463
1492617898.1,40.4709471331211,-79.9265717344212,11.8199996948242,0.0021514892578125,-0.883941650390625,0.161895751953125,-0.0406515561434055,-0.0252648766293637,-0.000351004631672444
1492617898.3,40.4708429739658,-79.9266171463513,11.5100002288818,0.088531494140625,-1.07154846191406,0.192794799804688,0.0505989954470695,0.0113663715324582,-0.0336301319294116
1492617898.5,40.4708429739658,-79.9266171463513,11.5100002288818,0.0320587158203125,-0.929367065429688,0.191574096679688,-0.0530839910602224,-0.0411327893523828,0.0432774329782237
1492617898.7,40.4708429739658,-79.9266171463513,11.5100002288818,0.079437255859375,-0.91839599609375,0.220977783203125,-0.0274731698052574,-0.0317257054338959,0.0445815829640355
1492617898.9,40.4708429739658,-79.9266171463513,11.5100002288818,0.0371246337890625,-0.988372802734375,0.220565795898438,-0.0348437344381607,-0.0284873015483596,0.0402329072200451
1492617899.1,40.4708429739658,-79.9266171463513,11.5100002288818,0.0114288330078125,-0.961761474609375,0.267303466796875,-0.0131363083929248,-0.0126761141565592,0.019090071325906
1492617899.3,40.4707482694013,-79.9266584362125,11.3500003814697,0.0518341064453125,-0.961410522460938,0.204376220703125,0.00832397630315167,0.0690834639410915,-0.0256821939721791
1492617899.5,40.4707482694013,-79.9266584362125,11.3500003814697,0.005096435546875,-0.955276489257812,0.207778930664062,-0.000905474770626941,-0.0191321492711292,0.0554832328862748
1492617899.7,40.4707482694013,-79.9266584362125,11.3500003814697,0.009033203125,-0.944869995117188,0.189407348632812,-0.0104475809563809,-0.00844488381664126,-0.0192770252344296
1492617899.9,40.4707482694013,-79.9266584362125,11.3500003814697,0.05548095703125,-0.958175659179688,0.207855224609375,-0.0618591068520335,0.0599645340525512,-0.0381055741412898
1492617900.1,40.4707482694013,-79.9266584362125,11.3500003814697,0.069610595703125,-0.98345947265625,0.175033569335938,0.02816505905646,-0.00231641751615092,-0.0359569357738138
1492617900.3,40.4706731544911,-79.9266911852592,11.3000001907349,0.017578125,-0.967788696289062,0.213699340820312,0.0285741205998962,-0.083148682922236,0.0452881196012335
1492617900.5,40.4706731544911,-79.9266911852592,11.3000001907349,-0.0156707763671875,-0.939071655273438,0.279067993164062,0.0184687558435905,-0.0362815751106945,0.0312029269119134
1492617900.7,40.4706731544911,-79.9266911852592,11.3000001907349,0.002288818359375,-0.866134643554688,0.204330444335938,-0.0791595339254063,-0.0909562722900213,0.0538011803417808
1492617900.9,40.4706731544911,-79.9266911852592,11.3000001907349,0.0165252685546875,-0.962081909179688,0.208282470703125,-0.0275964741637281,0.0214546920577874,0.00499316072778956
1492617901.1,40.4706731544911,-79.9266911852592,11.3000001907349,-0.133209228515625,-0.976486206054688,0.237701416015625,0.0503702299094317,-0.187537407118399,0.0297874567925363
1492617901.3,40.4705519293639,-79.9267445980454,11.5799999237061,0.086029052734375,-0.899505615234375,0.194412231445312,-0.0118377510454022,-0.0413977738808457,0.063958476739343
1492617901.5,40.4705519293639,-79.9267445980454,11.5799999237061,0.0185089111328125,-1.01925659179688,0.222549438476562,-0.0488431733403803,0.0162732458409292,-0.00160828298229885
1492617901.7,40.4705519293639,-79.9267445980454,11.5799999237061,-0.013519287109375,-1.00045776367188,0.239898681640625,-0.00994291192981084,0.0372898478993985,-0.0311182383892489
1492617901.9,40.4705519293639,-79.9267445980454,11.5799999237061,0.0672607421875,-0.91314697265625,0.24652099609375,-0.0598894329098109,0.050379284657138,-0.0316633874643881
1492617902.1,40.4705519293639,-79.9267445980454,11.5799999237061,0.0792236328125,-0.919113159179688,0.259597778320312,0.0311749637204676,-0.0555119950260477,0.0260515744153731
