,avgSpeed,sdSpeed,maxAccelX,maxAccelY,maxAccelZ,maxGyroX,maxGyroY,maxGyroZ,meanAccelX,meanAccelY,meanAccelZ,meanGyroX,meanGyroY,meanGyroZ,sdAccelX,sdAccelY,sdAccelZ,sdGyroX,sdGyroY,sdGyroZ,condition
0,0.915999984741,0.698207199778,0.195983886719,-0.928192138672,0.315994262695,0.00137791954801,0.560717648556,0.00512019351179,0.118969726563,-0.94585723877,0.29019317627,-0.0185142160034,0.245936082345,-0.0610653250575,0.0605371314416,0.00829300812557,0.0264489466811,0.0104755434388,0.19862556822,0.0436396192975,0.0
1,2.70000001192,0.392598187178,0.242172241211,-0.922241210938,0.254821777344,-0.0151928013867,0.691732923647,-0.101355117398,0.20280456543,-0.969853210449,0.123431396484,-0.0452045496062,0.648500764407,-0.147141487808,0.0235570632839,0.0234729964397,0.0611590986881,0.0188746437373,0.0355576517981,0.0190194076615,0.0
2,3.27700009346,0.136711410099,0.33561706543,-0.870376586914,0.225875854492,0.0171526216329,0.762202829251,-0.040848363748,0.240061950684,-0.981700134277,0.084797668457,-0.04649692842,0.639787327426,-0.143080619883,0.0965638430105,0.0572110131499,0.0679639258605,0.0412607221809,0.139619540967,0.0675596362388,0.0
3,4.26900005341,1.69477919505,0.0807189941406,-0.900390625,0.447692871094,0.0161454141086,0.299993911521,0.0763751990057,0.00117034912109,-0.939141845703,0.377699279785,-0.0338752492761,0.0446816112946,-0.0136831885228,0.0654969680216,0.034486749348,0.0508379499702,0.0473975308453,0.11938448254,0.0440840583253,0.0
4,9.17000007629,1.09020893369,0.118194580078,-0.869338989258,0.413269042969,0.0169864403809,0.0871948235664,0.0930868011621,0.0204071044922,-0.944236755371,0.31824798584,-0.0269799523714,-0.0347133460712,0.00706360868566,0.0898243341221,0.042093697196,0.0477836759064,0.0367452038043,0.067636647876,0.0503414707777,0.0
5,11.2039997101,0.324934290211,0.162506103516,-0.895446777344,0.268798828125,0.0505252258849,0.0857473955139,0.0637166617124,0.0798416137695,-0.958572387695,0.228385925293,-0.0334238168398,0.0174485254616,-0.00710438168195,0.0390303209336,0.0364651545887,0.036796996665,0.0459214824429,0.0497804889625,0.0383077035198,0.0
6,11.9730000496,0.173079832573,0.146484375,-0.921691894531,0.30842590332,0.0599538814082,0.124735008608,0.0694198211868,0.0245788574219,-0.964912414551,0.226243591309,-0.00436225786555,-0.00592777048074,0.00423549139766,0.0636940843272,0.0333580917079,0.0476634478138,0.0377588937445,0.0625740780012,0.03858804582,0.0
7,12.5470001221,0.187974743673,0.0676727294922,-0.870300292969,0.211959838867,0.0439890296215,0.0844192770783,0.0595805062234,-0.00496978759766,-0.969129943848,0.188479614258,-0.0124122747874,-0.0417201495308,0.0203452724109,0.0408532958559,0.0648519376333,0.019528591187,0.036778885503,0.0695603178293,0.0293615799331,0.0
8,12.7510000229,0.00316235003895,0.106063842773,-0.906234741211,0.251312255859,0.0716233206727,0.0825140516345,0.0765501686893,0.0198486328125,-0.982063293457,0.191596984863,-0.0023663784182,-0.0090267312516,-0.00319957499684,0.0667468146293,0.0709278177356,0.0357175346886,0.0579721263523,0.0619745260189,0.0344143860314,0.0
9,12.7539999962,0.0189738433344,0.0381011962891,-0.787216186523,0.250106811523,0.0750207152753,0.101503721787,0.0618865374113,-0.0200241088867,-0.971022033691,0.214436340332,0.00645297247932,0.00251042880156,-0.00324567431531,0.0675911045388,0.0700827344392,0.0286555138851,0.0575302095798,0.0598352206684,0.0471996012215,0.0
10,12.7800000191,0.0459469813847,0.173431396484,-0.804443359375,0.2744140625,0.0682461660944,0.0766063613883,0.113725500662,0.0459426879883,-0.944328308105,0.18159942627,-0.0168902203707,-0.0392454337195,0.0143222406579,0.109207108062,0.0642218495306,0.0544895827646,0.0432582291596,0.107017197743,0.0574667500665,0.0
11,12.5559999466,0.0864353659651,0.124282836914,-0.843902587891,0.264465332031,0.0870874981745,0.125848742576,0.0077194387357,0.021208190918,-0.989842224121,0.167337036133,-0.0324489933544,0.0465829751548,-0.0389427654616,0.055454673855,0.0774378071282,0.0472934302862,0.0704976606067,0.0506950758938,0.0306979843787,0.0
12,12.2509997368,0.159614121962,0.113708496094,-0.904327392578,0.214828491211,0.0449938403008,0.0938623136715,0.0347507901161,0.0320251464844,-0.963655090332,0.171675109863,-0.0252121194082,0.001864558974,-0.00868603305335,0.0458480385784,0.034223670098,0.0353287827249,0.0343006398895,0.0509066739922,0.0290442928815,0.0
13,11.7290001869,0.178664772493,0.117965698242,-0.754989624023,0.327590942383,0.0340181545002,0.0880648782945,0.0512530678108,0.0418273925781,-0.940028381348,0.175115966797,-0.0235001063014,-0.0156945941993,0.0121679830206,0.0530236876382,0.0905583333669,0.0580193486001,0.0535813269701,0.0525944501035,0.0340551071379,0.0
14,10.8479998589,0.591698093121,0.123260498047,-0.897369384766,0.142456054688,0.0746630527409,0.0968652941167,0.0239431497804,0.0434204101563,-0.986267089844,0.0803894042969,-0.00565703352432,0.0165223046661,-0.0133216111416,0.0491641699659,0.0577256117348,0.0456250330973,0.0477114955084,0.0375888468635,0.0292246962098,0.0
15,8.73899989128,0.784438284012,0.0843048095703,-0.935287475586,0.122482299805,0.0639638030615,0.0521103393657,0.0122289694095,0.0308685302734,-0.98842010498,0.0875839233398,-0.012488680879,0.00944063974822,-0.0082554531683,0.0412981630889,0.0323658051485,0.0341181302547,0.0365605107704,0.0261005281192,0.0185864107679,0.0
16,6.32599983215,0.800238845626,0.0770874023438,-0.953750610352,0.115325927734,0.0242291732814,0.0286705270314,0.033125729219,0.0226974487305,-0.989865112305,0.0629302978516,-0.0106399677135,-0.0101409978517,0.00929991831622,0.0403700532911,0.0291977519472,0.035192370844,0.0198897599237,0.0225577310305,0.0184380196971,0.0
17,3.69499989748,1.0924106545,0.0394744873047,-0.974807739258,0.100402832031,0.0171022878883,0.0138748029632,0.0234541934042,0.0140441894531,-1.00218658447,0.0631118774414,-0.00528368497111,-0.0165590829207,0.00350714347114,0.025499849873,0.0182800095547,0.0214655370319,0.0108786922574,0.0167042779633,0.0138322636142,0.0
18,1.10599998832,0.70758116603,0.0339660644531,-0.955474853516,0.232696533203,-0.00442670636393,0.00975728960183,0.032967004818,0.0205047607422,-0.98203125,0.134092712402,-0.0179815038905,-0.00615845349436,0.00324367694449,0.00955853169632,0.0217949904091,0.0718415138002,0.0121266170233,0.0110579596051,0.0137528590707,0.0
19,0.143000002205,0.124011649971,0.0240325927734,-0.949676513672,0.248825073242,-0.0130071450801,-0.00521473573048,0.00737402674232,0.0161041259766,-0.964204406738,0.20961151123,-0.0168249462923,-0.00967638276792,0.00241162552512,0.00603755146219,0.00839482572922,0.0268293807445,0.0023419736778,0.00378223205376,0.00258625560618,0.0
20,0.913999998569,0.794987091427,0.0381774902344,-0.908187866211,0.476425170898,0.0783941414281,0.0581304150098,0.0660378729185,0.00052490234375,-0.939707946777,0.389077758789,0.00944332954092,-0.0233547776007,0.0130581446149,0.0459197849203,0.0256059182044,0.0513018103817,0.0335205906414,0.0467569404199,0.0325096469615,0.0
21,4.3900001049,1.39355657219,0.105667114258,-0.74201965332,0.466873168945,0.0711820348801,0.0496104300504,0.0669422824247,0.0387451171875,-0.914758300781,0.404745483398,-0.0227664320527,0.00493374560387,-0.00674972851958,0.0366172829517,0.0766971813915,0.0536767394116,0.0652708228141,0.025039987056,0.0391121964892,0.0
22,8.10699968338,1.02941238441,0.0648498535156,-0.741546630859,0.500610351562,0.152413241817,0.0811782100317,0.202541923016,-0.00564270019531,-0.933335876465,0.297998046875,-0.0103804160337,-0.0408811738926,0.0279340298319,0.0911303180023,0.0789491834893,0.0936406497861,0.0800577903837,0.08567395329,0.0755587016102,0.0
23,9.75699977875,0.095457800915,0.162490844727,-0.888137817383,0.315460205078,0.0686184760148,0.0595911588677,0.099062402016,0.0102462768555,-0.975129699707,0.138447570801,0.00723386457415,-0.0257899721015,-0.00572355928835,0.0744297333324,0.0611360971757,0.0770313414653,0.0351119051653,0.0793466019274,0.0524016170358,0.0
24,9.15699996948,0.328432492072,0.121307373047,-0.887420654297,0.200897216797,0.121639350157,0.0946016071901,0.0701913389546,-0.00267486572266,-0.983992004395,0.136676025391,-0.000218911841605,-0.026804077213,0.0013463877207,0.0747403366499,0.0591020998617,0.0433420028099,0.0610466764163,0.0906410863053,0.0557553601059,0.0
25,8.19999995232,0.407703524304,0.278564453125,-0.698120117188,0.286193847656,0.125229557623,0.0382057089983,0.0796647355842,0.108131408691,-0.943020629883,0.155583190918,-0.00750196500109,-0.0320752719586,0.00149866727183,0.0928205209599,0.102720740954,0.0839942284559,0.0809734441446,0.0660231610713,0.0626022390944,0.0
26,6.70100002289,0.803166676362,0.0701446533203,-0.943466186523,0.219055175781,0.0092803174506,0.0142100949444,0.0233940059636,0.0383880615234,-0.991484069824,0.064582824707,-0.0219456458047,-0.0127280191662,0.00140748063611,0.0232918291996,0.0288006987682,0.0888726122304,0.0213736202964,0.014824629968,0.0171585021776,0.0
27,4.67199997902,0.5100283987,0.113784790039,-0.890762329102,0.445678710938,0.0295001017109,0.0434156510388,0.0346522531558,0.038883972168,-0.938055419922,0.334202575684,-0.0196397477749,0.0105524029769,0.00126438899074,0.043277966894,0.0436572524906,0.0847259117308,0.0283663610885,0.0227271998567,0.0226330735847,0.0
28,7.0990000248,0.878185577437,0.0511474609375,-0.876647949219,0.365371704102,0.0591549330812,0.0461680280254,0.0429314883526,-0.0178588867187,-0.93928527832,0.29977722168,-0.00822464039449,-0.0310070247821,0.000422297454054,0.0494073260511,0.0527364957053,0.0599226247259,0.0349177371132,0.0564988056089,0.0374441893349,0.0
29,8.80400009155,0.409259221131,0.159317016602,-0.855682373047,0.305374145508,0.00546427392462,0.116016884464,0.0437868956948,0.015461730957,-0.96324005127,0.245330810547,-0.0223572107196,0.0072691780902,-0.0197593769711,0.0801419353594,0.0767698830435,0.0365272747184,0.0262322731017,0.0727239515914,0.0444343788491,0.0
30,9.66099996567,0.209679945755,0.162948608398,-0.881256103516,0.279556274414,0.0526000946902,0.120369821266,0.0466497938666,0.0608352661133,-0.953828430176,0.227067565918,-0.0383471761154,0.0301377157391,-0.0139046836306,0.068454071882,0.0474798152162,0.043290313412,0.0519378861598,0.0530408198598,0.0449635626617,0.0
31,10.1570000648,0.0979851221483,0.135452270508,-0.85969543457,0.317932128906,0.0710339631235,0.132353779855,0.0541931976542,0.0725128173828,-0.968426513672,0.244119262695,-0.00707775007105,0.0404664930793,-0.00540134342807,0.0480523641935,0.0501901723116,0.0385588799198,0.0381243991512,0.0655034687217,0.0257867260835,0.0
32,10.4289998055,0.0962001596415,0.130981445312,-0.930465698242,0.245529174805,0.0368381757785,0.138410340806,0.0228094421043,0.0605941772461,-0.960507202148,0.21911315918,-0.0276163147138,0.0434697398405,-0.0203331283963,0.0532129210037,0.0233550096928,0.0257408578658,0.0381004062433,0.0538748939119,0.0305032223766,0.0
33,10.6480003357,0.185520112471,0.0937652587891,-0.90071105957,0.283355712891,0.072051556976,0.0513329626435,0.045502504069,0.000408935546875,-0.96283416748,0.237881469727,-0.0361090555353,-0.0102967395122,-0.0050344663563,0.0575098214646,0.0529663713905,0.0221471425862,0.080783098188,0.0510203500367,0.0377677657548,0.0
34,11.3310001373,0.294861663625,0.0392150878906,-0.856460571289,0.23828125,0.0952093405509,0.0589083243642,0.0618569763232,-0.00165710449219,-0.963792419434,0.219132995605,-0.0120052372464,-0.00832634651652,-0.00660533192528,0.0453594756709,0.0482413557252,0.015493864962,0.0461568269599,0.0309583701441,0.0383784595061,0.0
35,11.7340001106,0.0648416682021,0.130554199219,-0.909942626953,0.224151611328,0.110381901913,0.0945502081811,0.0801883130545,0.0239334106445,-1.00263671875,0.187911987305,-0.00905871581629,-0.024938080132,0.00242390269775,0.0697150882758,0.110140989618,0.0285960463796,0.0680466534244,0.0579130180369,0.0505457834773,0.0
36,11.5210000038,0.0328128496757,0.0983123779297,-0.927139282227,0.233734130859,0.0427525239274,0.0172839154746,0.0527460359179,0.033203125,-0.962879943848,0.193771362305,-0.00815180293868,-0.0129235484534,0.00496109626827,0.0325422208469,0.0258049668874,0.0229798477798,0.0281644237446,0.0232119260215,0.0300480127543,0.0
37,11.4550003052,0.122133972984,0.158020019531,-0.906661987305,0.235961914062,0.0159784339083,0.102382564947,0.0815499873199,0.053825378418,-0.980670166016,0.18190612793,-0.0182615352792,0.00969121657519,-0.00650264043365,0.0703460097855,0.0490414588644,0.0344032982404,0.0342186496092,0.0790963736017,0.047629780802,0.0
38,11.0719999313,0.079554238212,0.125366210938,-0.895523071289,0.22981262207,0.0438790410685,0.0913357727454,-0.00609277994188,0.0253189086914,-0.940168762207,0.198316955566,-0.025708692425,0.0469642865597,-0.0410071680438,0.0785967478567,0.0309866376303,0.0219501797782,0.0435155097833,0.0402894500512,0.0240942170633,0.0
39,11.1420000076,0.0586515692734,0.0868988037109,-0.907562255859,0.237945556641,0.0351689064073,0.0289429684109,0.0442236541135,0.00333709716797,-0.97022857666,0.205404663086,-0.0134961014562,-0.0166118934051,0.00438279083755,0.0490047603373,0.037157082043,0.0220453416452,0.041425096083,0.0350638540479,0.0242158344934,0.0
40,11.0710000038,0.223032074181,0.0838623046875,-0.923583984375,0.186447143555,0.0393950767411,0.042612441654,0.0523393712194,0.01748046875,-0.98166809082,0.141184997559,-0.00600774520828,-0.015808710652,0.0101083208651,0.0395309350046,0.0320005884579,0.0301441187775,0.0198498079161,0.0317931186782,0.0183733311263,0.0
41,9.99900007248,0.470565999676,0.0992126464844,-0.847229003906,0.16877746582,0.0291360475899,0.0759261900459,0.0362141971351,0.0284545898437,-0.97160949707,0.128123474121,-0.0177645627882,-0.00679819805142,0.00260782060263,0.043794926711,0.0614547843467,0.0275867203565,0.0327567408252,0.0413910633051,0.0294637402387,0.0
42,8.64199991226,0.481636009499,0.0842590332031,-0.895858764648,0.256484985352,0.0248049487091,0.0783416771546,0.0204986172264,0.029460144043,-0.967582702637,0.192810058594,-0.0153921389943,-0.0122406606867,-0.0102550344096,0.0384359066753,0.0424182438855,0.0499651403029,0.0401915245992,0.0506182852227,0.0266584300199,0.0
43,8.13700013161,0.338954310698,0.102127075195,-0.971115112305,0.264999389648,-0.00921107526226,0.0716699259918,0.0413426464463,0.0364028930664,-0.998704528809,0.0779998779297,-0.0333122570217,0.00479086701139,0.00113927368272,0.0379273579098,0.0222982042897,0.162485593804,0.0212125147057,0.0375454044242,0.0275738121454,0.0
44,5.58099999428,1.49031283732,0.054443359375,-0.988632202148,0.0825500488281,0.00168871044722,0.0138476387201,0.0256489044586,0.0277359008789,-1.00351104736,0.0266067504883,-0.0121437748863,-0.0148118361927,0.00769725460382,0.0144262255583,0.0147471149847,0.0441518650928,0.0107114506729,0.0185450856265,0.0135814904957,0.0
45,1.86000002623,1.06018864761,0.036865234375,-0.958694458008,0.231231689453,0.00825553306314,0.0107253486581,0.00760305859607,0.0289459228516,-0.993406677246,0.0894302368164,-0.0133501602285,-0.00576366649437,-0.000335052296743,0.00540388577859,0.0169923886626,0.0758599545567,0.00993818663867,0.0100239983286,0.00390053023598,0.0
46,0.0750000029802,0.0790569446456,0.03271484375,-0.953994750977,0.208572387695,-0.0149608400557,-0.00520088729282,0.000926513743239,0.0295532226562,-0.964797973633,0.204768371582,-0.0179347654134,-0.0063720656454,-0.000273799591671,0.00277641763103,0.00490636443688,0.00265118794843,0.00199718116959,0.00104992625037,0.000791723263395,0.0
47,0.0,0.0,0.0316314697266,-0.962814331055,0.207061767578,-0.0138734713827,-0.00415106919111,0.000888164223541,0.0284072875977,-0.966743469238,0.203175354004,-0.0165454209043,-0.00627478037078,-0.000579690274478,0.00209057228268,0.00314226719599,0.00236377254263,0.0026730390125,0.00141076308549,0.000744963113546,0.0
48,0.0,0.0,0.0295715332031,-0.96484375,0.205871582031,-0.0138827924465,-0.00518650622293,0.000885501062451,0.028401184082,-0.967900085449,0.203460693359,-0.0171885210444,-0.00605778600516,-0.000160348929234,0.000914510939799,0.00186305933412,0.00169075217067,0.00197986085587,0.000677546054931,0.000991726731383,0.0
49,0.0,0.0,0.0303039550781,-0.963455200195,0.209686279297,-0.0138894503492,-0.00519369675787,0.00302029099226,0.0289138793945,-0.966528320313,0.203829956055,-0.0176258653586,-0.00679947636875,0.000263573053085,0.00085804066238,0.00200467428717,0.00262450974733,0.00196937872947,0.000899881866994,0.00124369621037,0.0
50,0.0,0.0,0.0400695800781,-0.956100463867,0.252288818359,-0.0083460805402,0.00537132960258,0.00306103735694,0.0283721923828,-0.963780212402,0.221199035645,-0.015582501749,-0.00585557218359,-0.000677534812927,0.00581146984446,0.00388324140301,0.0204059582443,0.00402364723669,0.00514645314503,0.00351008753789,0.0
51,0.401000005007,0.397784149384,0.0398864746094,-0.933456420898,0.337554931641,-0.0116814234894,0.00440566739132,0.00297368567318,0.0297424316406,-0.94853515625,0.279098510742,-0.0188834366569,-0.00625962698418,-0.000923531002818,0.00601011141234,0.00960721924748,0.0368067654569,0.00428564799528,0.00648725464915,0.00247090019881,0.0
52,1.99799997807,0.764559389066,0.0337677001953,-0.924301147461,0.346817016602,-0.00230656382012,0.00647893829994,0.0245143978342,0.0227600097656,-0.940544128418,0.326148986816,-0.0139870552032,-0.0124603182134,0.00362070066002,0.0102923072813,0.00973181766955,0.011546707119,0.00810455013801,0.0130589299414,0.0101211241762,0.0
53,3.99100005627,0.452412096793,0.0561370849609,-0.93701171875,0.271438598633,1.73105470855e-05,0.0234808250151,0.0114715663955,0.0281890869141,-0.976161193848,0.16300201416,-0.0215340808899,-0.00475318328196,-0.000954556829517,0.0205761917441,0.0227561545387,0.0661816176236,0.0127159331529,0.01964835731,0.00788940661055,0.0
54,3.41100006104,0.519710376564,0.0473937988281,-0.956878662109,0.211654663086,0.00207753196637,0.00973252220369,0.00960761994857,0.0310409545898,-0.984814453125,0.123239135742,-0.0187216229891,-0.00955789873102,0.0010058226805,0.00735674822222,0.0160964110072,0.0499568228966,0.0119768577789,0.0108995076882,0.00481961763591,0.0
55,1.46400003433,0.869191236442,0.0363006591797,-0.947174072266,0.250595092773,-0.00530768005253,0.00216195417293,0.00521207256939,0.0246551513672,-0.985406494141,0.127897644043,-0.0167575683168,-0.00616702887307,-0.00058214038268,0.00552455176332,0.0214750821313,0.085411250883,0.00477315559563,0.00546824291944,0.00413000796904,0.0
56,0.0159999996424,0.0505964414318,0.0591583251953,-0.95768737793,0.24755859375,0.0136564237538,9.58737992429e-05,0.0127501500349,0.0258850097656,-0.963656616211,0.229106140137,-0.013731631423,-0.010122089408,0.0018047177443,0.0149003777986,0.00539459903634,0.0178812364292,0.0102311986126,0.00735926019361,0.00497312244262,0.0
57,0.463999998569,0.415323154986,0.0331878662109,-0.921905517578,0.360488891602,-0.00864035984065,0.000103064334186,0.00836072792619,0.024983215332,-0.940701293945,0.313876342773,-0.0160928166771,-0.0120213760026,0.00210530873654,0.00486898079112,0.0133061789006,0.0402531487965,0.00545580005772,0.00691002071551,0.00403144206164,0.0
58,2.57999994755,0.970738540791,0.0716247558594,-0.91682434082,0.379516601562,0.0439450874635,0.0653864637158,0.0208789166301,0.0147216796875,-0.947540283203,0.337841796875,-0.0176054921762,-0.00350203020184,0.000575136269014,0.0348210275217,0.0179481170776,0.035213081466,0.0296955550325,0.0347678924669,0.0138987996711,0.0
59,4.78599996567,0.431488397204,0.0648040771484,-0.91569519043,0.348602294922,0.0279301682483,0.0308902717999,0.0329134752801,0.00576171875,-0.945979309082,0.275276184082,-0.0212639031973,-0.0304961239586,0.00412584905558,0.0436680016111,0.023539879223,0.0466456283085,0.0202891405942,0.0318707817988,0.0255106453154,0.0
60,6.45399985313,0.690268880955,0.10661315918,-0.870742797852,0.359664916992,0.070825171294,0.0553375579746,0.0755506843322,0.0296127319336,-0.968252563477,0.268342590332,-0.015225904479,-0.052550959368,0.0254622434977,0.0649163214638,0.0429594688555,0.0565182559969,0.0481071888437,0.0653656849023,0.045044490984,0.0
61,7.507999897,0.222050956537,0.174942016602,-0.854705810547,0.370910644531,0.021074126338,0.171287597095,0.00614124947372,0.0903350830078,-0.948062133789,0.321841430664,-0.0182980472177,0.0843627648,-0.0174644777965,0.0582873278491,0.0533065449753,0.0371091399269,0.0316505811382,0.0538567885436,0.0215033801807,0.0
62,8.74100008011,0.585385506246,0.47038269043,-0.776504516602,0.344619750977,0.197218263997,0.482678772817,0.166120531948,0.0846725463867,-0.916793823242,0.261854553223,-0.0194590789265,0.0624544298821,-0.0378911364103,0.15497437594,0.0798365799602,0.0509808453135,0.123337596211,0.206357660754,0.11910011123,0.0
63,10.1049996376,0.174499297147,0.0980529785156,-0.904449462891,0.321044921875,0.0631467452391,0.106586098412,0.0364975574751,-0.0648574829102,-0.963545227051,0.24895324707,-0.0117439012486,-0.0252382450185,0.0116732475849,0.0752869165196,0.0470212747191,0.0404303308795,0.0438644085361,0.0619170435268,0.0224428802092,0.0
64,10.663999939,0.289067491452,-0.00592041015625,-0.874740600586,0.365859985352,0.0744979367533,0.0853343392289,0.0573945836006,-0.105780029297,-0.960696411133,0.266320800781,-0.0106890497724,-0.0109986156175,-0.0340932822746,0.0735496447479,0.0511283954299,0.0497394277577,0.0601661320003,0.0758019586753,0.0501563840613,0.0
65,11.0879999161,0.144974915187,0.118133544922,-0.793304443359,0.346618652344,0.104758903588,0.121627365932,0.0508834210515,0.0253662109375,-0.931590270996,0.281762695313,-0.00517321704909,0.0189652489656,-0.0162017399657,0.0630494514818,0.064838725034,0.0390643617398,0.0721359968175,0.0601737276123,0.0541685197588,0.0
66,11.7019997597,0.235315374372,0.111602783203,-0.883087158203,0.282638549805,0.108007960118,0.0365255206665,0.0754172599616,0.0422241210937,-0.96019744873,0.213233947754,0.0161310863019,-0.0175483141076,0.0100196109692,0.0433178038206,0.0441840493719,0.0560127791744,0.0523403262264,0.0476621803314,0.0426949727832,0.0
67,12.0109997749,0.191859420646,0.128128051758,-0.920806884766,0.240646362305,0.00906380245398,0.0999329893764,0.0337457131207,0.049690246582,-0.976034545898,0.165339660645,-0.0239942824733,0.00760316512251,0.00655848692171,0.0548265885504,0.0311334203727,0.0412004472351,0.0215036516381,0.051480235377,0.0189173465605,0.0
68,11.2530000687,0.165196515284,0.0765228271484,-0.887512207031,0.309417724609,0.0856706964745,0.0680922353834,0.112078069212,-0.0413543701172,-0.974356079102,0.19680480957,0.00826562644367,-0.0240892241661,0.0286147071749,0.059450829563,0.0486771475732,0.0432060825423,0.0440298341072,0.0482764337744,0.0399064898837,0.0
69,10.9439998627,0.0925204065862,0.027099609375,-0.909149169922,0.273559570312,0.0936497934165,0.0481539472503,0.0484189317787,-0.0189987182617,-0.964204406738,0.210496520996,-0.0210567891593,-0.00688451110235,-0.0058487544912,0.0429752629394,0.0372489349268,0.0384631869032,0.0529151750082,0.0322437587265,0.0314887574709,0.0
70,10.6229998589,0.0679950692502,0.13346862793,-0.908828735352,0.307815551758,0.0377143557772,0.0640468936875,0.0354605225466,0.0349700927734,-0.945446777344,0.25457611084,-0.0304171079691,-0.00480250502535,-0.00552347599566,0.043457037084,0.0180548063618,0.0293811886891,0.0420398901223,0.0459318756531,0.0253332316694,0.0
71,10.6319998741,0.089666192017,0.0606536865234,-0.861633300781,0.308258056641,0.0464495241526,0.0522544163807,0.0699559155142,0.00206756591797,-0.946992492676,0.265414428711,0.00151480602804,-0.00511518676894,0.00322735176701,0.0400910597148,0.0337330691493,0.0249133436887,0.0388335837496,0.0421916662998,0.0330117197854,0.0
72,10.7259999275,0.0780600859878,0.127319335938,-0.916854858398,0.318420410156,0.0289088799489,0.0946466146125,0.0261261429259,0.0537353515625,-0.971286010742,0.223631286621,-0.0280741387368,0.0137952277098,-0.0186619149175,0.0554659793502,0.0533699670394,0.0480295768311,0.0288415679066,0.0473486589399,0.0332691017828,0.0
73,10.653000164,0.0221358040343,0.0782623291016,-0.764297485352,0.269226074219,-0.000147805440499,0.0288087450919,0.0492335927562,0.0221054077148,-0.94333190918,0.245431518555,-0.0443892494701,-0.00747602581207,0.00233697711977,0.0436504882593,0.0683492917238,0.0115474306567,0.0336060572986,0.0275244479617,0.0279811164134,0.0
74,10.7500000954,0.0459467507622,0.0959167480469,-0.896926879883,0.306854248047,0.051370779531,0.107469202629,0.066911389756,0.0345809936523,-0.959555053711,0.243402099609,-0.0275201745985,0.0123045232897,-0.00553796359199,0.0561834756041,0.0367982171017,0.0318167370479,0.0384241254803,0.070484396608,0.0471265475505,0.0
75,10.9009999275,0.0384276578004,0.125991821289,-0.93359375,0.297103881836,0.0645012289695,0.0649869895523,0.0347467953745,0.0624145507812,-0.987753295898,0.245481872559,-0.0279496625875,0.00656277461106,-0.00840632124406,0.0463281480315,0.0572659031782,0.0405066802943,0.0396940092274,0.0426428445095,0.0358174945108,0.0
76,10.9470001221,0.0290784548923,0.1103515625,-0.869262695312,0.36149597168,0.0537274107796,0.160828564546,0.202153900445,-0.0296051025391,-0.983103942871,0.25705871582,-0.0108131530792,-0.0604511734785,0.0255278105238,0.128594553844,0.0708330395351,0.0442173878311,0.0391055752985,0.157692491177,0.11135214614,0.0
77,10.9539998055,0.0478887143192,0.114135742188,-0.919296264648,0.307891845703,0.0492341253884,0.123709158956,0.0629342249841,0.0378234863281,-0.962147521973,0.23807220459,-0.0115567875504,0.00358392240536,-0.00951025477912,0.0558996600306,0.0281908155316,0.0417488877916,0.0362488770884,0.0663686906007,0.0388612763792,0.0
78,10.8100001335,0.0298143534338,0.0484619140625,-0.886642456055,0.287170410156,0.0108870025362,0.0723263952005,0.0471683113308,-0.0100524902344,-0.95425567627,0.23564453125,-0.0121196200152,-0.0108774151563,0.000330471659668,0.0469279618107,0.0325095593934,0.0248460494883,0.0146922325531,0.0483722590009,0.024292537755,0.0
79,10.7289999962,0.0152388751529,0.109390258789,-0.843612670898,0.311981201172,0.0467715003284,0.0688320615342,0.0707388848747,0.00203552246094,-0.966201782227,0.240452575684,-0.0101043261235,-0.0252494036634,0.00859804221093,0.0743875087932,0.0506268394223,0.0482648890508,0.0275797219122,0.0683184356258,0.0416476421417,0.0
80,10.7080003738,0.196061480319,0.0839996337891,-0.941864013672,0.269973754883,0.00919509629572,0.0863343562182,0.0225122333267,0.0169250488281,-0.992057800293,0.170834350586,-0.0177305275894,0.0224510338848,-0.014953223415,0.0559955401542,0.0318130803843,0.0551131162688,0.0177952087882,0.0410299476191,0.032176714544,0.0
81,9.44199986458,0.795386502599,0.123794555664,-0.918899536133,0.145767211914,0.0364546805815,0.0190152364993,0.0293043593708,0.0286987304687,-0.981468200684,0.0503463745117,-0.0144437606985,-0.0223491946047,0.00822626492276,0.0472230719265,0.0285283339879,0.051965777157,0.0267530567414,0.0254640691662,0.0202943397716,0.0
82,6.29999995232,1.21188572586,0.0616455078125,-0.975509643555,0.0847473144531,0.0248749898458,0.0215324563616,0.0318961477437,0.0303680419922,-0.994595336914,0.0459854125977,-0.019997223888,-0.00667609211544,0.0101547663945,0.0202355512705,0.0201861941759,0.0252369167638,0.0205678880704,0.0175070981603,0.0166525911384,0.0
83,2.9409999609,0.942555053674,0.0324096679688,-0.938827514648,0.316925048828,0.00525308525018,0.0117964720485,0.0191039197636,0.0158218383789,-0.971385192871,0.171726989746,-0.0131751639132,-0.00321121301081,0.00381838710773,0.00873724488505,0.0242138740735,0.0896859975462,0.00945110159915,0.00796356288897,0.00706038677104,0.0
84,2.51199998856,0.799941654716,0.103073120117,-0.855377197266,0.437866210938,0.0686943761058,0.0650604927984,0.068101023815,0.0108154296875,-0.924879455566,0.38150177002,-0.00408174710793,0.00768516385247,-0.0010212157516,0.0367529915432,0.0332495891377,0.0315427540085,0.0282757528011,0.0402652792864,0.0291606036326,0.0
85,5.38499994278,0.996786569189,0.112197875977,-0.899276733398,0.407638549805,0.0479147953844,0.0890361331441,-0.00417503764092,0.0313415527344,-0.93377532959,0.375595092773,-0.00448084842889,0.0237472742822,-0.0174864488755,0.0375574999792,0.0330052466731,0.0199826697199,0.0307029862603,0.0344197208954,0.00998726139499,0.0
86,8.00799999237,0.641591593842,0.161376953125,-0.842193603516,0.412673950195,0.0270438682375,0.164213175975,0.0578188251623,0.0614395141602,-0.940711975098,0.331002807617,-0.0180982036095,0.047767735629,-0.0286698612411,0.0660929332897,0.0506599218118,0.0464404576759,0.0405969186293,0.0708930732998,0.0549614358414,0.0
87,9.75099992752,0.672283923126,0.114273071289,-0.892196655273,0.380920410156,0.060004747785,0.0911030124661,0.0648873873276,-0.00423278808594,-0.962701416016,0.320333862305,-0.0254674899251,-0.0314256204423,0.00728385210781,0.0592519971462,0.0535476182099,0.0548302419602,0.04832828695,0.0783053293517,0.0463268880064,0.0
88,11.3380000114,0.351561907528,0.120483398438,-0.897674560547,0.317932128906,0.0469240994589,0.0631382231236,0.100650977606,0.0467147827148,-0.96515045166,0.255757141113,-0.0254925769026,0.00282460191536,-0.00325369043019,0.0620207171991,0.0393117926626,0.036257097674,0.0457649049534,0.0392538105437,0.0445742268192,0.0
89,12.1019999504,0.248810674666,0.0833740234375,-0.870895385742,0.330230712891,0.0557157268494,0.106370648679,0.0675747831836,0.0156051635742,-0.953024291992,0.270104980469,-0.00999287283186,0.000705577899206,0.0146096223712,0.0419702916699,0.0542909821965,0.0577682963341,0.0483759897126,0.0701438634516,0.0306222740453,0.0
90,12.1319999695,0.27663825181,0.181945800781,-0.918640136719,0.242828369141,0.0813390649615,0.0343965896911,0.0899115141944,0.0521713256836,-0.982647705078,0.192497253418,-0.0164872574661,-0.0246760517123,0.00842459052913,0.0719691125467,0.0652004883621,0.0447086496231,0.0589790834227,0.0425348333616,0.0380102176969,0.0
91,11.7539999962,0.039777119106,0.287490844727,-0.900115966797,0.286819458008,-0.00175582210669,0.0944788354639,0.0713908267095,0.0891799926758,-0.973564147949,0.232429504395,-0.0418316560856,-0.0192972652587,0.0190266081971,0.0861302106917,0.0472822650287,0.0334913733706,0.0378917601996,0.062160743664,0.0356752791495,0.0
92,11.5600002289,0.227547264173,0.101699829102,-0.926040649414,0.231857299805,0.00566054889696,0.0694339359405,0.071438497293,0.0275497436523,-0.964915466309,0.188940429688,-0.0283316930459,-0.0140682283532,0.00816932653865,0.0496164721748,0.0319697992153,0.0358959460221,0.0214384423491,0.0606014801454,0.0301600601486,0.0
93,9.97799992561,1.14714909416,0.0847625732422,-0.966384887695,0.0949096679688,0.0661798194046,0.0108246845667,0.0375511040023,0.0186767578125,-1.00960845947,0.0242202758789,-0.00484594118273,-0.0210300776536,0.00021789984039,0.0454566579602,0.031619829906,0.0453398467002,0.0382332853638,0.0284935828861,0.0220319352918,0.0
94,5.90300016403,1.20053742413,0.109893798828,-0.924560546875,0.202941894531,0.0138002344527,0.0022319953096,0.0211044863744,0.0485580444336,-0.98942565918,0.112823486328,-0.0145759333834,-0.0247948020654,0.0087643299894,0.027857484435,0.0272011358634,0.067184826948,0.0126384008866,0.0139184112105,0.00961901854329,0.0
95,3.33999998569,1.04902073624,0.0523529052734,-0.959365844727,0.220489501953,-0.0054634749763,0.0108443919588,0.0179254709812,0.0328994750977,-0.988439941406,0.107096862793,-0.0171318489764,-0.00722776593525,0.00282864992022,0.0138241923879,0.0125720656255,0.0466779213125,0.00760809104882,0.0124396017905,0.00861252910735,0.0
96,1.1370000124,0.280002006643,0.0488128662109,-0.942916870117,0.355529785156,0.00737988569672,0.00864009352454,0.0106244148528,0.0364303588867,-0.957540893555,0.24232635498,-0.0142380315043,-0.00724680753705,0.00147224871382,0.00953737451795,0.00736121687548,0.0425252060432,0.00909075927691,0.00695702411597,0.00601725767746,0.0
97,1.46399997473,0.684838988366,0.0882873535156,-0.896606445312,0.449325561523,0.0163898922967,-0.00517185883693,0.0499313409618,0.0236587524414,-0.924894714355,0.382218933105,-0.0199672366941,-0.027524861762,0.0121280622358,0.0358519017966,0.0198994259816,0.0459509511092,0.0192473980294,0.0233485739318,0.0175263052025,0.0
98,4.34999990463,1.24391852468,0.0853576660156,-0.869079589844,0.462890625,0.00851865337884,0.0948655264541,0.037594247212,0.0294616699219,-0.906924438477,0.40746307373,-0.014807575135,0.00445677345264,-0.00496106963665,0.0394575584971,0.0274979578073,0.0398595763506,0.0229656389746,0.046935002867,0.0252071976596,0.0
99,7.78900003433,1.13119840893,0.278945922852,-0.831985473633,0.445281982422,0.0722052213709,0.045810365491,0.0987638616578,0.0213623046875,-0.931449890137,0.353921508789,-0.0248283845267,-0.0263234831627,0.0100493851102,0.0960723271134,0.0549225671362,0.0633861603885,0.0454861847488,0.0613364491001,0.0402827206583,0.0
100,10.4679999352,0.626609715843,0.17317199707,-0.854843139648,0.340560913086,0.115459218532,0.114789433517,0.0783832224676,0.0305786132812,-0.944569396973,0.26739654541,0.00590774350934,-0.0209911422384,0.0158946242288,0.0872115002809,0.0468494298354,0.0483112108317,0.0660165067847,0.0839221646092,0.0404250812245,0.0
101,11.6710002899,0.321539771025,0.153030395508,-0.851623535156,0.314102172852,0.05437349366,0.108672685126,0.0744859525284,0.0581481933594,-0.926635742188,0.219299316406,-0.0331183522627,-0.0034015225023,-0.00192961999943,0.0764838554357,0.0617310831232,0.0532377510363,0.0610719936664,0.0713959621925,0.0486144112264,0.0
102,12.2410000801,0.101811409854,0.130111694336,-0.90869140625,0.214721679688,0.106454538254,0.0615616317583,0.0684051568114,0.0369583129883,-0.984893798828,0.181727600098,-0.0147192380816,-0.0153267583895,0.00884505040204,0.0425601661366,0.0760511065175,0.0257231848073,0.0696954636873,0.0585167977934,0.0412579173294,0.0
103,12.2609999657,0.275699096424,0.186370849609,-0.838348388672,0.303146362305,0.0504184331252,0.0783773635133,0.0385191630586,0.0744781494141,-0.955503845215,0.234692382812,-0.0338257411115,0.000749014056585,-0.0179407841575,0.0578578177996,0.0704568465355,0.0469159756266,0.0698104414764,0.0494051010355,0.0365220022462,0.0
104,12.7880002022,0.0597773077158,0.212356567383,-0.855850219727,0.243759155273,0.0442409646606,0.2755128032,0.0275698425528,0.0662048339844,-0.954345703125,0.195233154297,-0.0217437249309,0.0772531100591,-0.0495744507441,0.110245789649,0.0807477012631,0.039856779289,0.0447285959956,0.110068799711,0.0568403166939,0.0
105,12.8490001678,0.0422821066188,0.0205078125,-0.81982421875,0.257202148438,0.0719743253044,0.0721844487144,0.0828482783513,-0.0651977539062,-0.981285095215,0.206301879883,-0.00308945328577,-0.05061111283,0.0112942264985,0.0704234789764,0.0694641162925,0.0320615281914,0.0739035372518,0.0779831418502,0.0449717129005,0.0
106,12.9470001221,0.0670072437885,0.10578918457,-0.882736206055,0.297988891602,0.102749814861,0.153131496363,0.108230600385,-0.00929107666016,-0.961555480957,0.198446655273,-0.0122664400861,-0.00279101945401,0.00766497709141,0.0572800138799,0.059367822509,0.0483782725745,0.0590764221887,0.0921783931572,0.0818807685731,0.0
107,13.0689998627,0.0783792148713,0.250793457031,-0.863494873047,0.254928588867,0.0199143196833,0.218718762425,0.0661486604198,0.0936904907227,-0.953039550781,0.188639831543,-0.0498016183851,0.0271253875985,-0.0267021314065,0.0764985752184,0.0502638913841,0.0478450280062,0.0495118207242,0.0910583682621,0.0760077586773,0.0
108,12.6699999809,0.239443890226,0.0513305664062,-0.933746337891,0.234420776367,0.0464961294717,0.05810165287,0.0558622007094,-0.0219100952148,-0.986381530762,0.147605895996,-0.030781028932,-0.022242401845,0.0114706076575,0.0460796069201,0.0372672704231,0.0511802689761,0.0467017743875,0.0517346493446,0.0389005096733,0.0
109,11.2820000648,0.783096528198,0.135192871094,-0.908615112305,0.114456176758,0.0291267265261,0.04291524307,0.0533385892604,0.0446258544922,-0.996333312988,0.0439498901367,-0.0471317993923,-0.0278849211414,-0.0184296073756,0.0558951797198,0.0582532939249,0.0565781920872,0.0393604112644,0.0784345080797,0.0494789788024,0.0
110,8.45699982643,1.13093918551,0.268264770508,-0.908920288086,0.0962371826172,0.0275400151486,0.139193576482,0.0442058109342,0.141104125977,-1.00739440918,0.0396774291992,-0.0138578119954,0.0495525861916,-0.00304191586031,0.0800351962753,0.0465714130656,0.0413174711921,0.0288389131233,0.0783820109246,0.0350718234219,0.0
111,5.14999985695,0.992023669717,0.39225769043,-0.862701416016,0.0787048339844,0.0383583081287,0.763611375152,-0.0505436016964,0.292456054688,-0.976608276367,0.0383361816406,-0.0296636464335,0.540862051574,-0.119942623595,0.0753688372702,0.052281680025,0.0250553582801,0.0545609213714,0.198548092332,0.0665337864604,0.0
112,3.21999993324,0.33383295953,0.204650878906,-0.936874389648,0.0719909667969,0.0826629223394,0.715595645962,-0.0581525192469,0.137348937988,-1.00522918701,0.0132858276367,-0.0346315870257,0.586632869123,-0.128747939634,0.0461195782735,0.0381235571649,0.0515712518933,0.0545714810474,0.0956382697217,0.0413430773308,0.0
113,2.0530000329,0.390897809574,0.239288330078,-0.881958007812,0.229461669922,0.039543947446,0.386037716864,0.0261522419046,0.0654647827148,-0.975617980957,0.153396606445,-0.00867399556522,0.334156755563,-0.0859284105732,0.0713946487551,0.0564742968721,0.0438983360035,0.0310197966245,0.0569963544748,0.0615945089583,0.0
114,1.31299998164,0.229591437187,0.0546569824219,-0.927017211914,0.200042724609,0.00643419719363,0.218026606858,0.0378869286158,0.0198608398437,-0.967758178711,0.164431762695,-0.0135613755345,0.112627505976,-0.0135439318294,0.0271985071806,0.0199634974776,0.0222707075691,0.014489327597,0.0711729801818,0.032478981346,0.0
115,0.699999988079,0.0,0.0365295410156,-0.981536865234,0.171722412109,-0.0135139446355,0.0373242026775,-0.00451032962216,0.0220718383789,-0.98193359375,0.167854309082,-0.0140409842152,0.0346613079035,-0.00556427562356,0.0204462791496,0.000561058847377,0.00547032376193,0.000745346521557,0.00376590190452,0.00149050472919,0.0
