timestamp,latitude,longitude,speed,accelerometerX,accelerometerY,accelerometerZ,gyroX,gyroY,gyroZ
1493479585.9,40.4624712607269,-79.9277117104083,7.19999980926514,-0.0306854248046875,-0.9515380859375,0.219772338867188,0.0063657539536164,-0.00110494553627388,0.00113424030826475
1493479586.0,40.4624712607269,-79.9277117104083,7.19999980926514,-0.0171966552734375,-0.93426513671875,0.251953125,-0.015897740127228,0.000102531701968051,-0.00549410132883347
1493479586.2,40.4624712607269,-79.9277117104083,7.19999980926514,-0.035125732421875,-0.947799682617188,0.228225708007812,-0.0129845082107903,-0.0158703095680002,0.0063053001968716
1493479586.4,40.4624470370267,-79.9276365247368,6.73999977111816,-0.0448455810546875,-0.952545166015625,0.256942749023438,-0.0414939139961976,0.00239711129718032,-0.00149722916484255
1493479586.6,40.4624470370267,-79.9276365247368,6.73999977111816,-0.0509033203125,-0.935302734375,0.248672485351562,0.0206839732383184,0.011562113872579,-0.0264734191320417
1493479586.8,40.4624470370267,-79.9276365247368,6.73999977111816,0.0168609619140625,-0.950057983398438,0.3870849609375,-0.0494138887619842,-0.00181361270234396,-0.0474146537316617
1493479587.0,40.4624470370267,-79.9276365247368,6.73999977111816,0.012725830078125,-0.91845703125,0.292572021484375,-0.00250896406296365,-0.0329574174380576,0.00965529053208228
1493479587.2,40.4624218913172,-79.9275637698173,6.69000005722046,-0.0719451904296875,-0.90838623046875,0.401260375976562,-0.0267408005054856,-0.0317390212393463,-0.0087215862539005
1493479587.4,40.4624218913172,-79.9275637698173,6.69000005722046,-0.011322021484375,-0.8897705078125,0.369781494140625,-0.000795752533715676,0.0202144579381375,-0.00859002609605058
1493479587.6,40.4624218913172,-79.9275637698173,6.69000005722046,-0.048309326171875,-0.918655395507812,0.40850830078125,-0.0425107089003898,-0.0146178249073359,-0.0142582981601752
1493479587.8,40.4624218913172,-79.9275637698173,6.69000005722046,-0.0272674560546875,-0.925872802734375,0.352096557617188,0.000415453130052361,-0.0149009189312114,-0.0383409975816528
1493479588.0,40.4624218913172,-79.9275637698173,6.69000005722046,-0.0535736083984375,-0.972671508789062,0.3199462890625,-0.0925403205064004,-0.056832656610618,0.0386491253197749
1493479588.2,40.4623905849089,-79.9274766818433,7.82999992370605,-0.0723876953125,-0.932601928710938,0.327606201171875,0.0320151910443876,-0.0119109879753794,-0.0113698336418753
1493479588.4,40.4623905849089,-79.9274766818433,7.82999992370605,0.061370849609375,-0.900070190429688,0.348953247070312,-0.0208831776878563,0.0373644164099207,-0.00990616030676774
1493479588.6,40.4623905849089,-79.9274766818433,7.82999992370605,-0.0561370849609375,-0.93017578125,0.275131225585938,0.0168013506850919,-0.0352123159330277,-0.00186953908523563
1493479588.8,40.4623905849089,-79.9274766818433,7.82999992370605,-0.0750732421875,-0.86590576171875,0.347579956054688,-0.000391484680241648,-0.0170138709400802,0.0192317514958982
1493479589.0,40.4623905849089,-79.9274766818433,7.82999992370605,0.015289306640625,-0.960342407226562,0.337722778320312,0.00286529501681625,-0.0223548405062341,0.0118153804922455
1493479589.2,40.4623570153867,-79.9273878336697,8.97999954223633,0.0492706298828125,-0.900131225585938,0.214981079101562,0.0239247739688358,0.0391996007170943,-0.0147832072110299
1493479589.4,40.4623570153867,-79.9273878336697,8.97999954223633,0.0394287109375,-0.950515747070312,0.325714111328125,-0.00231135751007977,0.0414933813639796,-0.0417130921539111
1493479589.6,40.4623570153867,-79.9273878336697,8.97999954223633,0.0211944580078125,-0.9039306640625,0.283035278320312,-0.0865042658957358,-0.0302849352841631,0.00132492264231442
1493479589.8,40.4623570153867,-79.9273878336697,8.97999954223633,0.0136871337890625,-1.02500915527344,0.2032470703125,0.0585735650152028,0.00919323208295353,0.00484082791343703
1493479590.0,40.4623570153867,-79.9273878336697,8.97999954223633,0.01507568359375,-0.862899780273438,0.225082397460938,-0.0181236101663162,-0.0296561629507954,0.0627976048201774
1493479590.2,40.4623208474745,-79.9272915256023,9.44999980926514,-0.0998382568359375,-0.853439331054688,0.289825439453125,-0.000317715118046453,0.0585029912463157,-0.0225447238919568
1493479590.4,40.4623208474745,-79.9272915256023,9.44999980926514,-0.0547637939453125,-0.98370361328125,0.291168212890625,-0.0523484259671425,0.0737330768882608,-0.0252491639789322
1493479590.6,40.4623208474745,-79.9272915256023,9.44999980926514,-0.083221435546875,-0.90911865234375,0.198196411132812,-0.0585029912463157,-0.0485555519426517,-0.0313938755620721
1493479590.8,40.4623208474745,-79.9272915256023,9.44999980926514,0.0247802734375,-0.881881713867188,0.260467529296875,-0.0259596953577654,-0.0168474233719503,0.0200357598289931
1493479591.0,40.4623208474745,-79.9272915256023,9.44999980926514,0.00286865234375,-0.955657958984375,0.285934448242188,0.0585330849666336,-0.0482394347212593,0.0540344732532717
1493479591.2,40.4622834641863,-79.9271934573352,9.15999984741211,-0.01446533203125,-0.878631591796875,0.287078857421875,-0.00898523920181834,-0.0212123443985901,0.0223532426095801
1493479591.4,40.4622834641863,-79.9271934573352,9.15999984741211,-0.106719970703125,-0.840789794921875,0.312942504882812,-0.0737453274292752,-0.0633334328315014,0.0623150400306551
1493479591.6,40.4622834641863,-79.9271934573352,9.15999984741211,-0.095306396484375,-1.0206298828125,0.280075073242188,-0.0994901056870712,-0.0131770547576031,0.0256707423794918
1493479591.8,40.4622834641863,-79.9271934573352,9.15999984741211,-0.04779052734375,-0.853225708007812,0.317642211914062,-0.02006611986542,0.00438382947037943,-0.00981268335250596
1493479592.0,40.4622834641863,-79.9271934573352,9.15999984741211,-0.050384521484375,-1.04502868652344,0.28057861328125,-0.0275171119632437,-0.0668306959749934,0.0286785165146273
1493479592.2,40.4622445302461,-79.9270958919822,9.43000030517578,-0.0286102294921875,-0.991653442382812,0.209823608398438,-0.0971116365175214,-0.118512799037398,-0.0497342670411208
1493479592.4,40.4622445302461,-79.9270958919822,9.43000030517578,0.03021240234375,-0.949935913085938,0.243545532226562,-0.0362866351167657,-0.129535622789236,0.0127573405698066
1493479592.6,40.4622445302461,-79.9270958919822,9.43000030517578,-0.0355072021484375,-1.02742004394531,0.195449829101562,-0.0376243409323125,-0.0742055216656409,0.0627129162975129
1493479592.8,40.4622445302461,-79.9270958919822,9.43000030517578,-0.0284881591796875,-0.953292846679688,0.264511108398438,-0.0393351556165794,0.0257865898869102,0.00912665305570155
1493479593.0,40.4622445302461,-79.9270958919822,9.43000030517578,-0.012969970703125,-1.01568603515625,0.214523315429688,0.0171835143015183,-0.00968778109738124,-0.0157922789480609
1493479593.2,40.4622014891733,-79.926997320801,9.64000034332275,-0.0390472412109375,-0.990753173828125,0.238052368164062,-0.00641369085323783,-0.0169789835298002,-0.00748534687588572
1493479593.4,40.4622014891733,-79.926997320801,9.64000034332275,0.05914306640625,-0.993179321289062,0.215377807617188,0.0552805663273198,0.105997806126789,-0.0903357557560328
1493479593.6,40.4622014891733,-79.926997320801,9.64000034332275,0.0540924072265625,-0.904632568359375,0.26873779296875,-0.0211361779914139,0.0075822859395646,-0.00769946502752809
1493479593.8,40.4622014891733,-79.926997320801,9.64000034332275,-0.0319976806640625,-1.02029418945312,0.1676025390625,0.0995353794256025,0.062111574523373,-0.00233985333374362
1493479594.0,40.4622014891733,-79.926997320801,9.64000034332275,0.103591918945312,-0.903305053710938,0.269699096679688,0.0575581016915555,0.0177097549329179,0.00587466704860579
1493479594.2,40.4621602502097,-79.9268952292203,9.60000038146973,-0.0618743896484375,-0.855010986328125,0.299850463867188,-0.0825526674702762,-0.120706178511187,0.129544411220833
1493479594.4,40.4621602502097,-79.9268952292203,9.60000038146973,-0.0478363037109375,-0.932861328125,0.262344360351562,-0.0203958192083718,0.102248075311957,-0.0100686131332626
1493479594.6,40.4621602502097,-79.9268952292203,9.60000038146973,-0.0333404541015625,-1.0037841796875,0.240982055664062,-0.00383681618247716,0.0191686345780633,-0.0203468170443144
1493479594.8,40.4621602502097,-79.9268952292203,9.60000038146973,0.0200347900390625,-0.891448974609375,0.3126220703125,-0.0255801949024291,0.0278257723335839,0.0167257169101336
1493479595.0,40.4621602502097,-79.9268952292203,9.60000038146973,-0.0421295166015625,-0.841995239257812,0.180648803710938,-0.0875037502528425,0.00376278030417296,0.0150876065236259
1493479595.2,40.4621219030027,-79.9267952331155,9.55000019073486,-0.0889129638671875,-0.986328125,0.123779296875,-0.00834235211467321,-0.200970924288977,0.110253271232626
1493479595.4,40.4621219030027,-79.9267952331155,9.55000019073486,-0.205963134765625,-1.02616882324219,0.333038330078125,0.0689359248167011,-0.0483166663928716,-0.00556680562659263
1493479595.6,40.4621219030027,-79.9267952331155,9.55000019073486,0.176513671875,-0.820419311523438,0.29010009765625,-0.0426441332710028,0.132165760681798,-0.0796775187574267
1493479595.8,40.4621219030027,-79.9267952331155,9.55000019073486,-0.0599365234375,-0.953399658203125,0.26336669921875,-0.0432670466499723,-0.0646032280392512,0.0135845184043852
1493479596.0,40.4621219030027,-79.9267952331155,9.55000019073486,0.001617431640625,-0.893417358398438,0.39208984375,-0.0573663540930698,0.0195201718419538,0.000428502619393749
1493479596.2,40.4620832205196,-79.92669096224,10.0500001907349,0.12872314453125,-1.046630859375,0.279220581054688,0.0426803522618279,0.0677928960768391,-0.046651391763245
1493479596.4,40.4620832205196,-79.92669096224,10.0500001907349,0.224456787109375,-0.92816162109375,0.3193359375,0.013579458398314,0.22646936014594,-0.090007387993626
1493479596.6,40.4620832205196,-79.92669096224,10.0500001907349,-0.08331298828125,-0.96405029296875,0.404769897460938,0.0098744686897958,-0.115998242336145,0.0707705764916567
1493479596.8,40.4620832205196,-79.92669096224,10.0500001907349,-0.02972412109375,-0.918228149414062,0.295028686523438,0.0613110282996952,0.00492551643610155,0.0358000755856082
1493479597.0,40.4620832205196,-79.92669096224,10.0500001907349,0.01617431640625,-0.937957763671875,0.283432006835938,-0.0670235088379152,0.0174562219971424,0.00459981183478486
1493479597.2,40.4620440770317,-79.9265788123756,10.7600002288818,-0.06976318359375,-0.935272216796875,0.351394653320312,-0.00619850743715943,-0.0286723912441201,0.0479901628432279
1493479597.4,40.4620440770317,-79.9265788123756,10.7600002288818,-0.0653228759765625,-1.07386779785156,0.320083618164062,0.0499220198979714,-0.0800967003130052,0.0433663825586323
1493479597.6,40.4620440770317,-79.9265788123756,10.7600002288818,-0.06634521484375,-0.948379516601562,0.383407592773438,0.0939941401454747,-0.0442185941074577,0.0330628786172247
1493479597.8,40.4620440770317,-79.9265788123756,10.7600002288818,-0.084197998046875,-0.899887084960938,0.2930908203125,-0.0273107169787626,-0.0530048951758471,0.0211814517299452
1493479598.0,40.4620440770317,-79.9265788123756,10.7600002288818,-0.049407958984375,-0.932159423828125,0.240554809570312,-0.0587621168203804,0.0333502336988443,-0.0454686819231409
1493479598.2,40.4620006587733,-79.9264584482461,11.4799995422363,0.0146484375,-0.862075805664062,0.237808227539062,-0.0282777107705704,0.00230603118789961,-0.0333481031699722
1493479598.4,40.4620006587733,-79.9264584482461,11.4799995422363,-0.0389862060546875,-0.949203491210938,0.244491577148438,0.0503406688213318,-0.0035222968577388,-0.0229322138305633
1493479598.6,40.4620006587733,-79.9264584482461,11.4799995422363,-0.108612060546875,-0.882125854492188,0.347015380859375,-0.042347457125568,-0.062479889702131,0.0253168082706203
1493479598.8,40.4620006587733,-79.9264584482461,11.4799995422363,-0.0408172607421875,-1.002197265625,0.265609741210938,0.0580348075266797,0.0421687590164237,-0.0155078533436404
1493479599.0,40.4620006587733,-79.9264584482461,11.4799995422363,0.039703369140625,-0.758575439453125,0.253372192382812,-0.116262161600172,-0.00136913111640974,0.0126739836276871
1493479599.2,40.4619561508675,-79.9263328873365,11.7600002288818,0.069549560546875,-0.922195434570312,0.274368286132812,-0.0028770129256126,-0.0988946228673295,0.0780593820790945
1493479599.4,40.4619561508675,-79.9263328873365,11.7600002288818,0.026824951171875,-0.912811279296875,0.21533203125,-0.0724158774131076,0.0876912367935841,-0.0297554988594553
1493479599.6,40.4619561508675,-79.9263328873365,11.7600002288818,0.0848541259765625,-1.03640747070312,0.152114868164062,0.0459240824695444,-0.0375212765981264,0.0474804338105867
1493479599.8,40.4619561508675,-79.9263328873365,11.7600002288818,0.015594482421875,-0.953842163085938,0.191329956054688,-0.0173712671583689,-0.00945741766308939,0.0190384060007585
1493479600.0,40.4619561508675,-79.9263328873365,11.7600002288818,-0.006622314453125,-1.00822448730469,0.149368286132812,-0.0241700511052321,0.104394583150561,-0.044231643596799
1493479600.2,40.4619139898945,-79.9262095057219,11.4499998092651,0.016510009765625,-1.08740234375,0.0914306640625,-0.0346261541771012,0.0310697688574094,-0.0206927616699157
1493479600.4,40.4619139898945,-79.9262095057219,11.4499998092651,0.0398712158203125,-1.07942199707031,0.13653564453125,-0.00915967625321853,-0.0541873386998423,0.0171054836815789
1493479600.6,40.4619139898945,-79.9262095057219,11.4499998092651,-0.118392944335938,-0.937118530273438,0.211639404296875,-0.0367193987939035,-0.095485776672028,0.0627770984797838
1493479600.8,40.4619139898945,-79.9262095057219,11.4499998092651,0.068634033203125,-1.0146484375,0.1346435546875,-0.0325198600709576,-0.010419884081044,0.0359452178650175
1493479601.0,40.4619139898945,-79.9262095057219,11.4499998092651,-0.0367584228515625,-0.991531372070312,0.0874786376953125,0.00510128506804678,0.00741610468754365,0.0202911569775317
1493479601.2,40.4618755588685,-79.9261023849993,9.82999992370605,-0.090911865234375,-1.00999450683594,0.129440307617188,0.0241932206067158,-0.0161110593305434,0.0130838441194503
1493479601.4,40.4618755588685,-79.9261023849993,9.82999992370605,-0.1226806640625,-0.986297607421875,0.127105712890625,0.0185779454482838,-0.0490493020087524,0.0163099974639723
1493479601.6,40.4618755588685,-79.9261023849993,9.82999992370605,-0.0728759765625,-1.01640319824219,0.142593383789062,-0.0252273260579936,-0.00515880934759249,-0.0269003238547814
1493479601.8,40.4618755588685,-79.9261023849993,9.82999992370605,-0.027008056640625,-0.91845703125,0.109664916992188,-0.0471019986196864,0.00880734004100105,-0.0548818911121349
1493479602.0,40.4618755588685,-79.9261023849993,9.82999992370605,-0.167648315429688,-0.829055786132812,0.048858642578125,0.0312774954224356,-0.0438119294090026,0.0249562162590235
1493479602.2,40.4618403548752,-79.9260053225606,8.40999984741211,-0.0159759521484375,-0.935440063476562,0.116836547851562,-0.080158485650295,-0.028198082253977,0.00564936362038509
1493479602.4,40.4618403548752,-79.9260053225606,8.40999984741211,0.0119171142578125,-1.07392883300781,0.08685302734375,-0.0783019960544008,-0.0782061222551579,-0.00166607357795357
1493479602.6,40.4618403548752,-79.9260053225606,8.40999984741211,-0.0122833251953125,-1.00759887695312,0.102264404296875,0.00217473734615871,-0.0212909076507475,-0.0148497862382818
1493479602.8,40.4618403548752,-79.9260053225606,8.40999984741211,-0.0045928955078125,-1.02629089355469,0.0927734375,-0.00550741713428386,-0.036131639141323,-0.00636042763143624
1493479603.0,40.4618403548752,-79.9260053225606,8.40999984741211,-0.0145263671875,-0.970901489257812,0.099578857421875,-0.0177720729024258,-0.0413644843672197,0.0308449980614067
1493479603.2,40.4618105572094,-79.925927035585,6.90000009536743,-0.068145751953125,-0.969970703125,0.074920654296875,-0.0262379956916787,-0.0519481528553036,0.0211897075293245
1493479603.4,40.4618105572094,-79.925927035585,6.90000009536743,-0.0433807373046875,-1.04905700683594,0.0425567626953125,-0.0184759463785337,-0.0381726858007598,0.00630663177741664
1493479603.6,40.4618105572094,-79.925927035585,6.90000009536743,-0.06072998046875,-1.01762390136719,0.052276611328125,-0.00590955445888583,-0.0467624455807013,0.0171195984353564
1493479603.8,40.4618105572094,-79.925927035585,6.90000009536743,-0.0416412353515625,-1.00410461425781,0.00201416015625,0.00912452252682949,-0.0181387901845297,0.0235969388386471
1493479604.0,40.4618105572094,-79.925927035585,6.90000009536743,-0.0496063232421875,-0.992874145507812,0.01513671875,0.00378541717343863,-0.0266268172108302,-0.0574680868467109
1493479604.2,40.4617886385326,-79.9258678593486,4.80999994277954,-0.0517425537109375,-0.96014404296875,0.06829833984375,-0.0421250831745464,-0.0582286856540375,0.0114473316295966
1493479604.4,40.4617886385326,-79.9258678593486,4.80999994277954,-0.0584564208984375,-0.98553466796875,0.113998413085938,-0.024769794982718,-0.0274947414100871,0.00514842301934118
1493479604.6,40.4617886385326,-79.9258678593486,4.80999994277954,-0.009796142578125,-0.9786376953125,0.088134765625,-0.0143981141174044,-0.0350056546324375,0.0212672055170458
1493479604.8,40.4617886385326,-79.9258678593486,4.80999994277954,-0.0316925048828125,-0.993179321289062,0.130142211914062,0.00210150041618153,-0.0212895760702024,-0.00951946931648824
1493479605.0,40.4617886385326,-79.9258678593486,4.80999994277954,-0.0240936279296875,-0.958160400390625,0.17730712890625,-0.00361364328312852,-0.0499707557459198,0.00329060184290191
1493479605.2,40.4617735930164,-79.9258307275175,2.94000005722046,-0.0453643798828125,-0.964691162109375,0.19146728515625,-0.00923557634428579,-0.0584412059090258,0.0203143264790154
1493479605.4,40.4617735930164,-79.9258307275175,2.94000005722046,-0.071319580078125,-0.937103271484375,0.241119384765625,-0.0169949624963407,-0.0796634040036493,0.0309517908211189
1493479605.6,40.4617735930164,-79.9258307275175,2.94000005722046,-0.205062866210938,-0.842132568359375,0.325454711914062,-0.0361928918463949,-0.139124067977957,-0.0767789342269844
1493479605.8,40.4617735930164,-79.9258307275175,2.94000005722046,0.128311157226562,-1.13890075683594,0.267608642578125,0.0229308822500183,-0.137362653232979,0.0389729657083286
1493479606.0,40.4617735930164,-79.9258307275175,2.94000005722046,-0.16998291015625,-0.875762939453125,0.293487548828125,0.0171100110554321,-0.187305712103562,0.125405592570741
1493479606.2,40.4617603076999,-79.925805497989,2.5699999332428,-0.135543823242188,-0.923248291015625,0.299026489257812,-0.0479033437916913,-0.227319441165894,0.0299501759351401
1493479606.4,40.4617603076999,-79.925805497989,2.5699999332428,-0.0347747802734375,-0.958023071289062,0.30999755859375,-0.00771650925850459,-0.230769033725873,0.0484961634503429
1493479606.6,40.4617603076999,-79.925805497989,2.5699999332428,-0.140228271484375,-0.902847290039062,0.311141967773438,-0.00447091483802502,-0.28184127289865,0.094508396551969
1493479606.8,40.4617603076999,-79.925805497989,2.5699999332428,-0.162399291992188,-0.948455810546875,0.302017211914062,0.00191960651372911,-0.341443883359059,0.139508628439365
1493479607.0,40.4617603076999,-79.925805497989,2.5699999332428,-0.16851806640625,-0.965957641601562,0.285690307617188,-0.0045606633667607,-0.371187397993609,0.129923112727843
1493479607.2,40.4617370060091,-79.9257858843356,3.01999998092651,-0.145736694335938,-0.920623779296875,0.2940673828125,-0.00136566900699263,-0.409492975532764,0.186564021739975
1493479607.4,40.4617370060091,-79.9257858843356,3.01999998092651,-0.194259643554688,-0.928802490234375,0.294357299804688,-0.0127767816457642,-0.384954609248774,0.177854153394871
1493479607.6,40.4617370060091,-79.9257858843356,3.01999998092651,-0.206375122070312,-0.920303344726562,0.257003784179688,-0.032703085553955,-0.438019159233039,0.126608808751239
1493479607.8,40.4617370060091,-79.9257858843356,3.01999998092651,-0.172897338867188,-0.893051147460938,0.291351318359375,-0.015257782517282,-0.455145948203338,0.165215323493573
1493479608.0,40.4617370060091,-79.9257858843356,3.01999998092651,-0.234619140625,-0.919647216796875,0.31988525390625,0.00360911590927538,-0.487179515059247,0.169756013152158
1493479608.2,40.4617082979907,-79.9257815257459,3.49000000953674,-0.240020751953125,-0.92926025390625,0.321975708007812,-0.0277416164431374,-0.501875903218741,0.118294686144121
1493479608.4,40.4617082979907,-79.9257815257459,3.49000000953674,-0.14581298828125,-0.910293579101562,0.310684204101562,-0.0166215873115115,-0.48386893950817,0.093839144170032
1493479608.6,40.4617082979907,-79.9257815257459,3.49000000953674,-0.130340576171875,-0.889328002929688,0.34796142578125,-0.0185646296428334,-0.420029772385662,0.114978784270863
1493479608.8,40.4617082979907,-79.9257815257459,3.49000000953674,-0.111618041992188,-0.884857177734375,0.351531982421875,-0.00733807406760433,-0.372238015043645,0.0989771808611219
1493479609.0,40.4617082979907,-79.9257815257459,3.49000000953674,-0.15093994140625,-0.93798828125,0.42059326171875,-0.0578001830346438,-0.261293387192034,0.0342013799832336
1493479609.2,40.4616718367119,-79.9257935956865,4.28999996185303,-0.0196075439453125,-0.8602294921875,0.41827392578125,0.00638998871953612,-0.217034313036008,0.0368767916143272
1493479609.4,40.4616718367119,-79.9257935956865,4.28999996185303,-0.0559539794921875,-0.894073486328125,0.402618408203125,-0.0615690886093239,-0.192126832624932,0.0361167254392186
1493479609.6,40.4616718367119,-79.9257935956865,4.28999996185303,-0.01025390625,-0.88946533203125,0.41845703125,-0.0262198861962661,-0.167891534072993,0.0342836716609171
1493479609.8,40.4616718367119,-79.9257935956865,4.28999996185303,0.004547119140625,-0.885391235351562,0.4315185546875,-0.0330311870002528,-0.0784945426012135,0.0361156601747826
1493479610.0,40.4616718367119,-79.9257935956865,4.28999996185303,-0.0010833740234375,-0.902984619140625,0.436325073242188,-0.0134212666295633,-0.058414840614234,0.0149403337153445
1493479610.2,40.4616233893116,-79.9258184061199,5.8899998664856,-0.007904052734375,-0.921783447265625,0.440216064453125,-0.0289480284169433,-0.0902209735130504,0.0425850110948031
1493479610.4,40.4616233893116,-79.9258184061199,5.8899998664856,-0.0194244384765625,-0.907852172851562,0.412460327148438,-0.0269072480736156,-0.0168426296819881,0.0114963337936541
1493479610.6,40.4616233893116,-79.9258184061199,5.8899998664856,0.0333709716796875,-0.884185791015625,0.398330688476562,0.00792982846181994,0.0127086047218581,-0.0276731732031224
1493479610.8,40.4616233893116,-79.9258184061199,5.8899998664856,0.011566162109375,-0.9140625,0.416702270507812,-0.00626721699328347,-0.00527971686108209,-0.0117788951853115
1493479611.0,40.4616233893116,-79.9258184061199,5.8899998664856,0.020660400390625,-0.87896728515625,0.383895874023438,-0.0547854846806741,0.0386467284747939,-0.0219849274308221
1493479611.2,40.4615704156835,-79.9258524366467,7.53999996185303,-0.0224151611328125,-0.810745239257812,0.410064697265625,-0.0500144315877971,-0.00180269374187464,-0.00370605497295427
1493479611.4,40.4615704156835,-79.9258524366467,7.53999996185303,0.0108489990234375,-0.875152587890625,0.355850219726562,-0.0355289657866381,-0.0189129711134157,0.0178106887382319
1493479611.6,40.4615704156835,-79.9258524366467,7.53999996185303,0.055816650390625,-0.9107666015625,0.436614990234375,-0.0203382949288261,-0.0604913073161688,0.0521923647272639
1493479611.8,40.4615704156835,-79.9258524366467,7.53999996185303,0.125320434570312,-0.958206176757812,0.346847534179688,-0.057036654750118,-0.0549402143400077,0.0134186034684732
1493479612.0,40.4615704156835,-79.9258524366467,7.53999996185303,0.066986083984375,-0.924514770507812,0.36566162109375,0.00301496467007871,0.0106081695701126,-0.0586382798296917
1493479612.2,40.4614987923209,-79.9258987047523,9.02000045776367,0.127059936523438,-0.853424072265625,0.363616943359375,0.0375047649993679,-0.0204466855851924,0.0494825983181083
1493479612.4,40.4614987923209,-79.9258987047523,9.02000045776367,-0.004791259765625,-0.84893798828125,0.401473999023438,-0.0147603040256552,-0.0754239178643521,0.0256326591759037
1493479612.6,40.4614987923209,-79.9258987047523,9.02000045776367,-0.00933837890625,-0.912124633789062,0.412322998046875,-0.0535108957829621,-0.00496786069743381,0.0165243819317237
1493479612.8,40.4614987923209,-79.9258987047523,9.02000045776367,0.160491943359375,-1.00167846679688,0.323883056640625,-0.00243785766185853,0.0383042459586097,-0.0342426589801298
1493479613.0,40.4614987923209,-79.9258987047523,9.02000045776367,0.011199951171875,-0.896896362304688,0.3687744140625,-0.0505617111918084,-0.0220051674551067,0.0251282564654427
1493479613.2,40.4614240676541,-79.9259467330574,10.3500003814697,0.0113067626953125,-0.8988037109375,0.365707397460938,-0.0701359452038908,0.0940575233794185,-0.0372120835955682
1493479613.4,40.4614240676541,-79.9259467330574,10.3500003814697,0.0205230712890625,-0.990280151367188,0.308883666992188,0.006083458878068,-0.0191846135446038,0.0118401478903833
1493479613.6,40.4614240676541,-79.9259467330574,10.3500003814697,0.0388641357421875,-0.919708251953125,0.327056884765625,0.00105487810778039,-0.0670144540902089,0.0417660890596037
1493479613.8,40.4614240676541,-79.9259467330574,10.3500003814697,-0.035797119140625,-0.941665649414062,0.383636474609375,0.00272681064013213,-0.0329904406355746,0.0161062656405812
1493479614.0,40.4614240676541,-79.9259467330574,10.3500003814697,0.0066986083984375,-0.891647338867188,0.298080444335938,-0.0773206211927066,0.0270934030338121,-0.0157885505225348
1493479614.2,40.4613361414899,-79.9260029756277,11.1999998092651,0.0648345947265625,-0.915023803710938,0.257659912109375,-0.0109376025969554,-0.00737216252955735,0.0169664666726768
1493479614.4,40.4613361414899,-79.9260029756277,11.1999998092651,0.0339813232421875,-0.910430908203125,0.25225830078125,0.00444082111770713,-0.041507229801648,0.0417349300748498
1493479614.6,40.4613361414899,-79.9260029756277,11.1999998092651,-0.030670166015625,-0.950424194335938,0.28515625,-0.0260656891691505,0.0288859767635445,-0.0248643372014158
1493479614.8,40.4613361414899,-79.9260029756277,11.1999998092651,-0.02471923828125,-0.924606323242188,0.248733520507812,-0.0306814799704759,0.00870773781623209,-0.00993252560155953
1493479615.0,40.4613361414899,-79.9260029756277,11.1999998092651,-0.0052642822265625,-0.944259643554688,0.26861572265625,0.0151294181527402,-0.0458324697280457,0.0365244554021097
1493479615.2,40.4612443177406,-79.9260614813118,11.3400001525879,0.0542144775390625,-0.969039916992188,0.205184936523438,-0.0217202092184683,0.0501329422563056,-0.0195436076595465
1493479615.4,40.4612443177406,-79.9260614813118,11.3400001525879,-0.000762939453125,-0.938934326171875,0.251724243164062,-0.014383466731409,-0.0350059209485465,0.0202011421326871
1493479615.6,40.4612443177406,-79.9260614813118,11.3400001525879,0.06512451171875,-0.974639892578125,0.196640014648438,0.0270430692892096,0.0583288205110245,0.00119256353613748
1493479615.8,40.4612443177406,-79.9260614813118,11.3400001525879,0.025115966796875,-0.8780517578125,0.2197265625,-0.070713851160438,0.0483241232439238,-0.0200405535189553
1493479616.0,40.4612443177406,-79.9260614813118,11.3400001525879,-0.0660552978515625,-0.94085693359375,0.187225341796875,-0.0105088336614527,0.0341087019772989,0.00833409631529397
1493479616.2,40.4611544218291,-79.926117472425,10.9700002670288,-0.03472900390625,-0.957183837890625,0.142486572265625,-0.0248803161679563,-0.0168546139068935,0.0189806154051037
1493479616.4,40.4611544218291,-79.926117472425,10.9700002670288,-0.0579376220703125,-0.998275756835938,0.152069091796875,-0.0163299711721479,0.039458992607268,-0.0301230150898863
1493479616.6,40.4611544218291,-79.926117472425,10.9700002670288,-0.0048065185546875,-0.995376586914062,0.170791625976562,-0.0434641205706382,-0.0401319734147311,0.0412409136926401
1493479616.8,40.4611544218291,-79.926117472425,10.9700002670288,-0.0519256591796875,-0.985382080078125,0.16448974609375,-0.0128681280711539,0.0575181542752044,-0.0397301024062381
1493479617.0,40.4611544218291,-79.926117472425,10.9700002670288,0.101776123046875,-0.95709228515625,0.145538330078125,-0.00685124822033785,0.0255690096258508,-0.0299901233514913
1493479617.2,40.4610690521453,-79.926167680025,10.1700000762939,-0.1339111328125,-0.941299438476562,0.214324951171875,-0.0207478891044803,-0.0434753058472165,0.0137605533524394
1493479617.4,40.4610690521453,-79.926167680025,10.1700000762939,0.0982818603515625,-0.932235717773438,0.127029418945312,-0.0594034060108715,0.101433414334502,-0.0392536628872229
1493479617.6,40.4610690521453,-79.926167680025,10.1700000762939,0.052337646484375,-1.04815673828125,0.135894775390625,0.00954450303073498,0.060563212665601,-0.04164092048837
1493479617.8,40.4610690521453,-79.926167680025,10.1700000762939,-0.073944091796875,-0.941650390625,0.158950805664062,-0.012873987025552,0.00859535241823074,0.0115743644135934
1493479618.0,40.4610690521453,-79.926167680025,10.1700000762939,0.0628204345703125,-1.02561950683594,0.132583618164062,-0.0357201807529058,0.0427791555382698,-0.0122044683275061
1493479618.2,40.4609966325019,-79.9262198154628,9.15999984741211,-0.0303192138671875,-0.995010375976562,0.17205810546875,0.00620463270766661,-0.0245058757186911,0.000126766467887772
1493479618.4,40.4609966325019,-79.9262198154628,9.15999984741211,-0.072479248046875,-1.00482177734375,0.188232421875,-0.00811704868645251,0.00855860079518765,-0.0246281148127258
1493479618.6,40.4609966325019,-79.9262198154628,9.15999984741211,-0.00738525390625,-1.001708984375,0.140701293945312,-0.0208805145267663,0.018215755540033,-0.0205188572507335
1493479618.8,40.4609966325019,-79.9262198154628,9.15999984741211,-0.137176513671875,-0.934555053710938,0.142333984375,-0.00773461875391713,-0.0914217928485671,0.0481363703870732
1493479619.0,40.4609966325019,-79.9262198154628,9.15999984741211,0.054229736328125,-0.932159423828125,0.116256713867188,-0.0358040703272433,0.0140577621300923,-0.0217271334373025
1493479619.2,40.4609244224061,-79.9262587913125,8.38000011444092,-0.0392608642578125,-1.017333984375,0.12261962890625,-0.00906326982175766,-0.0127128657796023,-0.0448409748542092
1493479619.4,40.4609244224061,-79.9262587913125,8.38000011444092,-0.0491180419921875,-1.02154541015625,0.105682373046875,-0.0228720263899275,-0.0583549194897073,0.00524749261189213
1493479619.6,40.4609244224061,-79.9262587913125,8.38000011444092,-0.0569915771484375,-0.932525634765625,0.136032104492188,-0.0359319020595671,0.00874102732985808,-0.0153174373256997
1493479619.8,40.4609244224061,-79.9262587913125,8.38000011444092,0.0186004638671875,-0.987075805664062,0.06927490234375,-0.0190706302499484,-0.000940894813124995,-0.0076563218178688
1493479620.0,40.4609244224061,-79.9262587913125,8.38000011444092,0.00042724609375,-0.9915771484375,0.091156005859375,-0.0283908951168987,0.00869095990136459,-0.0216373849085668
1493479620.2,40.460858205371,-79.9262994435429,7.19999980926514,0.0308380126953125,-0.985198974609375,0.097198486328125,0.00151613760858211,0.0191334808516743,-0.0224243490106852
1493479620.4,40.460858205371,-79.9262994435429,7.19999980926514,-0.0045013427734375,-0.98687744140625,0.102569580078125,0.0225346038798145,-0.052262938496151,0.0366168670919355
1493479620.6,40.460858205371,-79.9262994435429,7.19999980926514,0.0079193115234375,-0.957748413085938,0.0932769775390625,-0.0347167016541639,0.0151142381345267,-0.0227849410222819
1493479620.8,40.460858205371,-79.9262994435429,7.19999980926514,-0.0297698974609375,-0.958099365234375,0.0802154541015625,-0.0200541356405147,0.000128364364541819,-0.0130002208612218
1493479621.0,40.460858205371,-79.9262994435429,7.19999980926514,-0.0048065185546875,-0.974075317382812,0.083770751953125,-0.0283123318647414,0.0172000259002768,-0.0227247535816461
1493479621.2,40.4608156253029,-79.9263268523663,5.53999996185303,-0.0109710693359375,-0.972061157226562,0.091827392578125,-0.0230006570705783,0.00971894008213517,-0.0258497068047451
1493479621.4,40.4608156253029,-79.9263268523663,5.53999996185303,0.0192413330078125,-0.962677001953125,0.086181640625,-0.0277349585404122,-0.0242866975609776,-0.0098172107263591
1493479621.6,40.4608156253029,-79.9263268523663,5.53999996185303,-0.0063629150390625,-1.01187133789062,0.113525390625,-0.00426957985961503,-0.0286950281133858,-0.0148966578734672
1493479621.8,40.4608156253029,-79.9263268523663,5.53999996185303,-0.0052032470703125,-0.97174072265625,0.0824432373046875,-0.0094813861129001,-0.0020671456381195,-0.00862145139691352
1493479622.0,40.4608156253029,-79.9263268523663,5.53999996185303,0.0091552734375,-0.96038818359375,0.11090087890625,-0.0203044727829821,-0.00199470765646935,0.00406211961069786
1493479622.2,40.4607782839243,-79.9263494835048,3.91000008583069,0.0362548828125,-1.00199890136719,0.112228393554688,-0.016335830126546,-0.00946380924970558,0.0211814517299452
1493479622.4,40.4607782839243,-79.9263494835048,3.91000008583069,0.00225830078125,-0.973953247070312,0.117568969726562,-0.00852451233323463,0.0011193266061603,0.000976048539514041
1493479622.6,40.4607782839243,-79.9263494835048,3.91000008583069,0.0252838134765625,-0.965667724609375,0.13555908203125,-0.015931029640854,-0.00627973385040684,-0.00654418574665171
1493479622.8,40.4607782839243,-79.9263494835048,3.91000008583069,0.0182952880859375,-0.962570190429688,0.170181274414062,-0.0213865151338813,-0.00624271591125474,0.00299578991023014
1493479623.0,40.4607782839243,-79.9263494835048,3.91000008583069,0.0060272216796875,-0.94378662109375,0.172409057617188,-0.00521713257546523,0.00641555506600089,-0.00433482730632198
1493479623.2,40.4607556108762,-79.9263647385686,2.65000009536743,0.035491943359375,-0.940475463867188,0.258285522460938,0.00215609521852815,0.00743234997019314,0.00213532256202553
1493479623.4,40.4607556108762,-79.9263647385686,2.65000009536743,0.0146484375,-0.949935913085938,0.260787963867188,-0.0136084868541959,0.0213620140518526,-0.0055255266296964
1493479623.6,40.4607556108762,-79.9263647385686,2.65000009536743,0.0301971435546875,-0.92254638671875,0.299041748046875,0.00875620734807153,0.0180250732059833,-0.00742036574528778
1493479623.8,40.4607556108762,-79.9263647385686,2.65000009536743,0.009368896484375,-0.926498413085938,0.319732666015625,-0.0190919355386691,0.0118252341882788,0.00084022732392
1493479624.0,40.4607556108762,-79.9263647385686,2.65000009536743,0.0244903564453125,-0.936386108398438,0.336029052734375,-0.00358301693059261,-0.012737899493849,0.0213204687388474
1493479624.2,40.4607316386331,-79.9263778143375,2.78999996185303,-0.0287322998046875,-0.909835815429688,0.330841064453125,-0.00199364239203332,0.0180961796070884,-6.71116594699968e-05
1493479624.4,40.4607316386331,-79.9263778143375,2.78999996185303,0.0028533935546875,-0.937728881835938,0.33233642578125,-0.0257013687320277,-0.00195875498175328,0.00933784173014483
1493479624.6,40.4607316386331,-79.9263778143375,2.78999996185303,0.0126800537109375,-0.896347045898438,0.369232177734375,-0.00216142154070831,-0.00424081771984218,-1.11852765783328e-05
1493479624.8,40.4607316386331,-79.9263778143375,2.78999996185303,0.006103515625,-0.912384033203125,0.383834838867188,0.00487624795593508,-0.0244941578098948,0.0193049884258754
1493479625.0,40.4607316386331,-79.9263778143375,2.78999996185303,3.0517578125e-05,-0.950347900390625,0.37115478515625,-0.0173219986782024,-0.0243516786915755,0.00734899302807366
1493479625.2,40.4607044393574,-79.9263981823622,3.79999995231628,0.0016937255859375,-0.889556884765625,0.366989135742188,-0.0237836264310616,-0.0360107316278334,0.00624671065288986
1493479625.4,40.4607044393574,-79.9263981823622,3.79999995231628,0.043365478515625,-0.870285034179688,0.350692749023438,-0.0450881162033685,-0.0794759174629077,0.0605176726109606
1493479625.6,40.4607044393574,-79.9263981823622,3.79999995231628,-0.0810394287109375,-0.966812133789062,0.323196411132812,0.00717428966056446,-0.0755616032927092,0.0567777954921623
1493479625.8,40.4607044393574,-79.9263981823622,3.79999995231628,-0.07586669921875,-0.918914794921875,0.345870971679688,-0.00937193019209785,-0.152041730845387,0.0568057586836082
1493479626.0,40.4607044393574,-79.9263981823622,3.79999995231628,-0.07745361328125,-0.908935546875,0.314987182617188,-0.0223380625913666,-0.0243226502356937,-0.0150929328458061
1493479626.2,40.4606660083313,-79.9264230766147,4.8600001335144,-0.107009887695312,-0.952606201171875,0.397079467773438,0.00228153010587088,-0.105309112668894,0.0866584629228514
1493479626.4,40.4606660083313,-79.9264230766147,4.8600001335144,-0.0631256103515625,-0.87579345703125,0.3133544921875,-0.0572736760871351,-0.105998871391225,0.00288580135720986
1493479626.6,40.4606660083313,-79.9264230766147,4.8600001335144,-0.0830841064453125,-0.88873291015625,0.310592651367188,-0.0110627711681892,-0.102049137178528,-0.0254390473646549
1493479626.8,40.4606660083313,-79.9264230766147,4.8600001335144,0.0024261474609375,-0.929183959960938,0.326171875,0.0248944309217337,-0.105471565495389,-0.00906886246004683
1493479627.0,40.4606660083313,-79.9264230766147,4.8600001335144,-0.0391845703125,-0.930023193359375,0.302413940429688,-0.0041441449722723,-0.176542280241898,0.0505252258848743
1493479627.2,40.4606297566001,-79.9264546763896,5.53000020980835,-0.111541748046875,-0.961380004882812,0.344589233398438,-0.0162032047042601,-0.141366449615804,0.0172583491281495
1493479627.4,40.4606297566001,-79.9264546763896,5.53000020980835,-0.0414581298828125,-0.95025634765625,0.27728271484375,0.0205769141624972,-0.0820389436959999,0.00788588630383363
1493479627.6,40.4606297566001,-79.9264546763896,5.53000020980835,-0.167556762695312,-0.929000854492188,0.310531616210938,-0.0443749216634453,-0.161389958903783,0.0415445140569091
1493479627.8,40.4606297566001,-79.9264546763896,5.53000020980835,-0.09368896484375,-0.920867919921875,0.246917724609375,-0.00593458817313257,-0.212691762562524,0.083652819316588
1493479628.0,40.4606297566001,-79.9264546763896,5.53000020980835,-0.22735595703125,-0.907394409179688,0.25091552734375,-0.0200677177620741,-0.222170751830443,0.0995257920456782
1493479628.2,40.4605849972372,-79.926516367197,6.3600001335144,-0.229415893554688,-0.9097900390625,0.281768798828125,-0.0268116405904817,-0.263611402604839,0.102762331718452
1493479628.4,40.4605849972372,-79.926516367197,6.3600001335144,-0.247650146484375,-0.978195190429688,0.292037963867188,-0.0188272173263152,-0.245584731502202,0.07400977932552
1493479628.6,40.4605849972372,-79.926516367197,6.3600001335144,-0.22796630859375,-0.930130004882812,0.262481689453125,-0.0066682890534494,-0.285017625130787,0.0976927382673767
1493479628.8,40.4605849972372,-79.926516367197,6.3600001335144,-0.215927124023438,-0.936538696289062,0.25433349609375,-0.0145736164332406,-0.277526685616612,0.0570763358503602
1493479629.0,40.4605849972372,-79.926516367197,6.3600001335144,-0.13677978515625,-0.909347534179688,0.237289428710938,-0.00674765125393377,-0.255241886247047,0.0421719548097318
1493479629.2,40.4605849972372,-79.926516367197,6.3600001335144,-0.0936279296875,-0.952957153320312,0.249908447265625,-0.0220168853639031,-0.210470686213398,0.0152447330279406
1493479629.4,40.4605510924388,-79.9265743699669,6.69999980926514,-0.0286712646484375,-1.02064514160156,0.255020141601562,0.00306982578853434,-0.156386411847742,0.00150122390647767
1493479629.6,40.4605510924388,-79.9265743699669,6.69999980926514,-0.06903076171875,-1.00074768066406,0.271636962890625,0.00154223658726489,-0.0957462338266378,-0.00933304804018269
1493479629.8,40.4605510924388,-79.9265743699669,6.69999980926514,0.0341033935546875,-1.003173828125,0.30987548828125,0.0154418069486064,-0.147951648043243,0.0357249744428679
1493479630.0,40.4605510924388,-79.9265743699669,6.69999980926514,-0.0483245849609375,-0.931365966796875,0.258590698242188,0.00575509111566123,-0.00110627711681892,-0.0319246435673249
1493479630.2,40.4605271621053,-79.9266503938287,6.94000005722046,0.0109405517578125,-0.934463500976562,0.214248657226562,-0.0200195145463436,0.00863822931178102,-0.010889399381225
1493479630.4,40.4605271621053,-79.9266503938287,6.94000005722046,-0.0060577392578125,-0.918411254882812,0.270919799804688,-0.0399064036704014,-0.0210107431040711,0.0252347829090458
1493479630.6,40.4605271621053,-79.9266503938287,6.94000005722046,0.04205322265625,-0.952590942382812,0.275802612304688,0.000459395288038669,-0.0266036477093466,-0.0479062732688904
1493479630.8,40.4605271621053,-79.9266503938287,6.94000005722046,0.041900634765625,-0.906280517578125,0.3341064453125,-0.00365758544111483,-0.0382680269677846,0.0128558775301395
1493479631.0,40.4605271621053,-79.9266503938287,6.94000005722046,0.156158447265625,-0.9012451171875,0.263839721679688,-0.0207268501318687,0.104369283120205,-0.0623219642494893
1493479631.2,40.4605015973006,-79.9267260824143,7.28000020980835,-0.0332183837890625,-0.986083984375,0.388961791992188,0.0235980041030831,-0.0309936024502332,0.0483012200585491
1493479631.4,40.4605015973006,-79.9267260824143,7.28000020980835,0.160430908203125,-0.923248291015625,0.247650146484375,0.0172098795963101,0.13496527561969,-0.0939989338354368
1493479631.6,40.4605015973006,-79.9267260824143,7.28000020980835,0.0826873779296875,-0.915481567382812,0.3619384765625,0.00339925881537714,0.0233793585775876,-0.00215795943129121
1493479631.8,40.4605015973006,-79.9267260824143,7.28000020980835,0.0573577880859375,-0.930389404296875,0.260452270507812,-0.00175795263556131,0.0319214477740168,-0.0096963032128695
1493479632.0,40.4605015973006,-79.9267260824143,7.28000020980835,0.0427398681640625,-0.992294311523438,0.274612426757812,-0.00858523240608844,0.0723833868478087,-0.0333273305134696
1493479632.2,40.4604763677721,-79.9268114101886,8.05000019073486,0.0314788818359375,-0.936935424804688,0.293121337890625,-0.0327550171952116,0.016167252029544,-0.00997300565012873
1493479632.4,40.4604763677721,-79.9268114101886,8.05000019073486,0.0485076904296875,-0.905975341796875,0.28570556640625,-0.0217593576864924,-0.00517212515304289,0.0307107747424668
1493479632.6,40.4604763677721,-79.9268114101886,8.05000019073486,0.0384979248046875,-0.9632568359375,0.214187622070312,-0.00596095346792436,0.027692880595189,-0.0161257067165388
1493479632.8,40.4604763677721,-79.9268114101886,8.05000019073486,-0.0107421875,-0.942581176757812,0.249053955078125,-0.0385553820494042,0.0151467286998257,0.0240890910080937
1493479633.0,40.4604763677721,-79.9268114101886,8.05000019073486,0.0377349853515625,-0.971267700195312,0.205490112304688,0.0159390191241242,0.00734340038978449,0.00654152258556163
1493479633.2,40.4604489170392,-79.9269018509238,8.36999988555908,-0.035614013671875,-0.97125244140625,0.2342529296875,-0.00399314373846481,-0.0478362321322213,0.0320689868984072
1493479633.4,40.4604489170392,-79.9269018509238,8.36999988555908,-0.012481689453125,-0.998870849609375,0.229461669921875,0.00790319685091915,0.0169643361438047,-0.0234195723100478
1493479633.6,40.4604489170392,-79.9269018509238,8.36999988555908,0.000762939453125,-0.964279174804688,0.255752563476562,-0.0246579422169347,-0.0126034098588,0.00511113876408007
1493479633.8,40.4604489170392,-79.9269018509238,8.36999988555908,-0.0017852783203125,-0.953170776367188,0.210693359375,-0.0111194964994078,0.0341073703967538,-0.0247247875602956
1493479634.0,40.4604489170392,-79.9269018509238,8.36999988555908,-0.067657470703125,-0.927413940429688,0.27362060546875,-0.00843183432729988,-0.0424862078183611,0.0480029460164603
1493479634.2,40.4604205862064,-79.9269942194968,8.34000015258789,0.0645904541015625,-0.960418701171875,0.244491577148438,0.0122540031237816,0.0467216992160231,-0.0138558945194643
1493479634.4,40.4604205862064,-79.9269942194968,8.34000015258789,-0.0170745849609375,-1.01824951171875,0.194137573242188,-0.0295901165557614,0.00444508217545126,-0.0141752075341648
1493479634.6,40.4604205862064,-79.9269942194968,8.34000015258789,-0.0883026123046875,-0.907928466796875,0.231903076171875,-0.0363806447032455,-0.01784610878073,0.00287221923565046
1493479634.8,40.4604205862064,-79.9269942194968,8.34000015258789,-0.105789184570312,-1.00306701660156,0.185317993164062,0.00575802059286032,-0.087250217317067,0.0759853122221408
1493479635.0,40.4604205862064,-79.9269942194968,8.34000015258789,-0.06341552734375,-0.929702758789062,0.229019165039062,-0.0294162121365792,-0.0615019769498539,0.0147845387915749
1493479635.2,40.4603940155734,-79.9270876777171,8.22000026702881,0.0063629150390625,-0.956207275390625,0.17431640625,-0.0191385408577454,-0.00413109548293091,-0.00445014218152241
1493479635.4,40.4603940155734,-79.9270876777171,8.22000026702881,-0.0447998046875,-0.957839965820312,0.174102783203125,-0.0298058326040578,-0.0359758442175534,-0.0204703877188941
1493479635.6,40.4603940155734,-79.9270876777171,8.22000026702881,-0.13134765625,-0.974761962890625,0.254745483398438,0.000109189604693249,-0.0244696567278661,-0.0212600149821026
1493479635.8,40.4603940155734,-79.9270876777171,8.22000026702881,7.62939453125e-05,-0.910385131835938,0.240341186523438,-0.137355196381927,-0.0257144182213691,-0.0930343368886101
1493479636.0,40.4603940155734,-79.9270876777171,8.22000026702881,-0.040863037109375,-0.96728515625,0.16766357421875,-0.0136609511276705,-0.055219047306139,0.0341214851505312
1493479636.2,40.4603660619263,-79.9271743465959,7.96000003814697,0.04150390625,-1.06173706054688,0.28192138671875,0.0417722143301109,0.032703618186173,0.000343281464511214
1493479636.4,40.4603660619263,-79.9271743465959,7.96000003814697,0.0756683349609375,-0.952987670898438,0.181427001953125,-0.033339048422266,0.0587179083462851,-0.0218171482821471
1493479636.6,40.4603660619263,-79.9271743465959,7.96000003814697,-0.0227813720703125,-0.904891967773438,0.238021850585938,-0.0132175348061723,-0.0371423087750081,0.0116888803404668
1493479636.8,40.4603660619263,-79.9271743465959,7.96000003814697,0.0062713623046875,-0.942138671875,0.2099609375,0.00251242617238075,-0.0244760483144822,0.0363401646546762
1493479637.0,40.4603660619263,-79.9271743465959,7.96000003814697,0.0169219970703125,-0.973388671875,0.195404052734375,-0.0154330185170092,0.0522208605509277,-0.0109549131440409
1493479637.2,40.4603406228502,-79.9272599258273,7.80000019073486,0.0203704833984375,-0.951629638671875,0.149093627929688,-0.0232989311126672,0.00121386882485812,-0.00877138736628498
1493479637.4,40.4603406228502,-79.9272599258273,7.80000019073486,-0.009368896484375,-0.982803344726562,0.158447265625,-0.0145999817280324,0.0213676066901418,-0.0108667625119593
1493479637.6,40.4603406228502,-79.9272599258273,7.80000019073486,-0.0287933349609375,-0.991012573242188,0.123001098632812,-0.0186178928646349,0.0203271096522478,-0.0290308527268448
1493479637.8,40.4603406228502,-79.9272599258273,7.80000019073486,-0.0036163330078125,-0.9779052734375,0.158340454101562,0.0060027650970386,0.0318673856038882,-0.0320072015611173
1493479638.0,40.4603406228502,-79.9272599258273,7.80000019073486,-0.048583984375,-0.959503173828125,0.142929077148438,0.00945075976036419,-0.011761850954335,0.00332575556929095
1493479638.2,40.4603155609597,-79.9273407273739,7.15000009536743,0.0579071044921875,-0.947845458984375,0.129302978515625,-0.029577599698638,0.0640058810067464,-0.0601759890431034
1493479638.4,40.4603155609597,-79.9273407273739,7.15000009536743,0.03070068359375,-0.982147216796875,0.166519165039062,0.00971121691497394,-0.0564342477115421,0.0375625555950226
1493479638.6,40.4603155609597,-79.9273407273739,7.15000009536743,0.053497314453125,-0.998550415039062,0.101242065429688,-0.0281179211051656,0.0352812918052607,-0.0270342808576124
1493479638.8,40.4603155609597,-79.9273407273739,7.15000009536743,0.0157470703125,-0.96063232421875,0.144943237304688,-0.00720331811644632,-0.0265389328948576,0.0447757274075022
1493479639.0,40.4603155609597,-79.9273407273739,7.15000009536743,0.0139617919921875,-0.964187622070312,0.10986328125,0.0173326513225627,0.0179686141908736,-0.0115972675989681
1493479639.2,40.4602914629881,-79.9274146557599,6.1100001335144,-0.039306640625,-0.971923828125,0.160568237304688,-0.00167672622231389,0.00957992307323303,-0.0277634543640761
1493479639.4,40.4602914629881,-79.9274146557599,6.1100001335144,0.015350341796875,-0.961639404296875,0.195999145507812,0.0245287789040658,0.0051590756637015,0.000237820285344076
1493479639.6,40.4602914629881,-79.9274146557599,6.1100001335144,-0.0038299560546875,-0.960601806640625,0.205856323242188,-0.01152696014619,0.0149661663779183,-0.00548770974221728
1493479639.8,40.4602914629881,-79.9274146557599,6.1100001335144,0.0038909912109375,-0.961578369140625,0.148635864257812,-0.0104955178560023,-0.0148268830529071,-0.0192610462678891
1493479640.0,40.4602914629881,-79.9274146557599,6.1100001335144,-0.0482635498046875,-0.965850830078125,0.151687622070312,0.00610609574733368,-0.0415250729809515,-0.0019627497233884
1493479640.2,40.4602731066201,-79.927473077625,5.48000001907349,0.0023345947265625,-0.99945068359375,0.140838623046875,-0.0107471865790148,-0.00737562463897445,0.00310764267601346
1493479640.4,40.4602731066201,-79.927473077625,5.48000001907349,-0.01898193359375,-0.939376831054688,0.164794921875,-0.0251998954987658,-0.0476993456521912,0.0254542273828684
1493479640.6,40.4602731066201,-79.927473077625,5.48000001907349,0.014129638671875,-0.980682373046875,0.119583129882812,-0.00338727459047178,-0.0159328938536171,0.00533750745673681
1493479640.8,40.4602731066201,-79.927473077625,5.48000001907349,-0.025390625,-0.992416381835938,0.149826049804688,-0.00712954855425113,0.00217020997230557,-0.0224690901169985
1493479641.0,40.4602731066201,-79.927473077625,5.48000001907349,0.014556884765625,-0.996307373046875,0.131362915039062,-0.00412310599966068,-0.00529383161485951,-0.0128231206487315
1493479641.2,40.4602570552756,-79.9275273923575,4.5,-0.0296478271484375,-0.954574584960938,0.141952514648438,-0.0188501205116899,-0.0392296944374122,0.0329608795474747
1493479641.4,40.4602570552756,-79.9275273923575,4.5,-0.0168914794921875,-0.987945556640625,0.116836547851562,0.00350179051734519,0.0116755645350164,-0.0159874886559637
1493479641.6,40.4602570552756,-79.9275273923575,4.5,0.008148193359375,-0.970977783203125,0.126861572265625,-0.014955513733558,0.00328927026235687,0.00516946199195281
1493479641.8,40.4602570552756,-79.9275273923575,4.5,-0.01885986328125,-0.992050170898438,0.120803833007812,-0.0421290779161815,-0.0412076241790141,0.0209992915113838
1493479642.0,40.4602570552756,-79.9275273923575,4.5,-0.0150146484375,-0.953720092773438,0.1396484375,-0.0102124238321269,-0.0350320199272293,0.0266411982807167
1493479642.2,40.4602428479497,-79.9275721517205,3.4300000667572,-0.02386474609375,-0.985198974609375,0.146408081054688,-0.0260276059655624,-0.0200376240417562,0.0232419394653395
1493479642.4,40.4602428479497,-79.9275721517205,3.4300000667572,-0.026123046875,-0.943389892578125,0.1719970703125,-0.0192823515566097,-0.0115751633619204,0.00196488025226046
1493479642.6,40.4602428479497,-79.9275721517205,3.4300000667572,0.0042572021484375,-0.95172119140625,0.172454833984375,-0.00673726492568246,-0.0191007239702663,0.0149073105178275
1493479642.8,40.4602428479497,-79.9275721517205,3.4300000667572,-0.000640869140625,-1.00250244140625,0.117202758789062,-0.0159763033793854,-0.0201084641267523,-0.0107738181899156
1493479643.0,40.4602428479497,-79.9275721517205,3.4300000667572,0.0191802978515625,-0.9677734375,0.134414672851562,-0.0213345834926248,-0.00517984832020412,-0.000205063403936101
1493479643.2,40.4602354299654,-79.9276015722006,2.48000001907349,-0.0245819091796875,-0.974166870117188,0.141921997070312,-0.0149395347670175,-0.00628532648869601,-0.00120294986438879
1493479643.4,40.4602354299654,-79.9276015722006,2.48000001907349,-0.0089874267578125,-0.970550537109375,0.131057739257812,-0.00529969056925768,-0.0084763091175042,-0.0064296698197783
1493479643.6,40.4602354299654,-79.9276015722006,2.48000001907349,-0.023712158203125,-1.00950622558594,0.122283935546875,0.00105407915945336,-0.0170277193777486,-0.00847497753695916
1493479643.8,40.4602354299654,-79.9276015722006,2.48000001907349,-0.00469970703125,-0.935012817382812,0.143173217773438,-0.00852451233323463,-0.0105826032236479,-0.0053910369946474
1493479644.0,40.4602354299654,-79.9276015722006,2.48000001907349,-0.0068817138671875,-0.992401123046875,0.139892578125,-0.0289168694321894,-0.000873783153654998,0.0114345484563642
1493479644.2,40.460229059719,-79.9276224431395,1.38999998569489,0.0107269287109375,-0.978424072265625,0.133941650390625,-0.00347915364807952,-0.0223140941415559,0.00855167657635344
1493479644.4,40.460229059719,-79.9276224431395,1.38999998569489,-0.0006256103515625,-0.974472045898438,0.132247924804688,-0.00640436978942255,-0.00208578776575006,-6.01874406357908e-05
1493479644.6,40.460229059719,-79.9276224431395,1.38999998569489,-0.0116729736328125,-0.95245361328125,0.207183837890625,-0.0129765187275201,-0.0148066430286225,0.00630263703578153
1493479644.8,40.460229059719,-79.9276224431395,1.38999998569489,0.0035552978515625,-0.94732666015625,0.257049560546875,-0.00653486468283643,-0.0116577213557129,0.0042280345466098
1493479645.0,40.460229059719,-79.9276224431395,1.38999998569489,-0.004119873046875,-0.945602416992188,0.255599975585938,-0.0150726928215215,-0.00841052903857924,0.00733088353266112
1493479645.2,40.4602260841434,-79.9276363570987,0.769999980926514,-0.00341796875,-0.936614990234375,0.259902954101562,-0.00553804348681978,-0.014854846244353,0.00744513314342552
1493479645.4,40.4602260841434,-79.9276363570987,0.769999980926514,0.0001678466796875,-0.94549560546875,0.256317138671875,-0.0138228713219473,-0.00522938311647959,-0.0043928842180857
1493479645.6,40.4602260841434,-79.9276363570987,0.769999980926514,0.0057830810546875,-0.9398193359375,0.2589111328125,-0.0147970556486983,-0.000968858004570827,-0.00867870936035022
1493479645.8,40.4602260841434,-79.9276363570987,0.769999980926514,-0.00213623046875,-0.943313598632812,0.263641357421875,-0.00959457045922847,-0.0073841467544627,-0.00327781866966953
1493479646.0,40.4602260841434,-79.9276363570987,0.769999980926514,-0.0048675537109375,-0.950881958007812,0.252716064453125,-0.0224485837766049,-0.0136825227325001,-0.00126074046004351
1493479646.2,40.4602226475631,-79.9276485108583,1.00999999046326,-0.00579833984375,-0.94989013671875,0.245895385742188,-0.0266475898673329,-0.011528291726735,-0.00450793277717713
1493479646.4,40.4602226475631,-79.9276485108583,1.00999999046326,0.001861572265625,-0.937423706054688,0.242294311523438,-0.0172101459124191,-0.00946034714028848,0.00731170877281255
1493479646.6,40.4602226475631,-79.9276485108583,1.00999999046326,-0.008392333984375,-0.93865966796875,0.2640380859375,-0.00209351093291129,-0.0127525468798444,-0.00958445044708617
1493479646.8,40.4602226475631,-79.9276485108583,1.00999999046326,0.0140228271484375,-0.956375122070312,0.247329711914062,-0.004402737914119,-0.0191183008334608,4.26105774412678e-06
1493479647.0,40.4602226475631,-79.9276485108583,1.00999999046326,0.0202484130859375,-0.866409301757812,0.264144897460938,0.0167582074754326,-0.0383905323779282,0.0770380598010491
1493479647.2,40.4602203006302,-79.9276613351702,1.20000004768372,-0.0152435302734375,-0.948654174804688,0.255996704101562,-0.0394896189598039,0.00132172684900633,0.00705577899205593
1493479647.4,40.4602203006302,-79.9276613351702,1.20000004768372,-0.0323638916015625,-0.977706909179688,0.248001098632812,-0.0353092549967066,-0.0189169658550508,0.00181973797285114
1493479647.6,40.4602203006302,-79.9276613351702,1.20000004768372,-0.0202789306640625,-0.939987182617188,0.253936767578125,-0.0436952829532571,0.0162418205400662,0.0112390724323524
