timestamp,latitude,longitude,speed,accelerometerX,accelerometerY,accelerometerZ,gyroX,gyroY,gyroZ
1493478152.6,40.463503617831,-79.930441193357,2.46000003814697,-0.0448150634765625,-0.933975219726562,0.322891235351562,-0.0331478334559983,-0.0146761481352087,0.00183092324942948
1493478152.9,40.463503617831,-79.930441193357,2.46000003814697,-0.0670623779296875,-0.95172119140625,0.236007690429688,-0.0241418215976773,-0.0583442668453469,0.0201614610324449
1493478153.0,40.463503617831,-79.930441193357,2.46000003814697,-0.0612335205078125,-0.9521484375,0.1900634765625,-0.00289911716266026,-0.0595456188130817,0.0235806935559976
1493478153.2,40.4635142209385,-79.9304721225797,3.13000011444092,-0.044647216796875,-0.954010009765625,0.2108154296875,-0.0218898525799063,-0.0498498482324302,0.015897740127228
1493478153.4,40.4635142209385,-79.9304721225797,3.13000011444092,-0.0313568115234375,-0.93804931640625,0.186553955078125,-0.0100939131636183,-0.0329065510612371,0.0191734282680255
1493478153.6,40.4635142209385,-79.9304721225797,3.13000011444092,-0.03765869140625,-0.958511352539062,0.1875,-0.012098208200012,-0.0552350262726794,-0.00211375095719589
1493478153.8,40.4635142209385,-79.9304721225797,3.13000011444092,-0.0283355712890625,-0.97900390625,0.21063232421875,0.0114630442800281,-0.0351774285227476,-0.000858070503223531
1493478154.0,40.4635142209385,-79.9304721225797,3.13000011444092,-0.06011962890625,-0.98193359375,0.186904907226562,0.00961667469627613,-0.0904745064488259,0.0259210795219592
1493478154.2,40.4635270033409,-79.9305034708976,2.54999995231628,0.000885009765625,-0.94573974609375,0.16949462890625,-0.0109589078856761,-0.0531156826771944,-0.0063724118563416
1493478154.4,40.4635270033409,-79.9305034708976,2.54999995231628,-0.0555572509765625,-0.945083618164062,0.189544677734375,-0.0137261985743774,-0.100961768505449,0.013980796774589
1493478154.6,40.4635270033409,-79.9305034708976,2.54999995231628,-0.06121826171875,-0.96234130859375,0.168182373046875,-0.00165249145639417,-0.136137865447652,0.0461816101469551
1493478154.8,40.4635270033409,-79.9305034708976,2.54999995231628,-0.081085205078125,-0.928131103515625,0.19415283203125,-0.019257584158472,-0.116880547605289,0.0203625296947459
1493478155.0,40.4635270033409,-79.9305034708976,2.54999995231628,-0.0776214599609375,-0.959793090820312,0.190185546875,-0.0208323113110358,-0.159416822852143,0.034316961174543
1493478155.2,40.4635364748914,-79.9305233360081,1.95000004768372,-0.0513458251953125,-0.962677001953125,0.202423095703125,-0.0235125166320916,-0.145575842034783,0.00439980843691991
1493478155.4,40.4635364748914,-79.9305233360081,1.95000004768372,-0.0548095703125,-0.9638671875,0.1929931640625,-0.0119141837686875,-0.214785273495436,0.0526767937295493
1493478155.6,40.4635364748914,-79.9305233360081,1.95000004768372,-0.049957275390625,-0.94476318359375,0.19293212890625,0.000562992254442751,-0.213799104943779,0.0751924891656242
1493478155.8,40.4635364748914,-79.9305233360081,1.95000004768372,-0.0255279541015625,-0.982162475585938,0.185760498046875,-0.00704006634162447,-0.168016436328118,0.0334141495650062
1493478156.0,40.4635364748914,-79.9305233360081,1.95000004768372,-0.0464630126953125,-0.922897338867188,0.242996215820312,-0.000691622935093578,-0.196780173997628,0.0207588080649496
1493478156.2,40.4635474551846,-79.9305372499674,1.47000002861023,-0.0366363525390625,-0.95611572265625,0.273284912109375,-0.0196935436289179,-0.244517602853407,0.0601373732072973
1493478156.4,40.4635474551846,-79.9305372499674,1.47000002861023,-0.07537841796875,-0.924209594726562,0.277633666992188,-0.00928591008888829,-0.241391051733654,0.0794277142471772
1493478156.6,40.4635474551846,-79.9305372499674,1.47000002861023,-0.128158569335938,-0.9180908203125,0.340057373046875,-0.0110457269372126,-0.310519256781059,0.0923826613698677
1493478156.8,40.4635474551846,-79.9305372499674,1.47000002861023,-0.0696258544921875,-0.935317993164062,0.341705322265625,0.0206871690316265,-0.32880798293496,0.0980858208442724
1493478157.0,40.4635474551846,-79.9305372499674,1.47000002861023,-0.132232666015625,-0.898147583007812,0.414382934570312,-0.0253554241064264,-0.234902526053785,0.0899085847171841
1493478157.2,40.4635609919582,-79.9305410218238,1.88999998569489,-0.0874481201171875,-0.879486083984375,0.416748046875,-0.0201614610324449,-0.364707394429228,0.10628995489837
1493478157.4,40.4635609919582,-79.9305410218238,1.88999998569489,-0.164688110351562,-0.907943725585938,0.373611450195312,0.00476625940291481,-0.440392834712626,0.111005347924465
1493478157.6,40.4635609919582,-79.9305410218238,1.88999998569489,-0.146881103515625,-0.88787841796875,0.431259155273438,-0.00542512545660042,-0.339282195502242,0.0551969430690913
1493478157.8,40.4635609919582,-79.9305410218238,1.88999998569489,-0.144882202148438,-0.919952392578125,0.373870849609375,-0.0900987344190158,-0.441902314418483,0.116435267071027
1493478158.0,40.4635609919582,-79.9305410218238,1.88999998569489,-0.161666870117188,-0.853622436523438,0.43023681640625,-0.0920303251576502,-0.446134876338946,0.177200613663365
1493478158.2,40.4635884426911,-79.9305385910719,3.6800000667572,-0.202835083007812,-0.937332153320312,0.38848876953125,-0.0688267352120078,-0.407998409529011,0.136823629428347
1493478158.4,40.4635884426911,-79.9305385910719,3.6800000667572,-0.0890960693359375,-0.927459716796875,0.351913452148438,-0.0267264194355992,-0.314675918610455,0.0687761351512963
1493478158.6,40.4635884426911,-79.9305385910719,3.6800000667572,0.0852203369140625,-0.877120971679688,0.440582275390625,-0.0158074589662743,-0.278580498459957,0.0687947772789269
1493478158.8,40.4635884426911,-79.9305385910719,3.6800000667572,-0.0400238037109375,-0.8824462890625,0.412109375,-0.00799001590245573,-0.274367910247669,0.122174645536257
1493478159.0,40.4635884426911,-79.9305385910719,3.6800000667572,-0.053436279296875,-0.973907470703125,0.391204833984375,-0.0829215152812522,-0.230272087866464,0.0967707518979913
1493478159.2,40.46363181904,-79.930523000732,5.30999994277954,-0.0692596435546875,-0.927749633789062,0.386474609375,-0.100439522615684,-0.114221913889062,0.0397825666797127
1493478159.4,40.46363181904,-79.930523000732,5.30999994277954,-0.0476837158203125,-0.888381958007812,0.388626098632812,-0.0459405940683029,-0.051826180077378,-0.0173960345565066
1493478159.6,40.46363181904,-79.930523000732,5.30999994277954,-0.0076141357421875,-0.864181518554688,0.438644409179688,-0.11097179209473,-0.00778601776295566,0.0116784940122155
1493478159.8,40.46363181904,-79.930523000732,5.30999994277954,-0.119461059570312,-0.889663696289062,0.382293701171875,0.0484093443988063,-0.203471366236452,0.0863178446194302
1493478160.0,40.46363181904,-79.930523000732,5.30999994277954,0.0228729248046875,-0.849090576171875,0.363967895507812,0.035828571409272,0.0178437119357489,-0.0401953566486749
1493478160.2,40.46368462503,-79.9304898083954,7.30000019073486,-0.02001953125,-0.911148071289062,0.433502197265625,-0.073973826650804,-0.0612140892360163,0.00259924522391734
1493478160.4,40.46368462503,-79.9304898083954,7.30000019073486,-0.11669921875,-0.949722290039062,0.424575805664062,0.0256297296987046,-0.133119172352047,0.0773733517822901
1493478160.6,40.46368462503,-79.9304898083954,7.30000019073486,-0.017791748046875,-0.912918090820312,0.292572021484375,-0.101741542072624,0.00703900107718843,-0.0319800373179985
1493478160.8,40.46368462503,-79.9304898083954,7.30000019073486,-0.01116943359375,-0.759994506835938,0.382980346679688,-0.101819306376454,-0.051456799634184,0.0193483979516437
1493478161.0,40.46368462503,-79.9304898083954,7.30000019073486,0.1246337890625,-0.9747314453125,0.400421142578125,-0.00605389778996812,-0.0595131282477827,0.0981832925401693
1493478161.2,40.463756122664,-79.9304441270232,9.22999954223633,0.049072265625,-0.949966430664062,0.297012329101562,-0.0160849603518606,0.033071667048822,-0.0514283038105202
1493478161.4,40.463756122664,-79.9304441270232,9.22999954223633,-0.0308990478515625,-0.901077270507812,0.25811767578125,-0.0513593279382871,-0.102840362338391,0.039189480704952
1493478161.6,40.463756122664,-79.9304441270232,9.22999954223633,0.09222412109375,-0.907974243164062,0.4002685546875,-0.0388019907663455,0.109805593853384,-0.0614548389985595
1493478161.8,40.463756122664,-79.9304441270232,9.22999954223633,0.03350830078125,-0.89739990234375,0.341537475585938,0.00299499096190311,0.0372038277961889,-0.0427139080915629
1493478162.0,40.463756122664,-79.9304441270232,9.22999954223633,-0.082855224609375,-0.954437255859375,0.347946166992188,0.0367649388485439,-0.0278923513608359,0.0217726734919428
1493478162.2,40.4638296319549,-79.9303964339941,10.539999961853,-0.01202392578125,-0.8702392578125,0.292678833007812,-0.0432944772092002,0.0247450275845802,-0.0133016906966188
1493478162.4,40.4638296319549,-79.9303964339941,10.539999961853,-0.0848846435546875,-0.89263916015625,0.333786010742188,-0.0919738661425405,0.0335686129082308,-0.0308822823166679
1493478162.6,40.4638296319549,-79.9303964339941,10.539999961853,0.121734619140625,-0.998977661132812,0.33148193359375,-0.00559663303080152,-0.0616615002991496,-0.0137589554557854
1493478162.8,40.4638296319549,-79.9303964339941,10.539999961853,-0.0064239501953125,-0.947723388671875,0.343414306640625,-0.0400097343206964,0.0757855751403849,0.00792450213963978
1493478163.0,40.4638296319549,-79.9303964339941,10.539999961853,0.175872802734375,-0.928955078125,0.343185424804688,0.0340575692843693,-0.0268041837394295,0.0643907077842628
1493478163.2,40.4639194440473,-79.9303492438792,11.4300003051758,-0.0309295654296875,-1.07679748535156,0.313644409179688,0.08768697573584,-0.0197108541760035,0.040398555839848
1493478163.4,40.4639194440473,-79.9303492438792,11.4300003051758,0.0186767578125,-0.896759033203125,0.294265747070312,-0.0902137829781072,-0.0813177596728065,0.0110145679524587
1493478163.6,40.4639194440473,-79.9303492438792,11.4300003051758,0.121200561523438,-0.990066528320312,0.34027099609375,0.0654067037401281,0.064461814185368,0.00263573053085142
1493478163.8,40.4639194440473,-79.9303492438792,11.4300003051758,-0.0712432861328125,-0.955551147460938,0.303375244140625,-0.0381644300013805,-0.0550595239568432,0.0349364124440955
1493478164.0,40.4639194440473,-79.9303492438792,11.4300003051758,0.0303955078125,-0.769851684570312,0.28155517578125,-0.081504180949112,-0.0324412968188002,0.0237721748383743
1493478164.2,40.464026816227,-79.9302920792996,12.4700002670288,-0.0174102783203125,-1.03610229492188,0.373870849609375,-0.0545516591369651,0.0333358526289579,0.0356067300904684
1493478164.4,40.464026816227,-79.9302920792996,12.4700002670288,0.119293212890625,-0.950469970703125,0.256134033203125,0.00922838580934258,-0.0160130550024284,0.0171952322103146
1493478164.6,40.464026816227,-79.9302920792996,12.4700002670288,0.0564422607421875,-0.896408081054688,0.275604248046875,-0.0133046201738179,-0.110531305250431,0.0555921561748591
1493478164.8,40.464026816227,-79.9302920792996,12.4700002670288,-0.051483154296875,-0.889251708984375,0.291290283203125,-0.0539356699768298,-0.0400659270196971,0.0283389634756422
1493478165.0,40.464026816227,-79.9302920792996,12.4700002670288,-0.0096435546875,-0.908554077148438,0.312088012695312,-0.0396547349473889,-0.0050581418583875,0.0156002650334662
1493478165.2,40.4641305841882,-79.9302385189384,13.4300003051758,0.0116729736328125,-0.927871704101562,0.342239379882812,0.0209982262469478,0.0690022375278441,-0.0180887227560362
1493478165.4,40.4641305841882,-79.9302385189384,13.4300003051758,0.220932006835938,-1.00852966308594,0.149337768554688,-0.0347688996115295,-0.175269821873058,0.109916381354731
1493478165.6,40.4641305841882,-79.9302385189384,13.4300003051758,-0.0087127685546875,-0.939102172851562,0.328781127929688,-0.0348977966082893,0.0183089661781858,-0.0078680431245301
1493478165.8,40.4641305841882,-79.9302385189384,13.4300003051758,-0.041656494140625,-0.997360229492188,0.254745483398438,-0.021172396982239,0.122449750076862,-0.0975582486323277
1493478166.0,40.4641305841882,-79.9302385189384,13.4300003051758,-0.0249786376953125,-0.948440551757812,0.265640258789062,0.000205329720045109,-0.125508656904927,0.0717623376816022
1493478166.2,40.4642505711321,-79.9301728886365,13.9200000762939,-0.1529541015625,-0.985931396484375,0.302398681640625,-0.0333459726411002,-0.152943210874379,0.0960125499356457
1493478166.4,40.4642505711321,-79.9301728886365,13.9200000762939,0.0385894775390625,-1.00120544433594,0.188308715820312,-0.141054593452156,-0.0416292025795736,0.0125240476583156
1493478166.6,40.4642505711321,-79.9301728886365,13.9200000762939,-0.196212768554688,-0.893753051757812,0.271347045898438,-0.018282600883394,-0.147723947770041,0.0876235925018961
1493478166.8,40.4642505711321,-79.9301728886365,13.9200000762939,0.0897979736328125,-0.975936889648438,0.142654418945312,0.018385132585362,0.124318223897662,-0.10782020726073
1493478167.0,40.4642505711321,-79.9301728886365,13.9200000762939,0.106033325195312,-0.900039672851562,0.254425048828125,-0.0333824579480342,0.134236901061553,-0.0550651165951324
1493478167.2,40.4643682111432,-79.9301066716015,14.3100004196167,0.0743865966796875,-1.04190063476562,0.198989868164062,0.0775773499217902,0.12287452427073,-0.0762902441669549
1493478167.4,40.4643682111432,-79.9301066716015,14.3100004196167,0.0276336669921875,-0.937164306640625,0.2208251953125,-0.0320825690199666,0.0374312617532817,-0.0473384873244855
1493478167.6,40.4643682111432,-79.9301066716015,14.3100004196167,-0.115478515625,-0.8070068359375,0.296524047851562,-0.0641555506600088,-0.0240472793789795,0.00580249538306464
1493478167.8,40.4643682111432,-79.9301066716015,14.3100004196167,0.04632568359375,-0.971664428710938,0.232620239257812,-0.0758031520035794,0.0249506236207344,-0.0498863335393643
1493478168.0,40.4643682111432,-79.9301066716015,14.3100004196167,0.109390258789062,-0.836166381835938,0.271041870117188,-0.100843524153049,0.147433396895114,-0.0984384233725989
1493478168.2,40.4644808639218,-79.9300454837083,14.5699996948242,-0.227096557617188,-0.87506103515625,0.087493896484375,-0.0882012321423343,-0.136622827082155,0.14445465121586
1493478168.4,40.4644808639218,-79.9300454837083,14.5699996948242,-0.292190551757812,-0.8839111328125,0.257537841796875,-0.106434298229453,-0.156727562783381,0.0654200195455785
1493478168.6,40.4644808639218,-79.9300454837083,14.5699996948242,0.0403900146484375,-0.896133422851562,0.11346435546875,0.0164175891720115,0.0860443379754791,-0.0629605902788903
1493478168.8,40.4644808639218,-79.9300454837083,14.5699996948242,0.0675811767578125,-1.054931640625,0.18389892578125,-0.053574811649124,-0.0251791228422632,0.0101786016862828
1493478169.0,40.4644808639218,-79.9300454837083,14.5699996948242,-0.143096923828125,-0.92193603515625,0.135757446289062,0.0838357784834764,-0.13774881159104,0.101437941708355
1493478169.2,40.4646099452306,-79.9299722258746,14.5799999237061,-0.0136260986328125,-0.888824462890625,0.122039794921875,-0.0570800642758863,0.0205787783752603,-0.019829364844512
1493478169.4,40.4646099452306,-79.9299722258746,14.5799999237061,0.106155395507812,-0.946136474609375,0.141494750976562,-0.0851255473994018,0.117547403142244,-0.0960679436863194
1493478169.6,40.4646099452306,-79.9299722258746,14.5799999237061,-0.0449371337890625,-0.974655151367188,0.116500854492188,0.0168133349099973,-0.0277658512090571,0.00131000894020998
1493478169.8,40.4646099452306,-79.9299722258746,14.5799999237061,0.133056640625,-1.01905822753906,0.09173583984375,0.00471619197442132,0.0914393697117616,-0.0609618878807858
1493478170.0,40.4646099452306,-79.9299722258746,14.5799999237061,-0.041229248046875,-0.959335327148438,0.119537353515625,-0.00442537478338467,-0.055287490546154,-0.0180282689992914
1493478170.2,40.4647281300653,-79.9299009796976,14.3299999237061,-0.0362548828125,-0.92919921875,0.0847625732421875,-0.034719897447472,0.0172543543865144,0.0561093420585524
1493478170.4,40.4647281300653,-79.9299009796976,14.3299999237061,0.17559814453125,-1.02713012695312,0.01611328125,0.040129842885859,0.199702194345663,-0.0992624054138694
1493478170.6,40.4647281300653,-79.9299009796976,14.3299999237061,0.0465850830078125,-1.01319885253906,-0.005126953125,-0.0201188504550036,0.0533076965917891,-0.0568528966349026
1493478170.8,40.4647281300653,-79.9299009796976,14.3299999237061,-0.028045654296875,-0.919281005859375,0.105560302734375,-0.00822730355558179,-0.153113919500253,0.0504229604990153
1493478171.0,40.4647281300653,-79.9299009796976,14.3299999237061,0.160125732421875,-0.881134033203125,0.0774078369140625,-0.0412491694920193,0.15662050370756,-0.0903884863456164
1493478171.2,40.4648347897832,-79.929838618338,13.4200000762939,0.087371826171875,-1.00787353515625,0.030120849609375,-0.0888949856062999,0.134599623602022,-0.0449722686959501
1493478171.4,40.4648347897832,-79.929838618338,13.4200000762939,0.0977935791015625,-0.99737548828125,0.0469970703125,-0.0147650977156173,0.00328580815293976,-0.00868936200471054
1493478171.6,40.4648347897832,-79.929838618338,13.4200000762939,-0.0047607421875,-0.978912353515625,-0.012451171875,-0.0444742575721053,-0.058210842474734,0.0274164444740387
1493478171.8,40.4648347897832,-79.929838618338,13.4200000762939,-0.0316314697265625,-0.953155517578125,0.0635986328125,-0.0393503356347928,-0.073135197223538,0.0339047038377988
1493478172.0,40.4648347897832,-79.929838618338,13.4200000762939,-0.0343780517578125,-0.99554443359375,0.03375244140625,-0.0169584771894066,-0.0169116055542212,-0.01505698017109
1493478172.2,40.4649440898006,-79.9297783524542,12.2299995422363,0.144210815429688,-0.989181518554688,-0.01446533203125,-0.000610929154064177,0.172311316218089,-0.0942777668015681
1493478172.4,40.4649440898006,-79.9297783524542,12.2299995422363,0.0701446533203125,-1.03518676757812,0.040924072265625,0.0637294448855962,-0.0131783863381481,0.00495134909867532
1493478172.6,40.4649440898006,-79.9297783524542,12.2299995422363,0.070037841796875,-0.987991333007812,0.0656280517578125,-0.0339023069928177,0.0246861717244895,0.000655403944268501
1493478172.8,40.4649440898006,-79.9297783524542,12.2299995422363,-0.0051727294921875,-1.00401306152344,0.0319671630859375,-0.0271543894227749,0.0608076908536702,-0.00576601007613056
1493478173.0,40.4649440898006,-79.9297783524542,12.2299995422363,0.0629730224609375,-0.980224609375,-0.012237548828125,-0.0355497384431407,0.0810732814847372,-0.00377183505187923
1493478173.2,40.4650383023922,-79.9297287315875,10.8699998855591,0.07379150390625,-0.997833251953125,0.0492095947265625,-0.0423509192349851,0.0183574357100252,-0.00794447584781537
1493478173.4,40.4650383023922,-79.9297287315875,10.8699998855591,-0.072235107421875,-0.988693237304688,-0.022430419921875,-0.0210248578578486,-0.0296407166164729,0.0414435802515951
1493478173.6,40.4650383023922,-79.9297287315875,10.8699998855591,-0.0407867431640625,-1.0279541015625,0.0479888916015625,0.0494551677588805,-0.0375481745251362,0.0229937328517441
1493478173.8,40.4650383023922,-79.9297287315875,10.8699998855591,0.031768798828125,-1.01728820800781,0.025054931640625,0.00822384144616469,0.187143525593176,-0.109152586754097
1493478174.0,40.4650383023922,-79.9297287315875,10.8699998855591,0.050506591796875,-1.02244567871094,0.005401611328125,-0.055690693135192,-0.141096138765161,0.101084273915593
1493478174.2,40.4651199840386,-79.9296885822713,9.39999961853027,-0.042144775390625,-1.01434326171875,0.012359619140625,0.0252219997358134,-0.00335158823186472,0.0226573756060671
1493478174.4,40.4651199840386,-79.9296885822713,9.39999961853027,-0.07855224609375,-0.909027099609375,0.0662078857421875,-0.0252592839910745,0.0373942438141296,-0.00142132907377529
1493478174.6,40.4651199840386,-79.9296885822713,9.39999961853027,-0.0523681640625,-0.976425170898438,-0.02789306640625,-0.0222728151446597,0.00971814113380815,-0.00131933000402525
1493478174.8,40.4651199840386,-79.9296885822713,9.39999961853027,-0.081695556640625,-0.998870849609375,0.06549072265625,-0.0110481237821937,-0.0435397543455965,0.0053303169217936
1493478175.0,40.4651199840386,-79.9296885822713,9.39999961853027,-0.0117645263671875,-1.03054809570312,0.06640625,0.0034045851375573,-0.00321603333237969,-0.0170162677850613
1493478175.2,40.465192487501,-79.9296525400876,7.90999984741211,-0.137588500976562,-1.00010681152344,0.0938873291015625,-0.00264744843964777,-0.0786988070568226,-0.00515508092206638
1493478175.4,40.465192487501,-79.9296525400876,7.90999984741211,-0.029052734375,-0.995468139648438,0.0987396240234375,-0.0385766873381248,-0.0305967914478114,0.000750212479075321
1493478175.6,40.465192487501,-79.9296525400876,7.90999984741211,-0.119827270507812,-0.989212036132812,0.0714874267578125,-0.0801723340879634,-0.136694199799369,0.0251210659304994
1493478175.8,40.465192487501,-79.9296525400876,7.90999984741211,-0.0978546142578125,-0.987014770507812,-0.01593017578125,-0.0235620514283671,0.0416310667923367,-0.0451296615163738
1493478176.0,40.465192487501,-79.9296525400876,7.90999984741211,0.0054473876953125,-0.976776123046875,0.05029296875,0.0116574550396038,-0.0170961626177637,-0.00516759777918975
1493478176.2,40.4652525438373,-79.9296193477511,6.6100001335144,0.0131988525390625,-1.01026916503906,0.0029449462890625,-0.0235138482126366,-0.100895722110415,0.0288074135113871
1493478176.4,40.4652525438373,-79.9296193477511,6.6100001335144,-0.108642578125,-0.964370727539062,0.01416015625,0.0180612921968084,-0.0788266387891464,0.0377058336616689
1493478176.6,40.4652525438373,-79.9296193477511,6.6100001335144,-0.116928100585938,-0.950225830078125,0.0870513916015625,-0.0544651064015375,-0.0273029938116014,-0.00368581494866967
1493478176.8,40.4652525438373,-79.9296193477511,6.6100001335144,0.0143280029296875,-1.03578186035156,0.0118255615234375,-0.0247293149341488,0.0416398552239339,-0.0376781367863321
1493478177.0,40.4652525438373,-79.9296193477511,6.6100001335144,-0.0261077880859375,-0.98907470703125,0.03363037109375,-0.0361409602051383,0.0374677470602158,0.015526495471271
1493478177.2,40.4653001949568,-79.9295895081758,5.23000001907349,-0.08648681640625,-1.00698852539062,0.0419769287109375,-0.0227761525906847,-0.0572928508469837,-0.00115155085535026
1493478177.4,40.4653001949568,-79.9295895081758,5.23000001907349,0.003082275390625,-0.968124389648438,0.03009033203125,-0.0229327464627813,0.0246110705817493,-0.0226888009069301
1493478177.6,40.4653001949568,-79.9295895081758,5.23000001907349,-0.0030059814453125,-1.02153015136719,0.0400238037109375,0.00298433831754279,0.055288822126699,-0.032098547986507
1493478177.8,40.4653001949568,-79.9295895081758,5.23000001907349,-0.058868408203125,-0.984176635742188,0.0550384521484375,0.0359878284424588,-0.0129972913840227,0.00893170966390775
1493478178.0,40.4653001949568,-79.9295895081758,5.23000001907349,-0.04217529296875,-0.97296142578125,0.04522705078125,-0.00618465899949102,0.0213140771522312,-0.00331696713769369
1493478178.2,40.4653361114119,-79.9295681343227,3.82999992370605,-0.014892578125,-0.992233276367188,0.0430450439453125,-0.0268965954292553,0.000178165476926301,0.0199822302910825
1493478178.4,40.4653361114119,-79.9295681343227,3.82999992370605,-0.0389556884765625,-0.982711791992188,0.116500854492188,0.011963718564963,0.0275783646683155,-0.00314732377625564
1493478178.6,40.4653361114119,-79.9295681343227,3.82999992370605,-0.04156494140625,-0.987747192382812,0.04150390625,-0.00720544864531839,0.00961827259293018,-0.0128931617854006
1493478178.8,40.4653361114119,-79.9295681343227,3.82999992370605,0.0001220703125,-0.9639892578125,0.0366668701171875,0.00442936952501979,0.00316063958170604,-0.0106249474849801
1493478179.0,40.4653361114119,-79.9295681343227,3.82999992370605,-0.0350341796875,-0.9879150390625,0.043701171875,0.00302108994058589,-0.00746430790327409,0.00857990608390828
1493478179.2,40.4653619695832,-79.9295510352402,2.66000008583069,-0.022674560546875,-0.992630004882812,0.059844970703125,0.00455853283788863,0.0223069036066127,-0.00960682100024284
1493478179.4,40.4653619695832,-79.9295510352402,2.66000008583069,-0.03277587890625,-0.956207275390625,0.030792236328125,-0.00138963745680335,-0.0159443454463044,0.0149539158369039
1493478179.6,40.4653619695832,-79.9295510352402,2.66000008583069,-0.0497894287109375,-1.01182556152344,0.0464324951171875,-0.00416305341601187,0.00108976551806042,-0.00644271930911969
1493478179.8,40.4653619695832,-79.9295510352402,2.66000008583069,-0.017974853515625,-1.01325988769531,0.045623779296875,0.00782197043767173,0.0276039310147803,-0.0117195066930027
1493478180.0,40.4653619695832,-79.9295510352402,2.66000008583069,-0.030029296875,-0.964752197265625,0.100433349609375,-0.0221130254792549,0.00758761226174476,-0.0141067642941497
1493478180.2,40.4653781466563,-79.9295413122325,1.37000000476837,0.0024566650390625,-0.985137939453125,0.0535125732421875,-0.0136431079483669,0.0245540789344216,-0.00126926257553176
1493478180.4,40.4653781466563,-79.9295413122325,1.37000000476837,-0.0323944091796875,-0.980148315429688,0.112564086914062,-0.00312628480364402,0.00321097332630854,-0.00323893651775437
1493478180.6,40.4653781466563,-79.9295413122325,1.37000000476837,-0.0160369873046875,-0.979034423828125,0.118576049804688,-0.0082142540662404,0.0170708625874079,-0.0129227228735005
1493478180.8,40.4653781466563,-79.9295413122325,1.37000000476837,-0.0201416015625,-0.973785400390625,0.123245239257812,-0.0095146756265261,0.00325251863931377,-0.00330445028057032
1493478181.0,40.4653781466563,-79.9295413122325,1.37000000476837,-0.0348358154296875,-0.974655151367188,0.119430541992188,-0.0105114968225428,0.0064496435279539,-0.00652154887738604
1493478181.2,40.4653843911742,-79.9295376241951,0.550000011920929,-0.02227783203125,-0.962509155273438,0.184295654296875,5.19316412565451e-05,0.00106286759105062,-0.00320085331416624
1493478181.4,40.4653843911742,-79.9295376241951,0.550000011920929,-0.0294342041015625,-0.950103759765625,0.215576171875,-0.00220669527923966,-0.00636761816637946,0.00212626781431926
1493478181.6,40.4653843911742,-79.9295376241951,0.550000011920929,-0.016510009765625,-0.95806884765625,0.202316284179688,-0.00846725436979793,-0.00100933805314003,-0.0043489420600994
1493478181.8,40.4653843911742,-79.9295376241951,0.550000011920929,-0.0178375244140625,-0.952072143554688,0.21234130859375,-0.0170450299248341,-0.00308047843289465,-0.00123277726859768
1493478182.0,40.4653843911742,-79.9295376241951,0.550000011920929,-0.027435302734375,-0.971282958984375,0.226852416992188,-0.000983505390566263,0.00106925917766681,-0.005343899043353
1493478182.2,40.4653877439354,-79.9295359478145,0.449999988079071,-0.0167999267578125,-0.948516845703125,0.262420654296875,-0.00206155299983034,0.00320404910747433,-0.00322801755728504
1493478182.4,40.4653877439354,-79.9295359478145,0.449999988079071,-0.020477294921875,-0.935211181640625,0.298049926757812,-0.00843662801726202,0.00111772870950626,-0.00542033176663827
1493478182.6,40.4653877439354,-79.9295359478145,0.449999988079071,-0.0263671875,-0.933349609375,0.313613891601562,-0.0160921508868038,-0.00627680437320776,0.0051825114812942
1493478182.8,40.4653877439354,-79.9295359478145,0.449999988079071,0.013031005859375,-0.931076049804688,0.294418334960938,-0.00469648458235474,0.0425756900309878,-0.0225484523174829
1493478183.0,40.4653877439354,-79.9295359478145,0.449999988079071,-0.0304412841796875,-0.93316650390625,0.314132690429688,0.00842198063126658,-0.0128193922232054,0.00011930961683555
1493478183.2,40.4653957905625,-79.9295310863107,1.33000004291534,-0.0181121826171875,-0.937713623046875,0.359573364257812,0.00110734238125495,-0.00213532256202553,-0.00424800825478539
1493478183.4,40.4653957905625,-79.9295310863107,1.33000004291534,0.0128326416015625,-0.914352416992188,0.313613891601562,-0.0242211837981617,0.0182391913576257,-0.00989098028855429
1493478183.6,40.4653957905625,-79.9295310863107,1.33000004291534,-0.0636444091796875,-0.933609008789062,0.32647705078125,-0.00152679025294243,-0.0244523461807805,0.0203055380474182
1493478183.8,40.4653957905625,-79.9295310863107,1.33000004291534,0.0146484375,-0.962814331054688,0.264114379882812,0.0184000462874665,0.0105149589319599,-0.0158319600483031
1493478184.0,40.4653957905625,-79.9295310863107,1.33000004291534,-0.027618408203125,-0.918792724609375,0.37054443359375,-0.0353731708628685,0.00767949131935249,0.0209422998640561
1493478184.2,40.4654126800974,-79.929518764913,2.79999995231628,0.011016845703125,-0.927780151367188,0.402099609375,-0.0207252522352146,-0.0307099757941397,0.0190589123411521
1493478184.4,40.4654126800974,-79.929518764913,2.79999995231628,-0.032501220703125,-0.924606323242188,0.394668579101562,0.000909735828371068,-0.0648841915342545,0.0534874599653694
1493478184.6,40.4654126800974,-79.929518764913,2.79999995231628,-0.109222412109375,-0.908676147460938,0.29595947265625,0.0166474199740853,0.0392448744556257,-0.0276524005466198
1493478184.8,40.4654126800974,-79.929518764913,2.79999995231628,-0.0497283935546875,-0.917449951171875,0.282012939453125,0.0381905289800633,-0.0247144012320443,-0.00274385487110864
1493478185.0,40.4654126800974,-79.929518764913,2.79999995231628,-0.035186767578125,-0.977798461914062,0.310516357421875,0.0532738744459451,-0.0109850068643588,-0.00795592744050272
1493478185.2,40.465446040072,-79.929500324726,4.53000020980835,-0.03533935546875,-0.9178466796875,0.31671142578125,-0.033070601784386,-0.0082946815311608,-0.000317182485828437
1493478185.4,40.465446040072,-79.929500324726,4.53000020980835,-0.039947509765625,-0.94512939453125,0.284774780273438,-0.0875263871221082,-0.020704479578712,0.00342216200075182
1493478185.6,40.465446040072,-79.929500324726,4.53000020980835,-0.0620574951171875,-0.906021118164062,0.3609619140625,0.0500423947792429,-0.0120273681150159,-0.00585389439210317
1493478185.8,40.465446040072,-79.929500324726,4.53000020980835,0.0257415771484375,-0.974594116210938,0.313705444335938,0.0361596023327689,-0.00768135553211555,-0.000676176600771119
1493478186.0,40.465446040072,-79.929500324726,4.53000020980835,-0.0451507568359375,-0.977081298828125,0.342041015625,-0.0440601360225979,-0.0401335713113851,0.00711596643269172
1493478186.2,40.4654920148109,-79.9294719938933,5.76999998092651,-0.0505828857421875,-0.888504028320312,0.362823486328125,-0.0375718766588379,-0.0327302497970738,0.00396464791480096
1493478186.4,40.4654920148109,-79.9294719938933,5.76999998092651,-0.06353759765625,-0.948013305664062,0.2392578125,0.0378341980262107,-0.0162098626069853,-0.0496828680320822
1493478186.6,40.4654920148109,-79.9294719938933,5.76999998092651,-0.03924560546875,-0.871994018554688,0.221786499023438,-0.0116894129726848,-0.0105623631993633,-0.00755592064477281
1493478186.8,40.4654920148109,-79.9294719938933,5.76999998092651,0.0698089599609375,-0.914077758789062,0.256454467773438,-0.0329198668666875,-0.127419474987059,0.0788916199197443
1493478187.0,40.4654920148109,-79.9294719938933,5.76999998092651,-0.001800537109375,-0.925994873046875,0.30987548828125,-0.100877079982784,-0.036568131243987,0.0363790468065914
1493478187.2,40.4655483831097,-79.9294408970325,7.17000007629395,-0.0839996337890625,-0.958587646484375,0.3280029296875,0.0216554944039793,0.0147483198007498,-0.0179419825799728
1493478187.4,40.4655483831097,-79.9294408970325,7.17000007629395,0.028076171875,-0.9039306640625,0.33551025390625,-0.0176242674619264,-0.0626434077930619,0.00851093021167523
1493478187.6,40.4655483831097,-79.9294408970325,7.17000007629395,-0.0932464599609375,-0.922943115234375,0.2203369140625,-0.0102624912606203,0.00644511615410076,-0.0246446264114843
1493478187.8,40.4655483831097,-79.9294408970325,7.17000007629395,-0.087677001953125,-0.947555541992188,0.206680297851562,-0.0179318625678305,-0.0626378151547727,0.0308982612832083
1493478188.0,40.4655483831097,-79.9294408970325,7.17000007629395,-0.0727081298828125,-0.934646606445312,0.364761352539062,-0.0285621363749908,0.0437874283269738,-0.0675769137124336
1493478188.2,40.4656112473835,-79.9294005800783,8.25,0.106277465820312,-1.00502014160156,0.290740966796875,0.0262340009500436,0.0104595651812862,-0.0434731753183445
1493478188.4,40.4656112473835,-79.9294005800783,8.25,0.05517578125,-0.979568481445312,0.234359741210938,0.0699194302072673,-0.00257820625130571,0.0252454355534061
1493478188.6,40.4656112473835,-79.9294005800783,8.25,0.0432586669921875,-0.975830078125,0.244873046875,-0.0149102399950266,0.0522237900281268,0.028500351037701
1493478188.8,40.4656112473835,-79.9294005800783,8.25,-0.0983734130859375,-0.974349975585938,0.24761962890625,0.0493206781238315,-0.0535029062996919,0.024099743652454
1493478189.0,40.4656112473835,-79.9294005800783,8.25,-0.046478271484375,-0.93182373046875,0.20599365234375,-0.0265770160984458,-0.00408289226720048,-0.0055926382891664
1493478189.2,40.4656817391892,-79.9293544796109,8.9399995803833,-0.0097198486328125,-0.935867309570312,0.220916748046875,-0.0640556821191309,-0.016602412551663,0.00258566310235793
1493478189.4,40.4656817391892,-79.9293544796109,8.9399995803833,-0.0964202880859375,-0.909454345703125,0.220413208007812,-0.0458479160623681,-0.0837297846720912,0.0359979484546011
1493478189.6,40.4656817391892,-79.9293544796109,8.9399995803833,0.035125732421875,-1.00907897949219,0.178665161132812,0.0230384739580575,0.043458527932349,-0.0254654126594467
1493478189.8,40.4656817391892,-79.9293544796109,8.9399995803833,0.08697509765625,-0.878631591796875,0.252593994140625,0.0333385157900479,-0.0991303126238015,0.0773645633506929
1493478190.0,40.4656817391892,-79.9293544796109,8.9399995803833,-0.0404815673828125,-0.878631591796875,0.267593383789062,-0.0178559624767633,-0.046682018115781,0.0340565040199333
1493478190.2,40.4657564638559,-79.9293076247721,9.35999965667725,0.0242767333984375,-0.895797729492188,0.247756958007812,-0.0184727505852256,0.0416007067559098,-0.0280180525642876
1493478190.4,40.4657564638559,-79.9293076247721,9.35999965667725,0.066192626953125,-0.956588745117188,0.233078002929688,0.026853185903487,0.0753408272383417,-0.0532301986040678
1493478190.6,40.4657564638559,-79.9293076247721,9.35999965667725,0.0018463134765625,-0.988357543945312,0.234390258789062,-0.0148676294175854,-0.00841425746410535,-0.00759400384836095
1493478190.8,40.4657564638559,-79.9293076247721,9.35999965667725,-0.0127716064453125,-1.0238037109375,0.244033813476562,0.0448785254255793,0.0209825135965163,0.00040533311791006
1493478191.0,40.4657564638559,-79.9293076247721,9.35999965667725,0.03131103515625,-0.946807861328125,0.253662109375,-0.0216336564830407,0.0831095344542118,-0.00789946842539304
1493478191.2,40.4658387322356,-79.9292601832002,9.94999980926514,0.0655059814453125,-0.922882080078125,0.265426635742188,-0.0643174708542857,0.037644314640488,-0.0263447884513908
1493478191.4,40.4658387322356,-79.9292601832002,9.94999980926514,-0.125869750976562,-0.954010009765625,0.260482788085938,-0.0283181908191396,-0.043424705786505,0.0222126277040239
1493478191.6,40.4658387322356,-79.9292601832002,9.94999980926514,-0.034942626953125,-0.966873168945312,0.24066162109375,0.0711005421507175,0.0591014035432565,-0.0271461336233957
1493478191.8,40.4658387322356,-79.9292601832002,9.94999980926514,-0.0184326171875,-0.9744873046875,0.227798461914062,-0.0289514905263604,0.00231828172891398,0.0156908125105289
1493478192.0,40.4658387322356,-79.9292601832002,9.94999980926514,-0.140579223632812,-0.911163330078125,0.206893920898438,0.0253298577599616,0.0168588749646376,0.0258049656984318
1493478192.2,40.4659233056386,-79.9292098079621,10.5200004577637,0.0085906982421875,-0.952835083007812,0.187545776367188,-0.0595117966672377,0.0174066872008669,0.000411991020635258
1493478192.4,40.4659233056386,-79.9292098079621,10.5200004577637,0.122467041015625,-0.934127807617188,0.11212158203125,-0.0505268237815283,0.129018170589434,-0.127729733254053
1493478192.6,40.4659233056386,-79.9292098079621,10.5200004577637,0.0435943603515625,-1.03030395507812,0.0769500732421875,0.0143906572663522,0.0977582520301926,-0.0640777863561785
1493478192.8,40.4659233056386,-79.9292098079621,10.5200004577637,-0.141372680664062,-1.02427673339844,0.148956298828125,-0.0109530489312779,0.0426148384990119,-0.0322085365395273
1493478193.0,40.4659233056386,-79.9292098079621,10.5200004577637,-0.107254028320312,-0.934310913085938,0.146484375,-0.0737906011678065,-0.088864092937655,0.0517183220532298
1493478193.2,40.4660116089885,-79.9291604385524,10.6199998855591,-0.016510009765625,-0.969711303710938,0.165817260742188,-0.00317768381268255,0.0659643696723907,-0.042851327203811
1493478193.4,40.4660116089885,-79.9291604385524,10.6199998855591,-0.0393829345703125,-0.936447143554688,0.205703735351562,-0.0128793133477322,-0.0116169749910346,0.000964330630717692
1493478193.6,40.4660116089885,-79.9291604385524,10.6199998855591,0.014434814453125,-1.04220581054688,0.166519165039062,-0.0116547918785138,0.0096494315776841,0.000921986369385432
1493478193.8,40.4660116089885,-79.9291604385524,10.6199998855591,-0.119873046875,-0.897247314453125,0.208633422851562,-0.0527436390729103,-0.133678169864854,0.0456521737222473
1493478194.0,40.4660116089885,-79.9291604385524,10.6199998855591,0.009429931640625,-0.993453979492188,0.176376342773438,-0.00105487810778039,0.0436105944305926,-0.0545002601279266
1493478194.2,40.4660980683197,-79.9291108176857,10.3199996948242,-0.115982055664062,-0.971221923828125,0.121292114257812,0.0321392943511853,-0.103376190349715,0.0848267407250949
1493478194.4,40.4660980683197,-79.9291108176857,10.3199996948242,-0.084381103515625,-0.950698852539062,0.09161376953125,-0.00420300083236305,-0.015930497008636,-0.0127964890378307
1493478194.6,40.4660980683197,-79.9291108176857,10.3199996948242,-0.0334014892578125,-0.980209350585938,0.09857177734375,-0.00203944876278268,-0.0829526742660061,0.0257823288291661
1493478194.8,40.4660980683197,-79.9291108176857,10.3199996948242,0.0018157958984375,-0.985977172851562,0.144439697265625,-0.0750220468558592,0.0164383618285141,-0.0338631585247935
1493478195.0,40.4660980683197,-79.9291108176857,10.3199996948242,0.102813720703125,-0.980239868164062,0.10552978515625,-0.0792881646060571,-0.0111804828883707,0.029071066459305
1493478195.2,40.4661798756946,-79.929061448276,9.92000007629395,0.05731201171875,-1.05029296875,0.088134765625,-0.0141496411877,-0.110528375773232,0.039590286449009
1493478195.4,40.4661798756946,-79.929061448276,9.92000007629395,-0.20574951171875,-0.978439331054688,0.192703247070312,0.0277882217622138,0.0274771645468925,0.00767709447437142
1493478195.6,40.4661798756946,-79.929061448276,9.92000007629395,0.0772857666015625,-0.979690551757812,0.119369506835938,0.0573549025003825,0.0836573466904411,-0.0209529525084164
1493478195.8,40.4661798756946,-79.929061448276,9.92000007629395,0.028228759765625,-0.956207275390625,0.124008178710938,-0.0218965104826315,-0.0604878452067517,0.0105940548163352
1493478196.0,40.4661798756946,-79.929061448276,9.92000007629395,-0.0181732177734375,-0.982574462890625,0.124465942382812,-0.0379401918375959,0.0151355434232473,-0.0206855711349725
1493478196.2,40.4662594199557,-79.929011240676,9.51000022888184,0.0476226806640625,-1.02474975585938,0.1502685546875,0.0404558138032847,0.0167579411593236,0.00996688037962155
1493478196.4,40.4662594199557,-79.929011240676,9.51000022888184,0.0115814208984375,-0.994522094726562,0.165359497070312,0.0265631676607773,-0.057605505958959,0.0505326827359265
1493478196.6,40.4662594199557,-79.929011240676,9.51000022888184,-0.238494873046875,-0.847976684570312,0.191650390625,-0.000641821822709096,-0.101050451769749,-0.00827550677131222
1493478196.8,40.4662594199557,-79.929011240676,9.51000022888184,-0.158538818359375,-0.9552001953125,0.190521240234375,-0.0189659680191083,-0.048801894343484,0.0361830381503616
1493478197.0,40.4662594199557,-79.929011240676,9.51000022888184,-0.056854248046875,-0.9034423828125,0.15509033203125,-0.0677726560525545,-0.00488263954255127,-0.0305352724266305
1493478197.2,40.4663353599985,-79.9289626256376,9.21000003814697,-0.0231475830078125,-0.976394653320312,0.134979248046875,-0.0405170665083565,-0.00931014485480801,-0.00145701543238235
1493478197.4,40.4663353599985,-79.9289626256376,9.21000003814697,-0.066680908203125,-0.9971923828125,0.13311767578125,-0.0705692415132467,-0.0176224032491633,0.0110513195755018
1493478197.6,40.4663353599985,-79.9289626256376,9.21000003814697,-0.001556396484375,-0.96771240234375,0.180496215820312,0.0327249234748937,0.0689258048045588,-0.0190346775752323
1493478197.8,40.4663353599985,-79.9289626256376,9.21000003814697,-0.042144775390625,-0.982666015625,0.182998657226562,-0.00666402799570528,-0.0308039853806195,0.00320990806187251
1493478198.0,40.4663353599985,-79.9289626256376,9.21000003814697,-0.0539093017578125,-0.973098754882812,0.201370239257812,-0.0144580352419312,-0.0371321887628658,0.0244707219923021
1493478198.2,40.4664112581317,-79.9289145135134,9.11999988555908,-0.059844970703125,-0.93792724609375,0.24737548828125,-0.046414636742337,-0.060328055541347,0.0124750454942582
1493478198.4,40.4664112581317,-79.9289145135134,9.11999988555908,-0.05999755859375,-0.928253173828125,0.189956665039062,-0.028332838205135,-0.043424439470396,0.0232786910883826
1493478198.6,40.4664112581317,-79.9289145135134,9.11999988555908,0.0182342529296875,-0.962783813476562,0.209320068359375,0.00848003754303031,-0.100040581084391,0.0259341290113006
1493478198.8,40.4664112581317,-79.9289145135134,9.11999988555908,0.0123291015625,-0.977706909179688,0.184616088867188,0.0394549978656329,-0.0332354514558619,-0.0219007715403756
1493478199.0,40.4664112581317,-79.9289145135134,9.11999988555908,-0.007781982421875,-0.995452880859375,0.223678588867188,-0.00221734792359997,-0.0116864834954857,7.45685105222187e-06
1493478199.2,40.4664868209888,-79.9288648926466,9.42000007629395,-0.0941925048828125,-0.97540283203125,0.20947265625,0.00542432650827339,-0.0893842082985475,0.021610486981557
1493478199.4,40.4664868209888,-79.9288648926466,9.42000007629395,0.06658935546875,-1.04313659667969,0.26312255859375,-0.00834075421801917,-0.0329259921371947,-0.030920631836365
1493478199.6,40.4664868209888,-79.9288648926466,9.42000007629395,0.0729522705078125,-1.02716064453125,0.269607543945312,0.00534549694000705,0.0510155138415579,-0.051255198339665
1493478199.8,40.4664868209888,-79.9288648926466,9.42000007629395,-0.129806518554688,-0.9427490234375,0.262741088867188,-0.01243696229067,-0.121172764334169,0.0641582138210989
1493478200.0,40.4664868209888,-79.9288648926466,9.42000007629395,0.138031005859375,-0.960174560546875,0.194183349609375,-0.00139043640513037,0.0691481787555804,-0.0161858941571746
1493478200.2,40.466566532888,-79.9288152717798,10.0500001907349,-0.100067138671875,-0.959930419921875,0.306884765625,-0.034719098499145,-0.0912420294749868,0.0745149809843081
1493478200.4,40.466566532888,-79.9288152717798,10.0500001907349,-0.005828857421875,-0.958877563476562,0.176010131835938,0.0088864359253764,0.153101935275347,-0.0983958127951576
1493478200.6,40.466566532888,-79.9288152717798,10.0500001907349,0.112319946289062,-0.93670654296875,0.153350830078125,0.0222941204333803,0.0243234491840207,0.0182911229988822
1493478200.8,40.466566532888,-79.9288152717798,10.0500001907349,0.0057830810546875,-0.928619384765625,0.295806884765625,-0.0213332519120797,0.0320535405640847,0.0199569302607268
1493478201.0,40.466566532888,-79.9288152717798,10.0500001907349,0.0305633544921875,-0.973526000976562,0.191757202148438,-0.0545948023466244,-0.0283520129649836,0.082678901305946
1493478201.2,40.4666518187527,-79.9287643098085,10.7299995422363,-0.03363037109375,-0.935882568359375,0.256881713867188,-0.00988219185695703,-0.045676142172058,-0.00318194487042667
1493478201.4,40.4666518187527,-79.9287643098085,10.7299995422363,0.08978271484375,-0.960723876953125,0.213623046875,-0.0820674395196638,-0.0898768931002121,0.0335105559964671
1493478201.6,40.4666518187527,-79.9287643098085,10.7299995422363,0.0107421875,-0.82684326171875,0.24530029296875,0.0513409521267656,-0.0641528874989188,0.0262803399530109
1493478201.8,40.4666518187527,-79.9287643098085,10.7299995422363,-0.0465240478515625,-0.880767822265625,0.15771484375,-0.012537629779875,-0.0669289666192174,0.0235010650394042
1493478202.0,40.4666518187527,-79.9287643098085,10.7299995422363,0.01177978515625,-1.01170349121094,0.201797485351562,-0.0249801847088342,-0.02429948073421,0.0221974476858104
1493478202.2,40.4667466599871,-79.9287118390947,11.1899995803833,-0.0207366943359375,-0.971481323242188,0.304168701171875,0.00946860293966772,0.00950162613718471,-0.0639004198275793
1493478202.4,40.4667466599871,-79.9287118390947,11.1899995803833,-0.0579833984375,-0.987686157226562,0.117904663085938,-0.0129086081197231,-0.0116164423588166,0.00309645739943513
1493478202.6,40.4667466599871,-79.9287118390947,11.1899995803833,-0.00927734375,-0.981826782226562,0.198760986328125,0.0291307212677227,-0.0597549432747619,0.017511882063925
1493478202.8,40.4667466599871,-79.9287118390947,11.1899995803833,-0.0710296630859375,-1.01597595214844,0.230087280273438,-0.068091702751146,0.0514927523089001,-0.0541407333807659
1493478203.0,40.4667466599871,-79.9287118390947,11.1899995803833,0.0274810791015625,-0.9959716796875,0.14093017578125,0.0187377351136885,-0.0394779010510076,0.00988964870800925
1493478203.2,40.4668340413277,-79.9286592845618,11.6599998474121,0.0782318115234375,-0.93072509765625,0.112625122070312,-0.0271637104865902,0.0459144950896201,-0.0131911695113805
1493478203.4,40.4668340413277,-79.9286592845618,11.6599998474121,-0.119216918945312,-0.950973510742188,0.1878662109375,0.0141445811816289,-0.0468908099452432,0.0301198192965782
1493478203.6,40.4668340413277,-79.9286592845618,11.6599998474121,0.01751708984375,-0.9757080078125,0.142501831054688,-0.0499979199890386,0.0524389734442052,-0.0528917108295187
1493478203.8,40.4668340413277,-79.9286592845618,11.6599998474121,-0.0154876708984375,-0.9307861328125,0.113937377929688,-0.0128920965209646,0.0660290844868796,-0.0333550273888064
1493478204.0,40.4668340413277,-79.9286592845618,11.6599998474121,-0.0150909423828125,-0.931655883789062,0.108840942382812,-0.0440880992140438,-0.0380054392843028,0.0103088302635877
1493478204.2,40.4669328220565,-79.9285980966687,11.539999961853,0.132064819335938,-0.987762451171875,0.115936279296875,0.0146449891504547,0.106264122235797,-0.0779579156415625
1493478204.4,40.4669328220565,-79.9285980966687,11.539999961853,0.0178985595703125,-0.905929565429688,0.1607666015625,-0.0501396001590308,0.0322415597370443,0.0239263718654899
1493478204.6,40.4669328220565,-79.9285980966687,11.539999961853,-0.13189697265625,-0.919021606445312,0.108489990234375,0.0124556044183006,0.104151436543037,-0.0747762370872448
1493478204.8,40.4669328220565,-79.9285980966687,11.539999961853,0.0883026123046875,-0.979400634765625,0.110702514648438,0.0425916689975282,0.117781228685953,-0.0904960780536556
1493478205.0,40.4669328220565,-79.9285980966687,11.539999961853,-0.01947021484375,-0.973770141601562,0.029022216796875,-0.0721484960396637,-0.0952519511283191,0.0837380404714705
1493478205.2,40.4670189880212,-79.9285473861545,11.1400003433228,-0.100234985351562,-0.940505981445312,0.128799438476562,0.0418198849136233,0.141186686242224,-0.0990940936329764
1493478205.4,40.4670189880212,-79.9285473861545,11.1400003433228,0.146133422851562,-0.982711791992188,0.0941009521484375,-0.0341236156794033,0.148067495550662,-0.0711016074151535
1493478205.6,40.4670189880212,-79.9285473861545,11.1400003433228,0.0051116943359375,-1.04183959960938,0.0626068115234375,0.0119504027595126,-0.00539955911013566,-0.0201217799322027
1493478205.8,40.4670189880212,-79.9285473861545,11.1400003433228,-0.0146636962890625,-0.905792236328125,0.05633544921875,-0.0309403392284316,-0.0699971945110977,0.0435786364975116
1493478206.0,40.4670189880212,-79.9285473861545,11.1400003433228,-0.026214599609375,-0.9625244140625,0.0629119873046875,0.022080534913956,-0.0639566125265799,0.0632977464728943
1493478206.2,40.4671127396081,-79.9284930714219,10.460000038147,0.110092163085938,-0.96539306640625,0.0691375732421875,-0.0452756027441101,0.102402006022964,-0.0593695838650274
1493478206.4,40.4671127396081,-79.9284930714219,10.460000038147,-0.0174102783203125,-1.011962890625,0.0631561279296875,-0.00486080162161263,-0.0371947730484827,0.0235029292521673
1493478206.6,40.4671127396081,-79.9284930714219,10.460000038147,0.003204345703125,-1.00042724609375,0.0586090087890625,0.00545601812524533,0.0754811758277888,-0.0459861341229432
1493478206.8,40.4671127396081,-79.9284930714219,10.460000038147,0.0847015380859375,-0.983688354492188,0.0536956787109375,0.049271143327556,0.0868962832081955,-0.0508980684374854
1493478207.0,40.4671127396081,-79.9284930714219,10.460000038147,0.0701141357421875,-0.987548828125,0.030517578125,-0.0782322212338407,0.0494375908956859,-0.014789332481537
1493478207.2,40.467197061554,-79.928445797488,9.48999977111816,-0.00177001953125,-0.982650756835938,0.082122802734375,-0.0231063845658545,-0.046648728602155,0.0286715922957931
1493478207.4,40.467197061554,-79.928445797488,9.48999977111816,-0.0308990478515625,-0.984512329101562,0.0437164306640625,-0.0230166360371188,0.0426973964928044,-0.00674312388008063
1493478207.6,40.467197061554,-79.928445797488,9.48999977111816,-0.012176513671875,-0.966400146484375,-0.0368194580078125,-0.0209843778092794,0.00438809052812356,-0.0204842361565625
1493478207.8,40.467197061554,-79.928445797488,9.48999977111816,-0.096588134765625,-1.0208740234375,0.0420989990234375,-0.019258915739017,-0.0722004276809202,0.0447701347692131
1493478208.0,40.467197061554,-79.928445797488,9.48999977111816,-0.0891876220703125,-0.974197387695312,0.0638885498046875,-0.0136249984529544,-0.0445815829640355,0.0372930436927066
1493478208.2,40.4672652483363,-79.9284095876663,8.02000045776367,-0.104827880859375,-1.02166748046875,0.016845703125,-0.0411916452124736,0.0172849807390503,-0.015393337416767
1493478208.4,40.4672652483363,-79.9284095876663,8.02000045776367,-0.009002685546875,-0.98516845703125,0.02337646484375,-0.0393657819691153,0.0119575932944558,0.00383095722807898
1493478208.6,40.4672652483363,-79.9284095876663,8.02000045776367,-0.014007568359375,-0.856170654296875,0.119873046875,-0.130241626794216,0.0284976878766109,-0.0387244927786242
1493478208.8,40.4672652483363,-79.9284095876663,8.02000045776367,0.1492919921875,-1.074951171875,0.0251007080078125,0.0303094363661918,-0.092729671259905,0.0687873204278747
1493478209.0,40.4672652483363,-79.9284095876663,8.02000045776367,-0.007598876953125,-0.83343505859375,-0.184066772460938,-0.0442281814873819,0.0630343598410855,-0.0795153322470409
1493478209.2,40.4673229577397,-79.9283757247775,6.55000019073486,0.0613555908203125,-1.01036071777344,-0.030303955078125,-0.00497212175517794,0.0234320891671712,-0.012905944958633
1493478209.4,40.4673229577397,-79.9283757247775,6.55000019073486,-0.14599609375,-0.9423828125,0.0634765625,-0.0263258800076513,-0.0987542742778823,0.00211774569883101
1493478209.6,40.4673229577397,-79.9283757247775,6.55000019073486,-0.147415161132812,-0.952285766601562,0.0380706787109375,-0.0491734053155501,-0.00818842140366663,0.00911360356636016
1493478209.8,40.4673229577397,-79.9283757247775,6.55000019073486,-0.0264739990234375,-0.988601684570312,0.0439910888671875,-0.0653648921110138,0.05360810116275,-0.0189332111377003
1493478210.0,40.4673229577397,-79.9283757247775,6.55000019073486,-0.0342254638671875,-0.986495971679688,0.070709228515625,0.00117258982796189,-0.00320032068194822,-0.00957566201548891
1493478210.2,40.4673715308685,-79.9283470586687,5.26999998092651,-0.0504302978515625,-1.00102233886719,0.0300445556640625,0.000651941834851397,-0.0276585258171269,0.0150050485298335
1493478210.4,40.4673715308685,-79.9283470586687,5.26999998092651,-0.06982421875,-1.00177001953125,0.0092315673828125,-0.00284798446973074,0.0149078431500456,-0.0171270552864086
1493478210.6,40.4673715308685,-79.9283470586687,5.26999998092651,-0.0179290771484375,-1.00355529785156,-0.03106689453125,0.00340192197646722,0.015932627537508,-0.00640357084109553
1493478210.8,40.4673715308685,-79.9283470586687,5.26999998092651,-0.01263427734375,-1.0267333984375,0.010284423828125,-0.000651142886524374,-0.0340301387251415,0.028868932532568
1493478211.0,40.4673715308685,-79.9283470586687,5.26999998092651,-0.0664825439453125,-0.96942138671875,0.0322113037109375,-0.00469968037566283,-0.0254957726958736,0.0181433175583828
1493478211.2,40.4674059804906,-79.9283260200917,3.72000002861023,-0.03753662109375,-0.984588623046875,0.0093231201171875,-0.0106513127797719,-0.00631355599625085,-0.00329140079122893
1493478211.4,40.4674059804906,-79.9283260200917,3.72000002861023,-0.0392913818359375,-1.03184509277344,-0.00830078125,-0.00767283341662729,-0.0116494655563336,0.00954743250793407
1493478211.6,40.4674059804906,-79.9283260200917,3.72000002861023,-0.048370361328125,-1.00761413574219,0.030487060546875,-0.0226243524085502,-0.013679326939192,0.0115320201522611
1493478211.8,40.4674059804906,-79.9283260200917,3.72000002861023,-0.0279388427734375,-1.0008544921875,0.0442047119140625,0.00448396432736641,0.0201806357922934,-0.0053372411406278
1493478212.0,40.4674059804906,-79.9283260200917,3.72000002861023,-0.06170654296875,-0.999313354492188,0.0084381103515625,0.00837803847328028,-0.0245205231046866,-0.00304958576424974
1493478212.2,40.4674293240909,-79.9283121899515,2.24000000953674,-0.05126953125,-0.989593505859375,-0.007659912109375,0.00164210512814286,-0.0180897880204722,0.0256526328840793
1493478212.4,40.4674293240909,-79.9283121899515,2.24000000953674,-0.0934600830078125,-0.980209350585938,0.0185699462890625,-0.00927552376063698,-0.0520576087761059,0.0266947278186273
1493478212.6,40.4674293240909,-79.9283121899515,2.24000000953674,-0.03497314453125,-1.01560974121094,0.0268402099609375,-0.0071655012289672,0.00323467546001024,-0.0192735631250125
1493478212.8,40.4674293240909,-79.9283121899515,2.24000000953674,-0.03399658203125,-0.97894287109375,0.02203369140625,-0.0132641401252487,-0.0296947787866015,0.0191326819033473
1493478213.0,40.4674293240909,-79.9283121899515,2.24000000953674,-0.05255126953125,-0.983673095703125,0.054229736328125,-0.0119330922124271,-0.0137493680758611,0.00844301960387821
1493478213.2,40.4674405139316,-79.9283054006099,0.779999971389771,-0.0172576904296875,-0.982467651367188,0.086151123046875,-0.00835140686237948,0.00856286185293178,-0.00757110066298627
1493478213.4,40.4674405139316,-79.9283054006099,0.779999971389771,-0.02728271484375,-0.984786987304688,0.09771728515625,-0.010989534238212,-0.0201369599504161,0.0138002344526816
1493478213.6,40.4674405139316,-79.9283054006099,0.779999971389771,-0.0296630859375,-0.980789184570312,0.102783203125,-0.00753568062048821,-0.00314146482185747,0.00419581029741984
1493478213.8,40.4674405139316,-79.9283054006099,0.779999971389771,-0.0258636474609375,-0.968612670898438,0.143692016601562,-0.00955462304287728,-0.00206581405757447,-0.00329113447511992
1493478214.0,40.4674405139316,-79.9283054006099,0.779999971389771,-0.0215606689453125,-0.952499389648438,0.187591552734375,-0.00742382785470488,4.79368996214263e-05,-0.00220855949200271
1493478214.2,40.4674405139316,-79.9283054006099,0.0,-0.0239410400390625,-0.974884033203125,0.167098999023438,-0.00964517051993998,-0.00631941495064902,0.000983771706675271
1493478214.4,40.4674405139316,-79.9283054006099,0.0,-0.0286407470703125,-0.958206176757812,0.163192749023438,-0.00852717549432471,-0.0031358721835683,-0.00114542558484308
1493478214.6,40.4674405139316,-79.9283054006099,0.0,-0.021820068359375,-0.96209716796875,0.169189453125,-0.0106726180684925,-0.00524935682465519,-0.00116193718360157
1493478214.8,40.4674405139316,-79.9283054006099,0.0,-0.02899169921875,-0.962600708007812,0.15966796875,-0.00533298008288367,-0.00315664484007092,-0.00111266870343511
1493478215.0,40.4674405139316,-79.9283054006099,0.0,-0.0215606689453125,-0.957183837890625,0.163787841796875,-0.0127767816457642,8.30906260104722e-05,-0.000131027525631899
1493478215.2,40.4674405139316,-79.9283054006099,0.0,-0.0263519287109375,-0.9600830078125,0.155899047851562,-0.00322748492506703,-0.00636149289587228,-0.00108284129922622
1493478215.4,40.4674405139316,-79.9283054006099,0.0,-0.0269775390625,-0.959548950195312,0.166656494140625,-0.00750771742904238,-0.00526959684893979,0.00100294646652384
1493478215.6,40.4674405139316,-79.9283054006099,0.0,-0.0270843505859375,-0.95928955078125,0.164031982421875,-0.0138495029328481,-0.00097365169453297,-0.000139283325011144
1493478215.8,40.4674405139316,-79.9283054006099,0.0,-0.025238037109375,-0.96295166015625,0.160980224609375,-0.0159723086377502,-0.00202373611235121,-0.00122452146921843
1493478216.0,40.4674405139316,-79.9283054006099,0.0,-0.0257720947265625,-0.95855712890625,0.162460327148438,-0.00535694853269439,-0.00634764445820386,-0.00110467922016487
1493478216.2,40.4674405139316,-79.9283054006099,0.0,-0.0251922607421875,-0.962142944335938,0.168106079101562,-0.0107019128404834,-0.00524882419243717,0.000970189585115866
1493478216.4,40.4674405139316,-79.9283054006099,0.0,-0.0255584716796875,-0.961624145507812,0.165313720703125,-0.0106646285852223,-0.00418569028527754,-0.00116460034469165
1493478216.6,40.4674405139316,-79.9283054006099,0.0,-0.026153564453125,-0.961532592773438,0.162994384765625,-0.00848855965851856,5.48611184556323e-05,-0.00221947845247204
1493478216.8,40.4674405139316,-79.9283054006099,0.0,-0.02423095703125,-0.959121704101562,0.164794921875,-0.0127781132263092,-0.00204450876885383,-0.00119176458781046
1493478217.0,40.4674405139316,-79.9283054006099,0.0,-0.0240631103515625,-0.960922241210938,0.164260864257812,-0.0138281976441274,-0.00203785086612863,-0.0022687469326385
1493478217.2,40.4674405139316,-79.9283054006099,0.0,-0.026519775390625,-0.958709716796875,0.165756225585938,-0.0106260127494162,-0.000994956983253603,-0.00223865321232061
1493478217.4,40.4674405139316,-79.9283054006099,0.0,-0.0308990478515625,-0.963150024414062,0.167465209960938,-0.0106486496186818,-0.00205835720652224,-0.00116992666687181
1493478217.6,40.4674405139316,-79.9283054006099,0.0,-0.0237884521484375,-0.963455200195312,0.163818359375,-0.0106566391019521,-0.00312202374589989,-0.00116726350578173
1493478217.8,40.4674405139316,-79.9283054006099,0.0,-0.0236663818359375,-0.959014892578125,0.1685791015625,-0.0127994185150298,-0.000980309597258168,0.0009376990198169
1493478218.0,40.4674405139316,-79.9283054006099,0.0,-0.02142333984375,-0.954208374023438,0.165863037109375,-0.00641369085323783,-0.00527705369999201,-0.00111826134172427
1493478218.2,40.4674405139316,-79.9283054006099,0.0,-0.0300750732421875,-0.96343994140625,0.163772583007812,-0.00539290120741046,-0.00528317897049919,0.00209084777182121
1493478218.4,40.4674405139316,-79.9283054006099,0.0,-0.0252532958984375,-0.962203979492188,0.160003662109375,-0.00530235373034776,-0.00102957807742463,-0.00218405840997398
1493478218.6,40.4674405139316,-79.9283054006099,0.0,-0.02093505859375,-0.947067260742188,0.186859130859375,-0.00536893275759974,-0.00209217935236625,0.00208285828855097
1493478218.8,40.4674405139316,-79.9283054006099,0.0,-0.0194091796875,-0.960845947265625,0.225189208984375,-0.0075250279761279,-0.00952452932255939,-5.2464273474561e-05
1493478219.0,40.4674405139316,-79.9283054006099,0.0,-0.0235443115234375,-0.952117919921875,0.225265502929688,-0.0139560293764512,-0.00735458566636282,0.00414094917896421
1493478219.2,40.4674405139316,-79.9283054006099,0.0,-0.0261077880859375,-0.95343017578125,0.2650146484375,-0.0107099023237537,-0.00631249073181482,0.000972852746205946
1493478219.4,40.4674405139316,-79.9283054006099,0.0,-0.020843505859375,-0.936859130859375,0.295120239257812,0.00847657543361321,-0.00750132584242619,-0.000960069572973565
1493478219.6,40.4674405139316,-79.9283054006099,0.0,-0.000335693359375,-0.933258056640625,0.28533935546875,-0.00422164295999361,0.00109083078249646,-0.00217846577168482
1493478219.8,40.4674405139316,-79.9283054006099,0.0,-0.022491455078125,-0.930511474609375,0.331268310546875,-0.0138281976441274,-0.00203785086612863,-0.0022687469326385
1493478220.0,40.4674405139316,-79.9283054006099,0.0,-0.0199737548828125,-0.915435791015625,0.32781982421875,-0.0127967553539397,-0.00842704063733773,-0.00330791238998742
1493478220.2,40.4674462555353,-79.9282927439361,1.12000000476837,0.0097808837890625,-0.93389892578125,0.3721923828125,0.000999484357106738,0.00105807390108848,0.00533857272117284
1493478220.4,40.4674462555353,-79.9282927439361,1.12000000476837,-0.0352325439453125,-0.900390625,0.36395263671875,-0.00456918548224895,-0.0159238391059108,0.0138550955711372
1493478220.6,40.4674462555353,-79.9282927439361,1.12000000476837,-0.07952880859375,-0.910446166992188,0.369461059570312,0.0135046235716828,-0.035189679063762,0.00556014772386743
1493478220.8,40.4674462555353,-79.9282927439361,1.12000000476837,0.011993408203125,-0.819961547851562,0.423538208007812,-0.0160122560541014,0.00435986102056872,0.00515587987039341
1493478221.0,40.4674462555353,-79.9282927439361,1.12000000476837,0.124618530273438,-0.911483764648438,0.342208862304688,0.0147286124086832,-0.0894414662619842,0.0419639619285966
1493478221.2,40.4674633546178,-79.9282815121859,2.83999991416931,-0.07049560546875,-0.915756225585938,0.387802124023438,-0.0177987045133266,-0.0488106827750813,0.0287315134203199
1493478221.4,40.4674633546178,-79.9282815121859,2.83999991416931,-0.0215606689453125,-0.932601928710938,0.499252319335938,-0.0830797070500029,-0.0132889075233864,-0.00614737474422991
1493478221.6,40.4674633546178,-79.9282815121859,2.83999991416931,-0.0193634033203125,-0.896331787109375,0.3997802734375,0.0312034595441314,0.0295799965436191,-0.00722036234742283
1493478221.8,40.4674633546178,-79.9282815121859,2.83999991416931,0.0258026123046875,-0.917251586914062,0.343338012695312,0.0050213902353444,-0.014922490536041,0.0139507030542711
1493478222.0,40.4674633546178,-79.9282815121859,2.83999991416931,0.04901123046875,-0.972915649414062,0.359588623046875,-0.0223593678800873,-0.0115565212342898,-0.00659638370401727
1493478222.2,40.4674984328826,-79.9282629043608,4.63000011444092,-0.0615234375,-0.933837890625,0.361038208007812,-0.0175963042704806,-0.0413676801605278,0.0180522374491021
1493478222.4,40.4674984328826,-79.9282629043608,4.63000011444092,-0.0992279052734375,-0.895645141601562,0.320098876953125,-0.0247053464843381,0.056532784671875,-0.0313190407354408
1493478222.6,40.4674984328826,-79.9282629043608,4.63000011444092,-0.0054931640625,-0.940139770507812,0.354766845703125,-0.0071151674843647,0.17448259145483,-0.0847540364273357
1493478222.8,40.4674984328826,-79.9282629043608,4.63000011444092,0.0619049072265625,-0.920974731445312,0.331787109375,-0.0216594891456144,-0.00942918815553455,0.0211268569275986
1493478223.0,40.4674984328826,-79.9282629043608,4.63000011444092,0.0142059326171875,-0.914108276367188,0.27496337890625,0.0372291278265447,-0.039590286449009,0.0591251056769582
1493478223.2,40.4675511550535,-79.9282334838807,6.65000009536743,-0.101577758789062,-0.89599609375,0.357406616210938,-0.0144614973513483,0.020301276989674,-0.0215247331944564
1493478223.4,40.4675511550535,-79.9282334838807,6.65000009536743,-0.0557861328125,-0.929794311523438,0.368896484375,0.000728374558136672,0.0638154649888057,-0.018282867199503
1493478223.6,40.4675511550535,-79.9282334838807,6.65000009536743,-0.0652923583984375,-0.87799072265625,0.347091674804688,-0.0127448237126832,-0.0307680327059035,-0.0192429367724765
1493478223.8,40.4675511550535,-79.9282334838807,6.65000009536743,-0.0356597900390625,-0.943679809570312,0.348388671875,-0.0235332892885942,-0.0104837999472059,0.00191854124929308
1493478224.0,40.4675511550535,-79.9282334838807,6.65000009536743,-0.025543212890625,-0.961135864257812,0.30780029296875,-0.00277554648808058,0.0531913164521526,-0.0790655243389265
1493478224.2,40.4676153185223,-79.9281990342587,8.17000007629395,0.006744384765625,-0.901718139648438,0.349624633789062,0.00565548889089227,-0.134056072423537,0.0579794137760061
1493478224.4,40.4676153185223,-79.9281990342587,8.17000007629395,-0.0007171630859375,-0.822998046875,0.428329467773438,0.0348764913195687,0.00615909265302625,0.0227316778004803
1493478224.6,40.4676153185223,-79.9281990342587,8.17000007629395,0.0240936279296875,-0.873870849609375,0.323074340820312,-0.0235487356229167,0.0512051309111715,-0.0408893764287496
1493478224.8,40.4676153185223,-79.9281990342587,8.17000007629395,-0.0617218017578125,-0.935394287109375,0.240158081054688,-0.00122318988867339,-0.0308407370036626,-0.00526400421065062
1493478225.0,40.4676153185223,-79.9281990342587,8.17000007629395,-0.208343505859375,-0.88385009765625,0.3934326171875,-0.0104715494061916,-0.0350397430943906,-0.0320032068194822
1493478225.2,40.4676944855977,-79.9281517603248,10.0299997329712,-0.0679931640625,-0.861404418945312,0.2896728515625,-0.0188474573505998,-0.0583783553073,0.0223481826035089
1493478225.4,40.4676944855977,-79.9281517603248,10.0299997329712,-0.0074920654296875,-0.951553344726562,0.358322143554688,0.0798170683985468,-0.0653987142568578,0.0457669559652297
1493478225.6,40.4676944855977,-79.9281517603248,10.0299997329712,0.0213775634765625,-0.926345825195312,0.338287353515625,-0.0161480772696955,0.0213833193405732,0.0243024102114091
1493478225.8,40.4676944855977,-79.9281517603248,10.0299997329712,-0.044891357421875,-0.9368896484375,0.272613525390625,0.00462777502623069,0.0159227738414748,-0.0181193491085721
1493478226.0,40.4676944855977,-79.9281517603248,10.0299997329712,0.0536651611328125,-0.936492919921875,0.27410888671875,-0.0239189150144377,0.0097232011398793,-0.0365212596088016
1493478226.2,40.4677772568916,-79.9280981999635,11.0500001907349,-0.065032958984375,-0.849014282226562,0.269882202148438,-0.0604913073161688,-0.0687566940753387,-0.0526863811094736
1493478226.4,40.4677772568916,-79.9280981999635,11.0500001907349,-0.181747436523438,-1.10861206054688,0.1329345703125,0.0854981236359039,-0.0633246443999041,-0.0565367794135102
1493478226.6,40.4677772568916,-79.9280981999635,11.0500001907349,0.13128662109375,-0.983108520507812,0.0843353271484375,-0.0259783374853959,-0.0349318850702423,0.0115525264926547
1493478226.8,40.4677772568916,-79.9280981999635,11.0500001907349,0.01849365234375,-1.0535888671875,0.114410400390625,0.0348677028879714,0.0550821608261089,-0.0275067256349924
1493478227.0,40.4677772568916,-79.9280981999635,11.0500001907349,0.22979736328125,-0.855667114257812,0.314132690429688,-0.104066748020372,0.0921613526832821,0.0285506847823035
1493478227.2,40.4678733135019,-79.92803877227,11.9899997711182,-0.180282592773438,-0.956436157226562,0.283859252929688,-0.00181547691510702,-0.155271079983217,0.125129156449591
1493478227.4,40.4678733135019,-79.92803877227,11.9899997711182,0.072998046875,-0.977325439453125,0.2366943359375,-0.0296367218748378,0.000190682334049673,-0.0130984915054457
1493478227.6,40.4678733135019,-79.92803877227,11.9899997711182,0.0345611572265625,-0.935531616210938,0.213546752929688,-0.0373236700452425,0.064059676860766,-0.0389311540792143
1493478227.8,40.4678733135019,-79.92803877227,11.9899997711182,0.0067291259765625,-0.938507080078125,0.235580444335938,-0.030316626901135,0.0299773401782589,-0.0249106762043832
1493478228.0,40.4678733135019,-79.92803877227,11.9899997711182,0.0895538330078125,-1.00440979003906,0.1739501953125,-0.0477845668070738,0.0928484482445226,-0.0369801222646223
1493478228.2,40.4679731000592,-79.9279768300056,12.6499996185303,0.0409088134765625,-0.982009887695312,0.154052734375,-0.054076284882386,0.0205614678281748,-0.00593778396644067
1493478228.4,40.4679731000592,-79.9279768300056,12.6499996185303,-0.0011138916015625,-0.957763671875,0.147491455078125,-0.0750079321020817,-0.0239743087651113,0.0206181931593935
1493478228.6,40.4679731000592,-79.9279768300056,12.6499996185303,0.038330078125,-0.961578369140625,0.232879638671875,-0.0814895335631166,-0.0675473526243338,0.00360485485153126
1493478228.8,40.4679731000592,-79.9279768300056,12.6499996185303,0.0811614990234375,-1.00291442871094,0.20416259765625,-0.0119112542914884,0.0841084861791005,-0.0173984314014877
1493478229.0,40.4679731000592,-79.9279768300056,12.6499996185303,0.0045013427734375,-1.02215576171875,0.195098876953125,0.0409751302158501,0.039088546899638,-0.0156745672278794
1493478229.2,40.4680686956648,-79.9279168155789,12.9700002670288,-0.05426025390625,-0.864730834960938,0.177825927734375,-0.0686222044402897,-0.0516749125274615,0.0058280617295294
1493478229.4,40.4680686956648,-79.9279168155789,12.9700002670288,-0.0434417724609375,-0.8917236328125,0.191909790039062,-0.0299682854305527,-0.0146966544756023,0.00292974351519617
1493478229.6,40.4680686956648,-79.9279168155789,12.9700002670288,-0.019317626953125,-0.935195922851562,0.211349487304688,-0.0374706765374149,-0.0114558537450849,0.00817563823043425
1493478229.8,40.4680686956648,-79.9279168155789,12.9700002670288,-0.134735107421875,-1.03428649902344,0.152587890625,0.011425760024767,-0.0245386326000991,0.00764380496074543
1493478230.0,40.4680686956648,-79.9279168155789,12.9700002670288,-0.346893310546875,-0.947357177734375,0.162628173828125,0.0865237069716934,-0.363251177945173,0.248118729279412
1493478230.2,40.4681766964872,-79.9278507661819,13.0299997329712,-0.156341552734375,-1.02496337890625,0.193618774414062,0.00137525638691692,-0.0978583868871796,0.0791664581442405
1493478230.4,40.4681766964872,-79.9278507661819,13.0299997329712,0.110885620117188,-1.03892517089844,0.141433715820312,-0.0752308386853214,-0.115445636409954,0.0645667427323171
1493478230.6,40.4681766964872,-79.9278507661819,13.0299997329712,0.0462493896484375,-0.9364013671875,0.188949584960938,-0.0493763381906141,-0.091149617785161,0.0562390380036393
1493478230.8,40.4681766964872,-79.9278507661819,13.0299997329712,-0.0296630859375,-1.00003051757812,0.146652221679688,-0.0102457133457528,-0.0180104258199879,0.0383252849312213
1493478231.0,40.4681766964872,-79.9278507661819,13.0299997329712,-0.175582885742188,-0.975006103515625,0.164169311523438,0.0305485882320809,-0.159741728505133,0.0924194129929108
1493478231.2,40.4682848230381,-79.9277861417084,13.0299997329712,-0.01873779296875,-0.857269287109375,0.1875,0.0183236135641812,-0.0224493827249319,0.0492913833518406
1493478231.4,40.4682848230381,-79.9277861417084,13.0299997329712,0.3466796875,-0.658157348632812,0.355804443359375,-0.0671489437252579,0.177005403955463,-0.0544549863893952
1493478231.6,40.4682848230381,-79.9277861417084,13.0299997329712,0.127670288085938,-1.06231689453125,0.188018798828125,-0.00987074026426969,0.247885969000139,-0.154275590367745
1493478231.8,40.4682848230381,-79.9277861417084,13.0299997329712,0.04754638671875,-0.955459594726562,0.1923828125,0.0311030583710354,0.249741127015489,-0.190112151260287
1493478232.0,40.4682848230381,-79.9277861417084,13.0299997329712,0.0325927734375,-0.95892333984375,0.179580688476562,-0.0086209187646955,-0.0988647954631206,0.0310870794044949
1493478232.2,40.46839286577,-79.9277160689979,12.8100004196167,-0.133621215820312,-0.501724243164062,0.304611206054688,-0.149126901032295,-0.0947600652749814,0.0285717237549151
1493478232.4,40.46839286577,-79.9277160689979,12.8100004196167,-0.000396728515625,-1.05122375488281,0.1395263671875,0.0376925178562185,-0.00130148682472172,0.0462364712654107
1493478232.6,40.46839286577,-79.9277160689979,12.8100004196167,0.0577239990234375,-0.876083374023438,0.190521240234375,-0.0773909286454846,0.150459546841771,-0.1760397417442
1493478232.8,40.46839286577,-79.9277160689979,12.8100004196167,0.0812835693359375,-0.9622802734375,0.170379638671875,-0.0601866416874638,0.157804811444318,-0.106578641560535
1493478233.0,40.46839286577,-79.9277160689979,12.8100004196167,0.119857788085938,-0.981338500976562,0.185272216796875,0.028468659420729,0.061506770639816,-0.023323964826914
1493478233.2,40.468493364789,-79.9276480079442,12.789999961853,0.127120971679688,-1.05157470703125,0.17388916015625,0.0483377053654832,0.0698922659641485,0.00777802827968542
1493478233.4,40.468493364789,-79.9276480079442,12.789999961853,-0.00738525390625,-0.933013916015625,0.14923095703125,0.0123666548378919,0.0116262960548499,0.0363478878218375
1493478233.6,40.468493364789,-79.9276480079442,12.789999961853,-0.0023956298828125,-0.927154541015625,0.146926879882812,-0.036029107439355,0.00555135929227017,-0.00997913092063591
1493478233.8,40.468493364789,-79.9276480079442,12.789999961853,0.0432891845703125,-0.93438720703125,0.160873413085938,0.0261626282328294,0.111510549583253,-0.0607941087321108
1493478234.0,40.468493364789,-79.9276480079442,12.789999961853,0.109619140625,-0.88323974609375,0.194168090820312,-0.0906947498709755,0.0718550156875369,-0.0256369202336478
1493478234.2,40.4686042154585,-79.9275764264911,12.9300003051758,0.136917114257812,-1.05654907226562,0.151641845703125,-0.0147579071806741,0.077740069064394,-0.0461989206940406
1493478234.4,40.4686042154585,-79.9275764264911,12.9300003051758,0.0814208984375,-1.04804992675781,0.171661376953125,0.0250893743135275,0.0466375433255766,-0.0179891205312672
1493478234.6,40.4686042154585,-79.9275764264911,12.9300003051758,0.10498046875,-0.966629028320312,0.1639404296875,-0.0566827206412465,0.145025100321355,-0.0585301554894345
1493478234.8,40.4686042154585,-79.9275764264911,12.9300003051758,0.0774383544921875,-0.963058471679688,0.176925659179688,0.058883823282197,0.0368466978940093,-0.00269085796541606
1493478235.0,40.4686042154585,-79.9275764264911,12.9300003051758,0.120834350585938,-0.880508422851562,0.168777465820312,-0.00680464290126146,0.0649291989566769,-0.011965582777726
1493478235.2,40.4687010264401,-79.9275182560831,12.8900003433228,0.074005126953125,-1.0355224609375,0.161041259765625,0.032668464459784,-0.00233612490821751,0.023797208552621
1493478235.4,40.4687010264401,-79.9275182560831,12.8900003433228,0.004852294921875,-0.911026000976562,0.130996704101562,0.00884409166404414,0.0180234753093293,-0.0138167460514401
1493478235.6,40.4687010264401,-79.9275182560831,12.8900003433228,0.078369140625,-0.986785888671875,0.20245361328125,-0.0472511356407309,0.039660593901787,-0.0272414747904205
1493478235.8,40.4687010264401,-79.9275182560831,12.8900003433228,0.0542449951171875,-0.969131469726562,0.197845458984375,-0.0140066294371627,0.0171140057970672,0.0211367106236319
1493478236.0,40.4687010264401,-79.9275182560831,12.8900003433228,0.03314208984375,-1.01071166992188,0.18499755859375,0.0130351082715018,0.0382094374238029,0.00216728049510648
1493478236.2,40.4688093206291,-79.9274614267796,12.8800001144409,0.0666046142578125,-0.889358520507812,0.107940673828125,0.0275978057442731,0.0157786968265015,0.0151688329368733
1493478236.4,40.4688093206291,-79.9274614267796,12.8800001144409,0.075042724609375,-0.961441040039062,0.225555419921875,-0.0678181961071948,0.188707067469162,-0.0768825311933885
1493478236.6,40.4688093206291,-79.9274614267796,12.8800001144409,0.0503997802734375,-0.9764404296875,0.164810180664062,-0.0521172635845237,0.0173592829334635,0.00475267728135541
1493478236.8,40.4688093206291,-79.9274614267796,12.8800001144409,-0.0903167724609375,-0.957656860351562,0.186660766601562,-0.00969364005177942,-0.0765176781240477,0.0438129946734386
1493478237.0,40.4688093206291,-79.9274614267796,12.8800001144409,0.0470123291015625,-0.8497314453125,0.224609375,-0.0332706051822509,0.078916653633991,-0.0933049140553621
1493478237.2,40.4689205903937,-79.9274104648083,12.8599996566772,0.0377655029296875,-0.993133544921875,0.16778564453125,0.00155475344438826,0.0808338633027391,0.00833702579249306
1493478237.4,40.4689205903937,-79.9274104648083,12.8599996566772,0.0190277099609375,-0.968963623046875,0.192276000976562,-0.00361044748982042,0.0415045666405579,-0.0246669969646409
1493478237.6,40.4689205903937,-79.9274104648083,12.8599996566772,0.0145263671875,-0.850997924804688,0.213790893554688,-0.0670301667406404,0.0302220846824372,0.0120302975922149
1493478237.8,40.4689205903937,-79.9274104648083,12.8599996566772,-0.045196533203125,-1.04206848144531,0.159683227539062,-0.0468553899027451,-0.0507457356231329,0.0497632954970026
1493478238.0,40.4689205903937,-79.9274104648083,12.8599996566772,0.102798461914062,-0.945907592773438,0.218353271484375,-0.000687628193458459,-0.108483867004378,0.0685106179906154
1493478238.2,40.4690279206638,-79.9273665436357,12.6899995803833,-0.0618438720703125,-1.0185546875,0.168548583984375,0.0169126708186572,-0.060733388659257,0.053640591728049
1493478238.4,40.4690279206638,-79.9273665436357,12.6899995803833,-0.0144805908203125,-0.956939697265625,0.21917724609375,0.01169607087541,0.0212003601736848,0.0128596059556656
1493478238.6,40.4690279206638,-79.9273665436357,12.6899995803833,0.0067291259765625,-1.0128173828125,0.199752807617188,-0.0412875190117164,0.0279248419261349,-0.00262720841536317
1493478238.8,40.4690279206638,-79.9273665436357,12.6899995803833,-0.0316619873046875,-0.9287109375,0.2032470703125,0.000318247750264469,-0.00638865713899108,-0.0266356056424275
1493478239.0,40.4690279206638,-79.9273665436357,12.6899995803833,-0.0361175537109375,-0.992416381835938,0.144256591796875,-0.00865367564610348,-0.0180269374187464,-4.2077945223252e-05
1493478239.2,40.4691424174611,-79.9273195211589,12.5600004196167,0.0125732421875,-0.950836181640625,0.1839599609375,-0.0116867498115947,-0.0180090942394428,-0.0118015320545771
1493478239.4,40.4691424174611,-79.9273195211589,12.5600004196167,-0.0251617431640625,-0.966690063476562,0.184722900390625,-0.00131906368791625,-0.0319028056463862,0.00113503925659177
1493478239.6,40.4691424174611,-79.9273195211589,12.5600004196167,0.0310821533203125,-0.964279174804688,0.19854736328125,-0.0262800736369019,0.0256984392548286,-0.0109975237214822
1493478239.8,40.4691424174611,-79.9273195211589,12.5600004196167,0.04644775390625,-1.23828125,0.085174560546875,0.172146999178831,-0.0287746566299791,0.0114326842436012
1493478240.0,40.4691424174611,-79.9273195211589,12.5600004196167,-0.0191497802734375,-0.971099853515625,0.110748291015625,0.0176543611822443,-0.0341515788708491,0.0141296674795244
1493478240.2,40.4692432517563,-79.9272765219956,12.6499996185303,-0.04638671875,-0.89202880859375,0.135223388671875,-0.0116388129119733,7.48348266312266e-05,-0.00545042548695617
1493478240.4,40.4692432517563,-79.9272765219956,12.6499996185303,-0.0186920166015625,-0.899871826171875,0.220947265625,-0.171496388924525,-0.0478191879012448,-0.022956714912592
1493478240.6,40.4692432517563,-79.9272765219956,12.6499996185303,0.021270751953125,-1.13066101074219,0.09796142578125,0.0536874633632344,-0.0684259294679509,0.00818975298421167
1493478240.8,40.4692432517563,-79.9272765219956,12.6499996185303,-0.0204010009765625,-0.938385009765625,0.167251586914062,0.0675702558097084,-0.061070012221043,0.00937912072704106
1493478241.0,40.4692432517563,-79.9272765219956,12.6499996185303,-0.14251708984375,-0.973129272460938,0.148056030273438,-0.0323225198341827,-0.136992207525349,0.10771021870771
1493478241.2,40.4693529708688,-79.927227320224,12.789999961853,-0.0266265869140625,-0.918411254882812,0.151123046875,0.0583943342738404,0.0432260339691851,-0.0410960377293398
1493478241.4,40.4693529708688,-79.927227320224,12.789999961853,-0.0030975341796875,-1.00352478027344,0.109588623046875,-0.0207745207153811,-0.0392195744252699,0.018014154245514
1493478241.6,40.4693529708688,-79.927227320224,12.789999961853,-0.13702392578125,-0.954208374023438,0.0744781494140625,-0.0231029224564374,-0.115784124184503,0.0682999619483902
1493478241.8,40.4693529708688,-79.927227320224,12.789999961853,0.046417236328125,-1.01091003417969,-0.027587890625,-0.0246627359068968,0.0544043863286837,-0.0355779679506956
1493478242.0,40.4693529708688,-79.927227320224,12.789999961853,-0.0283203125,-1.00090026855469,-0.0753326416015625,-0.00488477007142334,-0.0286838428368074,0.029878004269599
1493478242.2,40.4694543918972,-79.927179711014,12.3299999237061,-0.0191650390625,-1.03858947753906,-0.030548095703125,-0.00107138970653888,-0.0106310727554873,-0.00531460427136213
1493478242.4,40.4694543918972,-79.927179711014,12.3299999237061,-0.06982421875,-0.973419189453125,-0.0570220947265625,-0.068564946476853,-0.0186977876973373,0.0196043277324003
1493478242.6,40.4694543918972,-79.927179711014,12.3299999237061,-0.0732269287109375,-0.996612548828125,0.0073089599609375,-0.0364272500223218,-0.0221005086221316,0.00394893526436949
1493478242.8,40.4694543918972,-79.927179711014,12.3299999237061,0.0124053955078125,-0.980636596679688,0.0419464111328125,-0.0293837215712803,0.0299728128044058,-0.0153051867846854
1493478243.0,40.4694543918972,-79.927179711014,12.3299999237061,0.0525054931640625,-0.990478515625,0.079498291015625,-0.00896739602251481,0.0468588520121622,-0.0194045906506444
1493478243.2,40.4695475986604,-79.9271367956697,10.039999961853,-0.043792724609375,-0.97821044921875,0.136260986328125,-0.0194714359940053,-0.0328479615172553,0.00415027024277949
1493478243.4,40.4695475986604,-79.9271367956697,10.039999961853,-0.080322265625,-0.948883056640625,0.148101806640625,-0.0118132499633735,-0.0211982296448127,-0.00433109888079587
1493478243.6,40.4695475986604,-79.9271367956697,10.039999961853,0.0089263916015625,-0.981491088867188,0.169174194335938,0.00702222316232094,0.0297336609385167,-0.0298588295097504
1493478243.8,40.4695475986604,-79.9271367956697,10.039999961853,0.01043701171875,-0.979217529296875,0.11968994140625,0.000637294448855962,-0.0393601893308261,0.00970402638003073
1493478244.0,40.4695475986604,-79.9271367956697,10.039999961853,0.016326904296875,-0.920608520507812,0.106948852539062,-0.0570334589568099,0.0248331782166619,-0.020906080873231
1493478244.2,40.4696304537733,-79.9270994962006,9.44999980926514,0.0884857177734375,-1.0693359375,0.1207275390625,0.0235865525103958,0.025376196762929,0.00230842803288068
1493478244.4,40.4696304537733,-79.9270994962006,9.44999980926514,0.0620880126953125,-0.995101928710938,0.11419677734375,-0.0325624706483988,-0.0199934155676609,0.0338370595461108
1493478244.6,40.4696304537733,-79.9270994962006,9.44999980926514,0.0865478515625,-0.892257690429688,0.163833618164062,-0.0727727409991782,0.0440814413113186,-0.0275141824860446
1493478244.8,40.4696304537733,-79.9270994962006,9.44999980926514,0.031646728515625,-1.03573608398438,0.108932495117188,-0.0542200955812502,-0.0102864597104311,-0.0122569326009807
1493478245.0,40.4696304537733,-79.9270994962006,9.44999980926514,0.061065673828125,-1.04220581054688,0.13153076171875,-0.0597189906000458,0.065269550943989,-0.0359649252570841
1493478245.2,40.4697085312013,-79.9270652980357,9.10999965667725,-0.013092041015625,-0.9573974609375,0.133377075195312,-0.0350261609728311,-0.0274201728995648,0.0540890680556183
1493478245.4,40.4697085312013,-79.9270652980357,9.10999965667725,0.0086212158203125,-0.982864379882812,0.154693603515625,-0.0198131195618625,0.0458678897705437,-0.00565229309758418
1493478245.6,40.4697085312013,-79.9270652980357,9.10999965667725,-0.01708984375,-0.926437377929688,0.1817626953125,-0.00238059969842183,0.0946852304483502,-0.00773222190893606
1493478245.8,40.4697085312013,-79.9270652980357,9.10999965667725,-0.00408935546875,-1.00553894042969,0.171127319335938,0.0183787409987458,0.04668494759298,0.00539876016180863
1493478246.0,40.4697085312013,-79.9270652980357,9.10999965667725,-0.02264404296875,-0.8887939453125,0.218093872070312,-0.0542187640007052,0.0152449993440496,0.00153797552952076
1493478246.2,40.469784219787,-79.9270342011749,8.65999984741211,-0.0115203857421875,-0.966018676757812,0.181015014648438,-0.00965582316430029,6.36495500528938e-05,0.00523204627756967
1493478246.4,40.469784219787,-79.9270342011749,8.65999984741211,0.017181396484375,-1.01744079589844,0.15185546875,0.0923307297286112,-0.0133626770855816,0.0159067948749343
1493478246.6,40.469784219787,-79.9270342011749,8.65999984741211,0.0175323486328125,-1.02012634277344,0.19573974609375,0.00523364417422372,0.0361241822902708,-0.0512179140844039
1493478246.8,40.469784219787,-79.9270342011749,8.65999984741211,0.045562744140625,-0.991302490234375,0.206039428710938,-0.0747980750081835,-0.0675819737185048,0.0591165835614699
1493478247.0,40.469784219787,-79.9270342011749,8.65999984741211,-0.069061279296875,-1.01573181152344,0.312606811523438,0.0266750204265607,-0.0895218937269046,0.0250270563440196
1493478247.2,40.4698610399295,-79.927002685219,9.14999961853027,-0.13739013671875,-0.972274780273438,0.333404541015625,0.0170905699794745,-0.17880729874901,0.0539471215695171
1493478247.4,40.4698610399295,-79.927002685219,9.14999961853027,-0.0947265625,-0.879119873046875,0.39697265625,-0.0886875253573828,-0.108979747599351,0.0398893594394248
1493478247.6,40.4698610399295,-79.927002685219,9.14999961853027,0.0276641845703125,-0.953445434570312,0.268417358398438,-0.0425991258485805,0.30660520892697,-0.143033854774303
1493478247.8,40.4698610399295,-79.927002685219,9.14999961853027,0.20172119140625,-0.964157104492188,0.2388916015625,-0.0561660673897711,0.163100507271941,-0.0862930772212925
1493478248.0,40.4698610399295,-79.927002685219,9.14999961853027,-0.13470458984375,-0.962265014648438,0.3441162109375,-0.029071066459305,-0.185949364160385,0.0769496428528585
1493478248.2,40.4699459486087,-79.9269670621305,10.2799997329712,-0.0544586181640625,-0.917999267578125,0.321563720703125,-0.0211889085809974,0.0448042232311661,-0.0611067638440861
1493478248.4,40.4699459486087,-79.9269670621305,10.2799997329712,-0.150299072265625,-0.91357421875,0.286544799804688,-0.00081838940298135,-0.0393585914341721,-0.039356727221409
1493478248.6,40.4699459486087,-79.9269670621305,10.2799997329712,-0.150405883789062,-0.92193603515625,0.35540771484375,-0.0395394200721884,-0.129513784868297,0.0169888372258335
1493478248.8,40.4699459486087,-79.9269670621305,10.2799997329712,-0.0959320068359375,-0.906478881835938,0.317306518554688,-0.0585266933800174,-0.165549550210378,0.0616684245179838
1493478249.0,40.4699459486087,-79.9269670621305,10.2799997329712,0.0037841796875,-0.971893310546875,0.253143310546875,-0.0146604354847772,-0.0679790510370356,0.0224158268951969
1493478249.2,40.4700398678337,-79.9269229733198,11.5500001907349,-0.0148773193359375,-0.963607788085938,0.267852783203125,-0.0100038983187737,-0.104171143935103,0.0513446805522917
1493478249.4,40.4700398678337,-79.9269229733198,11.5500001907349,0.0570068359375,-0.977706909179688,0.269577026367188,-0.051186222467432,-0.071992967432003,0.0433765025707746
1493478249.6,40.4700398678337,-79.9269229733198,11.5500001907349,0.0222930908203125,-0.97198486328125,0.295364379882812,-0.0347039184809316,-0.0157241020241548,0.037002759133888
1493478249.8,40.4700398678337,-79.9269229733198,11.5500001907349,0.0796966552734375,-0.91864013671875,0.290435791015625,-0.0323701904176951,0.0342450558251109,-0.0281413569227583
1493478250.0,40.4700398678337,-79.9269229733198,11.5500001907349,0.0322265625,-0.786941528320312,0.279205322265625,-0.138857219236731,-0.0384528503474361,0.00933970594290789
1493478250.2,40.4701452702661,-79.9268740230053,12.3999996185303,0.091552734375,-1.01016235351562,0.321029663085938,-0.0677699928914644,0.04618027856641,-0.00294545616562764
1493478250.4,40.4701452702661,-79.9268740230053,12.3999996185303,0.0057525634765625,-0.945480346679688,0.230361938476562,0.0212794560580601,-0.0639544819977079,0.0440976865939681
1493478250.6,40.4701452702661,-79.9268740230053,12.3999996185303,0.0382843017578125,-0.9432373046875,0.2353515625,-0.0156074555684094,0.0192458662496756,-0.0162026720720421
1493478250.8,40.4701452702661,-79.9268740230053,12.3999996185303,0.0794677734375,-0.975357055664062,0.247100830078125,-0.0255197411456843,0.0703647107415286,-0.0420252146336684
1493478251.0,40.4701452702661,-79.9268740230053,12.3999996185303,0.094024658203125,-0.972488403320312,0.162567138671875,-0.00480514155482997,0.10745775103637,-0.0568358524039261
1493478251.2,40.4702481581275,-79.926825743243,13.2700004577637,-0.0177764892578125,-1.01882934570312,0.287155151367188,0.00819694351915489,-0.00962386523121934,0.0182343976676635
1493478251.4,40.4702481581275,-79.926825743243,13.2700004577637,0.0054779052734375,-0.960205078125,0.299331665039062,0.00522432311040844,0.044634846185837,-0.0459089024513309
1493478251.6,40.4702481581275,-79.926825743243,13.2700004577637,-0.04034423828125,-0.931747436523438,0.271286010742188,-0.0709868251721711,0.0334357211698358,-0.00827657203574826
1493478251.8,40.4702481581275,-79.926825743243,13.2700004577637,0.177505493164062,-0.912353515625,0.240081787109375,-0.0254805926776601,0.149073637810493,-0.0795454259673588
1493478252.0,40.4702481581275,-79.926825743243,13.2700004577637,0.124343872070312,-0.98565673828125,0.17816162109375,-0.0532949134185567,-0.113455722443447,0.0967726161107543
1493478252.2,40.4703663848717,-79.9267760385572,13.8500003814697,-0.10479736328125,-0.923828125,0.242233276367188,0.0727061619719263,-0.0217401829266438,0.0445152702528925
1493478252.4,40.4703663848717,-79.9267760385572,13.8500003814697,0.045318603515625,-1.01301574707031,0.12469482421875,-0.00834474895965429,0.00749892899744512,-0.00863450088625491
1493478252.6,40.4703663848717,-79.9267760385572,13.8500003814697,-0.148727416992188,-0.989273071289062,0.250152587890625,-0.0145371311263065,-0.109457518698911,0.0683713346656043
1493478252.8,40.4703663848717,-79.9267760385572,13.8500003814697,-0.013580322265625,-0.982589721679688,0.233200073242188,0.0318234434459019,-0.0140351252608266,0.0014282532926095
1493478253.0,40.4703663848717,-79.9267760385572,13.8500003814697,-0.0396881103515625,-0.980636596679688,0.267166137695312,-0.00242560712084417,-0.114860007286245,0.0365228575054557
1493478253.2,40.4704864137252,-79.9267275911569,13.9700002670288,-0.19854736328125,-0.959197998046875,0.216934204101562,-0.0425053825782097,-0.0178093571576869,-0.0163824354456224
1493478253.4,40.4704864137252,-79.9267275911569,13.9700002670288,-0.0529632568359375,-0.986495971679688,0.15673828125,-0.0272097831734486,0.0937744293555431,-0.0612947830170457
1493478253.6,40.4704864137252,-79.9267275911569,13.9700002670288,-0.076690673828125,-0.838302612304688,0.198928833007812,-0.0365191290799296,-0.0284817089100704,0.00716310438398613
1493478253.8,40.4704864137252,-79.9267275911569,13.9700002670288,0.0233917236328125,-1.01960754394531,0.156082153320312,-0.0100068277959727,0.00537665592476097,-0.0438311041688511
1493478254.0,40.4704864137252,-79.9267275911569,13.9700002670288,-0.199813842773438,-0.961822509765625,0.170318603515625,0.0344240202503642,-0.245931208760021,0.0734896639646276
1493478254.2,40.4706054367502,-79.9266772159188,13.8800001144409,-0.222152709960938,-0.864349365234375,0.226181030273438,-0.00138910482458533,0.0127661290014038,-0.0469605847658032
1493478254.4,40.4706054367502,-79.9266772159188,13.8800001144409,0.375198364257812,-0.631454467773438,0.189956665039062,0.031425567179044,-0.108682272505589,0.133878972211046
1493478254.6,40.4706054367502,-79.9266772159188,13.8800001144409,0.437820434570312,-1.07876586914062,0.06658935546875,-0.0379646929196246,0.286358260423533,-0.181317860708628
1493478254.8,40.4706054367502,-79.9266772159188,13.8800001144409,0.198455810546875,-1.06178283691406,0.135543823242188,-0.0133224633531214,-0.190304431490991,0.090982903900922
1493478255.0,40.4706054367502,-79.9266772159188,13.8800001144409,0.0114288330078125,-1.02389526367188,0.163040161132812,-0.0530262004645677,0.0205548099254496,-0.00486080162161263
1493478255.2,40.4707284830887,-79.9266190455108,13.7600002288818,-0.0006561279296875,-0.824600219726562,0.273635864257812,-0.135924812560445,0.0274750340180205,-0.0131909031952715
1493478255.4,40.4707284830887,-79.9266190455108,13.7600002288818,0.11724853515625,-0.98272705078125,0.09979248046875,0.07357222195842,0.0441879677549217,-0.0601349763623162
1493478255.6,40.4707284830887,-79.9266190455108,13.7600002288818,0.0263671875,-0.95147705078125,0.151031494140625,-0.0150939981102421,-0.00734632986698358,0.00946034714028848
1493478255.8,40.4707284830887,-79.9266190455108,13.7600002288818,0.0553741455078125,-0.945831298828125,0.149154663085938,-0.0358706493544953,0.0481009503445752,0.00164103986370683
1493478256.0,40.4707284830887,-79.9266190455108,13.7600002288818,-0.0037384033203125,-0.996994018554688,0.09722900390625,-0.0250427689944511,-0.0189792838245587,0.0296465755708711
1493478256.2,40.4708397109438,-79.9265679159015,13.8000001907349,-0.113296508789062,-0.981307983398438,0.0869140625,-0.0359063357131023,-0.0997433723067377,0.0787896208499943
1493478256.4,40.4708397109438,-79.9265679159015,13.8000001907349,-0.0781402587890625,-0.968856811523438,-0.0301361083984375,-0.0412547621303085,-0.0529130161182393,0.028501948934355
1493478256.6,40.4708397109438,-79.9265679159015,13.8000001907349,-0.019012451171875,-1.04591369628906,-0.03704833984375,-0.0295128848841491,0.0108265487794991,-0.0163233132694227
1493478256.8,40.4708397109438,-79.9265679159015,13.8000001907349,-0.0451507568359375,-1.00762939453125,0.042144775390625,-0.0305616377214223,0.0246627359068968,-0.00997247301791072
1493478257.0,40.4708397109438,-79.9265679159015,13.8000001907349,-0.00628662109375,-0.918380737304688,-0.021209716796875,0.00428555882615551,-0.0159853581270916,-0.0105770105853587
1493478257.2,40.470951274075,-79.9265182112157,12.4200000762939,0.0780181884765625,-0.9453125,0.000457763671875,-0.0352021959208854,0.0629821618837199,-0.0389066529971856
1493478257.4,40.470951274075,-79.9265182112157,12.4200000762939,-0.0768890380859375,-0.939468383789062,0.061187744140625,-0.0155986671368121,-0.0647829914128315,0.0149344747609464
1493478257.6,40.470951274075,-79.9265182112157,12.4200000762939,-0.1043701171875,-0.967910766601562,0.0847930908203125,0.00408129437054643,-0.0659683644140258,0.0545889433922262
1493478257.8,40.470951274075,-79.9265182112157,12.4200000762939,-0.0124053955078125,-1.00477600097656,0.080474853515625,0.0248683319430509,0.0211100790127311,-0.0157930778963879
1493478258.0,40.470951274075,-79.9265182112157,12.4200000762939,-0.085968017578125,-0.9178466796875,-0.004119873046875,-0.0158370200543742,-0.0594595987098721,0.0351763632583116
1493478258.2,40.4710472049568,-79.9264759664237,10.9200000762939,0.0,-1.04920959472656,0.03173828125,-0.00979963386316457,-0.0190823481587448,0.0052799831771911
1493478258.4,40.4710472049568,-79.9264759664237,10.9200000762939,-0.0735626220703125,-0.978622436523438,0.0124969482421875,0.0371018287264389,-0.0161965468015349,0.00362030118585372
1493478258.6,40.4710472049568,-79.9264759664237,10.9200000762939,0.0478363037109375,-0.949234008789062,0.03204345703125,-0.0544725632525897,0.0588534632457701,-0.0337622247194795
1493478258.8,40.4710472049568,-79.9264759664237,10.9200000762939,-0.0569305419921875,-0.978652954101562,0.0458831787109375,-0.0175995000637886,-0.097737213057581,0.0651110928591293
1493478259.0,40.4710472049568,-79.9264759664237,10.9200000762939,-0.0514373779296875,-1.00971984863281,0.02685546875,-0.0152559183045189,0.0426433343226758,-0.0290540222283285
1493478259.2,40.4711313173552,-79.9264389184117,9.36999988555908,0.0458221435546875,-1.06576538085938,-0.022186279296875,-0.00296995724765637,0.0468119803769768,-0.0683889115287988
1493478259.4,40.4711313173552,-79.9264389184117,9.36999988555908,-0.0343017578125,-1.00247192382812,0.006500244140625,-0.00840467008418107,0.00537239486701685,-0.00543098441099859
1493478259.6,40.4711313173552,-79.9264389184117,9.36999988555908,0.051910400390625,-0.970367431640625,-0.0427398681640625,-0.0528091528357263,0.0162956163940858,-0.0229732265113505
1493478259.8,40.4711313173552,-79.9264389184117,9.36999988555908,-0.060028076171875,-0.94720458984375,-0.02880859375,-0.0131323136512897,-0.0179952458017744,0.0159051969782802
1493478260.0,40.4711313173552,-79.9264389184117,9.36999988555908,-0.011260986328125,-0.89447021484375,0.0350341796875,-0.0145986501474874,0.0234952060850061,-0.00980602544978076
1493478260.2,40.4712070059408,-79.9264045526087,7.69999980926514,0.011474609375,-0.981948852539062,0.0363616943359375,-0.0736901999947105,-0.0293048920030139,-0.000678839761861198
1493478260.4,40.4712070059408,-79.9264045526087,7.69999980926514,-0.015716552734375,-1.02761840820312,0.0276336669921875,-0.040702156204117,-0.0124982149957419,0.0102776712788338
1493478260.6,40.4712070059408,-79.9264045526087,7.69999980926514,-0.0420379638671875,-1.01744079589844,0.036468505859375,0.0262734157341767,-0.024634506399342,0.0120609239447509
1493478260.8,40.4712070059408,-79.9264045526087,7.69999980926514,-0.03753662109375,-0.960159301757812,-0.0844879150390625,0.00226342061045834,-0.0361734507704373,0.048096156654613
1493478261.0,40.4712070059408,-79.9264045526087,7.69999980926514,-0.041168212890625,-0.966552734375,0.0297698974609375,-0.0175936411093905,-0.0371124813707992,0.0201737115734592
1493478261.2,40.4712611949448,-79.9263821729272,6.15999984741211,-0.0126800537109375,-0.995559692382812,-0.0107269287109375,0.047051931191193,0.00926593638071269,-0.00913810464838889
1493478261.4,40.4712611949448,-79.9263821729272,6.15999984741211,-0.045562744140625,-0.989181518554688,0.0736236572265625,-0.038884815076247,-0.0944074627466549,0.0659507875508313
1493478261.6,40.4712611949448,-79.9263821729272,6.15999984741211,0.038238525390625,-0.993118286132812,-0.0233154296875,0.00183651588771864,-0.0234123817751046,0.00860893453979015
1493478261.8,40.4712611949448,-79.9263821729272,6.15999984741211,-0.0017242431640625,-1.0469970703125,0.0018157958984375,0.0131775873898211,0.00842011641850353,-0.0244097356033393
1493478262.0,40.4712611949448,-79.9263821729272,6.15999984741211,-0.0631103515625,-0.989303588867188,0.07257080078125,0.0182282723971564,-0.00650290674975548,-0.0125911593177856
1493478262.2,40.4713070439552,-79.9263621401786,4.76999998092651,-0.0447998046875,-0.991836547851562,0.027069091796875,-0.0275831583582777,0.00762489651700587,-0.00350072525290916
1493478262.4,40.4713070439552,-79.9263621401786,4.76999998092651,0.017364501953125,-0.995864868164062,0.0145263671875,0.00185915275698432,-0.022348981551836,0.00754020799434135
1493478262.6,40.4713070439552,-79.9263621401786,4.76999998092651,-0.067108154296875,-0.9908447265625,-0.001861572265625,0.00376677504580807,0.0372022298995349,-0.0213817214439192
1493478262.8,40.4713070439552,-79.9263621401786,4.76999998092651,-0.0227203369140625,-0.9942626953125,0.0115966796875,-0.00912851726846461,0.0117559919999368,-0.0267791500251828
1493478263.0,40.4713070439552,-79.9263621401786,4.76999998092651,-0.0094146728515625,-0.97662353515625,0.0019073486328125,-0.00759027542283484,-0.0201614610324449,-0.00109189604693249
1493478263.2,40.4713375121732,-79.9263483938574,3.01999998092651,-0.0248565673828125,-0.996795654296875,0.0142669677734375,-0.00119788985831764,-0.0138202081608572,0.00215582890241914
1493478263.4,40.4713375121732,-79.9263483938574,3.01999998092651,-0.026275634765625,-0.982864379882812,0.0361480712890625,-0.0289235273349146,-0.0115117801279765,0.00613086314547141
1493478263.6,40.4713375121732,-79.9263483938574,3.01999998092651,-0.025299072265625,-0.991958618164062,0.0045318603515625,-0.0254124157537541,0.00335505034128182,-0.00879855160940379
1493478263.8,40.4713375121732,-79.9263483938574,3.01999998092651,-0.021728515625,-1.00733947753906,0.029205322265625,-6.52474467069413e-05,0.00106499811992269,0.00532765376070352
1493478264.0,40.4713375121732,-79.9263483938574,3.01999998092651,-0.019073486328125,-1.01126098632812,0.0263824462890625,-0.00314492693127457,-0.00317155854217536,-0.00535508431993133
1493478264.2,40.4713548208032,-79.9263404310494,1.54999995231628,-0.0145263671875,-0.97222900390625,0.0347137451171875,-0.0117999341579231,-0.0116241655259779,-9.0813793171702e-05
1493478264.4,40.4713548208032,-79.9263404310494,1.54999995231628,-0.0111083984375,-0.99212646484375,0.053436279296875,-0.00558731196698624,-0.0233644448754832,0.00640037504778743
1493478264.6,40.4713548208032,-79.9263404310494,1.54999995231628,-0.0308990478515625,-0.990737915039062,0.0741119384765625,-0.0226230208280051,-0.0232536573741359,0.00622567168027824
1493478264.8,40.4713548208032,-79.9263404310494,1.54999995231628,-0.00701904296875,-0.984619140625,0.0899810791015625,-0.00639771188669735,-0.00314972062123672,-0.00112358766390443
1493478265.0,40.4713548208032,-79.9263404310494,1.54999995231628,-0.0324554443359375,-0.964752197265625,0.214584350585938,0.00716283806787712,-0.019191804079547,0.0107850034664939
1493478265.2,40.4713548208032,-79.9263404310494,0.0,-0.000885009765625,-0.944473266601562,0.155838012695312,-0.0168253191349026,0.0086174566552784,-0.010856642499817
1493478265.4,40.4713548208032,-79.9263404310494,0.0,-0.010009765625,-0.954727172851562,0.185073852539062,-0.0170996247271808,-0.00839854481367389,-0.000153398078788564
1493478265.6,40.4713548208032,-79.9263404310494,0.0,-0.015777587890625,-0.972869873046875,0.170211791992188,-0.0138534976744832,-0.00735644987912588,-0.00332149451154683
1493478265.8,40.4713548208032,-79.9263404310494,0.0,-0.012939453125,-0.948715209960938,0.178802490234375,-0.0054008906906807,-0.00634684550987684,0.00209351093291129
1493478266.0,40.4713548208032,-79.9263404310494,0.0,-0.0071563720703125,-0.974502563476562,0.174209594726562,-0.00642700665868823,-0.0031491879890187,0.00100853910481301
1493478266.2,40.4713548208032,-79.9263404310494,0.0,-0.0147247314453125,-0.960983276367188,0.181228637695312,-0.00753168587885309,-0.00846059646707273,0.00101093594979408
1493478266.4,40.4713548208032,-79.9263404310494,0.0,-0.0064697265625,-0.954071044921875,0.182327270507812,-0.009578591492688,-0.00525681367570741,-0.00328314499184968
1493478266.6,40.4713548208032,-79.9263404310494,0.0,-0.0125579833984375,-0.966033935546875,0.171310424804688,-0.0117599867415719,-0.00630583282908962,-0.000104129598622098
1493478266.8,40.4713548208032,-79.9263404310494,0.0,-0.014801025390625,-0.96685791015625,0.17181396484375,-0.00326610076087318,-0.00955222619789621,-8.78843159726149e-06
1493478267.0,40.4713548208032,-79.9263404310494,0.0,-0.0107421875,-0.9552001953125,0.173660278320312,-0.0033140376604946,-0.00423229560435393,0.00637427606910466
1493478267.2,40.4713548208032,-79.9263404310494,0.0,-0.0136260986328125,-0.968170166015625,0.17645263671875,-0.00853516497759495,-0.00419953872294595,-0.001142762423753
1493478267.4,40.4713548208032,-79.9263404310494,0.0,-0.009490966796875,-0.954925537109375,0.18438720703125,-0.00429754305106087,-0.00316303642668711,0.00103037702575166
1493478267.6,40.4713548208032,-79.9263404310494,0.0,-0.0180816650390625,-0.964096069335938,0.175643920898438,-0.0117533288388467,-0.00736976568457628,-0.00116752982189074
1493478267.8,40.4713548208032,-79.9263404310494,0.0,-0.012420654296875,-0.961624145507812,0.18212890625,-0.0117666446442971,-0.00524189997360296,0.000959270624646542
1493478268.0,40.4713548208032,-79.9263404310494,0.0,-0.0082550048828125,-0.959747314453125,0.178070068359375,-0.0117213709057658,-0.00311509952706569,-0.00117818246625105
1493478268.2,40.4713548208032,-79.9263404310494,0.0,-0.00592041015625,-0.961517333984375,0.175796508789062,-0.010687265454488,-0.00524909050854618,-9.58737992428526e-05
1493478268.4,40.4713548208032,-79.9263404310494,0.0,-0.0154571533203125,-0.956024169921875,0.17987060546875,-0.00963052313394454,-0.00631968126675803,-8.22916776834485e-05
1493478268.6,40.4713548208032,-79.9263404310494,0.0,-0.012115478515625,-0.962326049804688,0.172454833984375,-0.0128620028006467,-0.00736204251741505,0.00201974137071609
1493478268.8,40.4713548208032,-79.9263404310494,0.0,-0.0091400146484375,-0.955490112304688,0.170700073242188,-0.015965650735025,-0.00308766896783787,-0.00228792169248707
1493478269.0,40.4713548208032,-79.9263404310494,0.0,-0.010589599609375,-0.954421997070312,0.169235229492188,0.00314759009236465,-0.0042751724979042,0.00110947291012701
1493478269.2,40.4713548208032,-79.9263404310494,0.0,-0.010009765625,-0.969680786132812,0.18023681640625,-0.0149461926697427,-0.00522139363320935,-0.000139549641120152
1493478269.4,40.4713548208032,-79.9263404310494,0.0,-0.0085601806640625,-0.9603271484375,0.17779541015625,-0.0128859712504574,-0.010553042135548,0.00202773085398633
1493478269.6,40.4713548208032,-79.9263404310494,0.0,-0.012115478515625,-0.95953369140625,0.177017211914062,-0.0127874342901245,-0.00523577470309578,-0.00224983848889894
1493478269.8,40.4713548208032,-79.9263404310494,0.0,-0.0190582275390625,-0.966232299804688,0.183792114257812,-0.00749972794577214,-0.00420593030956214,0.00100028330543376
1493478270.0,40.4713548208032,-79.9263404310494,0.0,-0.00885009765625,-0.958450317382812,0.181365966796875,-0.0106566391019521,-0.00312202374589989,-0.00116726350578173
1493478270.2,40.4713548208032,-79.9263404310494,0.0,-0.01324462890625,-0.96600341796875,0.181365966796875,-0.00860307558539197,-0.00738973939275187,0.00206341721259339
1493478270.4,40.4713548208032,-79.9263404310494,0.0,-0.013214111328125,-0.962142944335938,0.1832275390625,-0.0128153974815703,-0.00310764267601346,0.000943025341997058
1493478270.6,40.4713548208032,-79.9263404310494,0.0,-0.013397216796875,-0.961517333984375,0.175857543945312,-0.010687265454488,-0.00524909050854618,-9.58737992428526e-05
1493478270.8,40.4713548208032,-79.9263404310494,0.0,-0.0120697021484375,-0.968978881835938,0.183685302734375,-0.0191438671799256,-0.000939563232579955,-0.00232600489607521
1493478271.0,40.4713548208032,-79.9263404310494,0.0,-0.011627197265625,-0.966110229492188,0.184829711914062,0.00101812648473729,-0.00426132406023579,0.00108763498918836
1493478271.2,40.4713548208032,-79.9263404310494,0.0,-0.0106201171875,-0.9583740234375,0.176925659179688,-0.00635776447034617,0.00216861207565152,-0.00113690346935483
1493478271.4,40.4713548208032,-79.9263404310494,0.0,-0.012420654296875,-0.959197998046875,0.18133544921875,-0.0170583457302845,-0.000952612721921343,0.0008940231779396
1493478271.6,40.4713548208032,-79.9263404310494,0.0,-0.0135345458984375,-0.960662841796875,0.173126220703125,-0.00535561695214935,-0.00422004506333956,-4.39421579863074e-05
1493478271.8,40.4713548208032,-79.9263404310494,0.0,-0.016571044921875,-0.965805053710938,0.176651000976562,-0.0106473180381368,6.92421883420602e-05,-0.000109189604693249
1493478272.0,40.4713548208032,-79.9263404310494,0.0,-0.00604248046875,-0.96112060546875,0.194168090820312,-0.00317022696163033,0.00321177227463556,-4.07463646782123e-05
1493478272.2,40.4713548208032,-79.9263404310494,0.0,-0.013671875,-0.970855712890625,0.180450439453125,-0.00528504318326225,0.00322535439619497,-0.00112864766997558
1493478272.4,40.4713548208032,-79.9263404310494,0.0,-0.011383056640625,-0.959381103515625,0.181182861328125,-0.0096225336506743,-0.00525601472738038,-8.49548387735277e-05
1493478272.6,40.4713548208032,-79.9263404310494,0.0,-0.0096282958984375,-0.95654296875,0.187789916992188,-0.00325145337487774,-0.00955249251400522,-0.00107485181595598
1493478272.8,40.4713548208032,-79.9263404310494,0.0,-0.011688232421875,-0.966476440429688,0.180252075195312,-0.00648293304157989,-0.0105948537646622,0.00102718123244356
1493478273.0,40.4713548208032,-79.9263404310494,0.0,-0.0125732421875,-0.96356201171875,0.178512573242188,-0.0117360182917612,-0.00311483321095668,-0.000112119081892336
1493478273.2,40.4713548208032,-79.9263404310494,0.0,-0.0096588134765625,-0.956466674804688,0.17279052734375,-0.00752635955667294,-0.0116521287174237,-0.00111320133565312
1493478273.4,40.4713548208032,-79.9263404310494,0.0,-0.01287841796875,-0.958221435546875,0.176773071289062,-0.0117666446442971,-0.00524189997360296,0.000959270624646542
1493478273.6,40.4713548208032,-79.9263404310494,0.0,-0.013031005859375,-0.9638671875,0.181243896484375,-0.0107099023237537,-0.00631249073181482,0.000972852746205946
1493478273.8,40.4713548208032,-79.9263404310494,0.0,-0.0174102783203125,-0.959976196289062,0.17791748046875,-0.00537958540196006,-0.0074110446814725,-3.59526747160697e-05
1493478274.0,40.4713548208032,-79.9263404310494,0.0,-0.0101470947265625,-0.960433959960938,0.180007934570312,-0.0170530194081044,-0.0041441449722723,-0.0012301141075076
1493478274.2,40.4713548208032,-79.9263404310494,0.0,-0.0081024169921875,-0.956268310546875,0.174057006835938,-0.0149062452533915,9.69390636788843e-05,-0.000152865446570548
1493478274.4,40.4713548208032,-79.9263404310494,0.0,-0.0125579833984375,-0.959091186523438,0.180618286132812,-0.00957459675105288,0.0011259845088855,-0.000100933805314003
1493478274.6,40.4713548208032,-79.9263404310494,0.0,-0.0110931396484375,-0.956802368164062,0.178619384765625,-0.0117280288084909,-0.00205116667157903,-0.000114782242982415
1493478274.8,40.4713548208032,-79.9263404310494,0.0,-0.013946533203125,-0.961822509765625,0.176589965820312,-0.0117067235197703,-0.00311536584317469,-0.00224424585060977
1493478275.0,40.4713548208032,-79.9263404310494,0.0,-0.0108489990234375,-0.96197509765625,0.178878784179688,-0.014923555800477,-0.00415799340994071,-0.00120827618656895
1493478275.2,40.4713548208032,-79.9263404310494,0.0,-0.009063720703125,-0.961273193359375,0.178558349609375,-0.0117360182917612,-0.00311483321095668,-0.000112119081892336
1493478275.4,40.4713548208032,-79.9263404310494,0.0,-0.0114593505859375,-0.96026611328125,0.176177978515625,-0.00857244923285606,-0.00526267263010558,0.000992027506054516
1493478275.6,40.4713548208032,-79.9263404310494,0.0,-0.013641357421875,-0.96258544921875,0.1829833984375,-0.00855780184686062,-0.00526293894621459,-7.40358783042028e-05
1493478275.8,40.4713548208032,-79.9263404310494,0.0,-0.01226806640625,-0.962173461914062,0.176651000976562,-0.00958391781486815,-0.00206528142535645,-0.00115900770640248
1493478276.0,40.4713548208032,-79.9263404310494,0.0,-0.0093536376953125,-0.962081909179688,0.179946899414062,-0.0106499811992269,-0.00418595660138655,-0.00223066372905037
1493478276.2,40.4713548208032,-79.9263404310494,0.0,-0.0077056884765625,-0.958221435546875,0.177474975585938,-0.00427490618179519,-0.00209963620341847,-3.8349519697141e-05
1493478276.4,40.4713548208032,-79.9263404310494,0.0,-0.0127410888671875,-0.962799072265625,0.182952880859375,-0.0181244091146433,-0.00307328789795144,-0.000177632844708285
1493478276.6,40.4713548208032,-79.9263404310494,0.0,-0.0104827880859375,-0.963043212890625,0.179977416992188,-0.0117440077750314,-0.00417849975033432,-0.000109455920802257
1493478276.8,40.4713548208032,-79.9263404310494,0.0,-0.01654052734375,-0.962905883789062,0.17803955078125,-0.0127568079375886,-0.00310870794044949,-0.00332122819543782
1493478277.0,40.4713548208032,-79.9263404310494,0.0,-0.00244140625,-0.96063232421875,0.180084228515625,-0.0106486496186818,-0.00205835720652224,-0.00116992666687181
1493478277.2,40.4713548208032,-79.9263404310494,0.0,-0.0103759765625,-0.965057373046875,0.178146362304688,-0.00324745863324262,-0.00316969432941231,0.0021073593705797
1493478277.4,40.4713548208032,-79.9263404310494,0.0,-0.0129852294921875,-0.9608154296875,0.177139282226562,-0.00959989678140863,-0.00419261450411174,-0.00115368138422233
1493478277.6,40.4713548208032,-79.9263404310494,0.0,-0.013214111328125,-0.961517333984375,0.181625366210938,-0.00963718103666974,-0.00525574841127138,0.000981108545585191
1493478277.8,40.4713548208032,-79.9263404310494,0.0,-0.0087738037109375,-0.962310791015625,0.174667358398438,-0.00746111210996599,-0.00101519700753821,-7.37695621951949e-05
1493478278.0,40.4713548208032,-79.9263404310494,0.0,-0.007537841796875,-0.95849609375,0.179931640625,-0.00957592833159792,-0.0010016148859788,-0.00116167086749256
1493478278.2,40.4713548208032,-79.9263404310494,0.0,-0.0085296630859375,-0.960891723632812,0.180419921875,-0.0106939233572132,-0.00418515765305952,0.000967526424025787
1493478278.4,40.4713548208032,-79.9263404310494,0.0,-0.012725830078125,-0.95941162109375,0.1763916015625,-0.0160109244735564,-0.00521446941437515,-0.000150468601589477
1493478278.6,40.4713548208032,-79.9263404310494,0.0,-0.008331298828125,-0.962921142578125,0.182769775390625,-0.00746910159323623,-0.00207886354691585,-7.11064011051157e-05
1493478278.8,40.4713548208032,-79.9263404310494,0.0,-0.0111846923828125,-0.961441040039062,0.17303466796875,-0.00850453862505904,-0.00207247196029966,-0.00221415213029188
1493478279.0,40.4713548208032,-79.9263404310494,0.0,-0.00518798828125,-0.961395263671875,0.174270629882812,-0.0106499811992269,-0.00418595660138655,-0.00223066372905037
1493478279.2,40.4713548208032,-79.9263404310494,0.0,-0.014984130859375,-0.963638305664062,0.183181762695312,-0.014922224219932,-0.00203039401507641,-0.00014753912439039
1493478279.4,40.4713548208032,-79.9263404310494,0.0,-0.0095977783203125,-0.958251953125,0.177261352539062,-0.00428289566506543,-0.00316330274279612,-3.56863586070618e-05
1493478279.6,40.4713548208032,-79.9263404310494,0.0,-0.0148773193359375,-0.963653564453125,0.179656982421875,-0.00959989678140863,-0.00419261450411174,-0.00115368138422233
1493478279.8,40.4713548208032,-79.9263404310494,0.0,-0.0082550048828125,-0.962356567382812,0.176300048828125,-0.00852584391377967,-0.001008272788704,-8.46885226645198e-05
1493478280.0,40.4713548208032,-79.9263404310494,0.0,-0.0075531005859375,-0.958953857421875,0.176864624023438,-0.0170596773108296,-0.00308021211678565,-0.00016671388423896
1493478280.2,40.4713548208032,-79.9263404310494,0.0,-0.0089263916015625,-0.960174560546875,0.174713134765625,-0.0128313764481108,-0.00523497575476876,0.000948351664177217
1493478280.4,40.4713548208032,-79.9263404310494,0.0,-0.0118255615234375,-0.964202880859375,0.174835205078125,-0.0117067235197703,-0.00311536584317469,-0.00224424585060977
1493478280.6,40.4713548208032,-79.9263404310494,0.0,-0.013427734375,-0.962142944335938,0.178985595703125,-0.0181244091146433,-0.00307328789795144,-0.000177632844708285
1493478280.8,40.4713548208032,-79.9263404310494,0.0,-0.010467529296875,-0.955276489257812,0.174240112304688,-0.00750105952631718,-0.00633352970442644,-6.04537567447987e-05
1493478281.0,40.4713548208032,-79.9263404310494,0.0,-0.0084075927734375,-0.95880126953125,0.177001953125,-0.0106712864879475,-0.00312175742979088,-0.000101200121423011
1493478281.2,40.4713548208032,-79.9263404310494,0.0,-0.012481689453125,-0.9620361328125,0.179153442382812,-0.00854182288032015,-0.0031356058674593,-7.93622004843613e-05
1493478281.4,40.4713548208032,-79.9263404310494,0.0,-0.0126953125,-0.96014404296875,0.175079345703125,-0.0074477963045156,-0.00314306271851152,-0.00220057000873247
1493478281.6,40.4713548208032,-79.9263404310494,0.0,-0.0161590576171875,-0.962982177734375,0.175827026367188,-0.0148995873506663,-0.000966993791807771,-0.00121626566983919
1493478281.8,40.4713548208032,-79.9263404310494,0.0,-0.0085296630859375,-0.958831787109375,0.175979614257812,-0.00852717549432471,-0.0031358721835683,-0.00114542558484308
1493478282.0,40.4713548208032,-79.9263404310494,0.0,-0.011932373046875,-0.961517333984375,0.177978515625,-0.0107099023237537,-0.00631249073181482,0.000972852746205946
1493478282.2,40.4713548208032,-79.9263404310494,0.0,-0.012176513671875,-0.964263916015625,0.184600830078125,-0.00960655468413383,-0.00312868164862509,-9.02811609536862e-05
1493478282.4,40.4713548208032,-79.9263404310494,0.0,-0.01397705078125,-0.959228515625,0.179946899414062,-0.0127861027095794,-0.00310817530823148,-0.00118910142672038
1493478282.6,40.4713548208032,-79.9263404310494,0.0,-0.010589599609375,-0.959136962890625,0.178558349609375,-0.00958391781486815,-0.00206528142535645,-0.00115900770640248
1493478282.8,40.4713548208032,-79.9263404310494,0.0,-0.009429931640625,-0.961654663085938,0.176910400390625,-0.0106419917159566,-0.0031222900620089,-0.00223332689014045
1493478283.0,40.4713548208032,-79.9263404310494,0.0,-0.0116424560546875,-0.95953369140625,0.176300048828125,-0.00648959094430509,-0.00953092090917558,0.0020905814557122
1493478283.2,40.4713548208032,-79.9263404310494,0.0,-0.01708984375,-0.965011596679688,0.177719116210938,-0.0064363277225035,-0.00634045392326065,-4.95347962754738e-05
1493478283.4,40.4713548208032,-79.9263404310494,0.0,-0.011383056640625,-0.960906982421875,0.178070068359375,-0.0106632970046773,-0.00205809089041324,-0.00010386328251309
1493478283.6,40.4713548208032,-79.9263404310494,0.0,-0.010406494140625,-0.962875366210938,0.175308227539062,-0.0127940921928497,-0.00417184184760913,-0.0011864382656303
1493478283.8,40.4713548208032,-79.9263404310494,0.0,-0.0092620849609375,-0.9664306640625,0.17913818359375,-0.00959190729813839,-0.0031289479647341,-0.00115634454531241
1493478284.0,40.4713548208032,-79.9263404310494,0.0,-0.0162353515625,-0.957260131835938,0.200546264648438,-0.0118278973493689,-0.00949603349889554,0.0031020500377243
1493478284.2,40.4713548208032,-79.9263404310494,0.0,-0.0129241943359375,-0.956695556640625,0.213363647460938,-0.0106047074606955,-0.00205915615484927,-0.00436811681994797
1493478284.4,40.4713548208032,-79.9263404310494,0.0,-0.01495361328125,-0.952529907226562,0.219558715820312,-0.00954663355960705,-0.00100214751819682,-0.00329379763621
1493478284.6,40.4713548208032,-79.9263404310494,0.0,0.001129150390625,-0.937667846679688,0.341812133789062,0.00635510130925609,-0.00642381086538013,-0.000984570655002294
1493478284.8,40.4713548208032,-79.9263404310494,0.0,-0.0005645751953125,-0.929855346679688,0.389785766601562,0.0170543509886494,-0.00543018546267157,-0.00407623436447528
1493478285.0,40.4713548208032,-79.9263404310494,0.0,-0.0005645751953125,-0.922012329101562,0.372207641601562,-0.0160415508260923,-0.00734153617702144,0.000920921104949401
1493478285.2,40.4713711236049,-79.9263280258327,0.670000016689301,0.0026702880859375,-0.923065185546875,0.38128662109375,-0.0127741184846741,0.00433828941573908,0.00199044659872522
1493478285.4,40.4713711236049,-79.9263280258327,0.670000016689301,0.0071563720703125,-0.948532104492188,0.368453979492188,-0.0108057761229965,-0.0190764892043466,0.0010048106792869
1493478285.6,40.4713711236049,-79.9263280258327,0.670000016689301,0.0892181396484375,-0.863357543945312,0.446014404296875,0.0509372169055096,0.0485936351462398,-0.0379875961049993
1493478285.8,40.4713711236049,-79.9263280258327,0.670000016689301,0.0677337646484375,-0.903350830078125,0.42535400390625,-0.0428462671977398,-0.0124841002419644,0.0113218967422539
1493478286.0,40.4713711236049,-79.9263280258327,0.670000016689301,-0.0735321044921875,-0.9140625,0.492584228515625,0.0439171242720607,-0.0524030207694892,0.0304388659951697
1493478286.2,40.4713883484159,-79.9263206497579,2.75999999046326,0.0365142822265625,-0.921432495117188,0.435943603515625,0.0217220734312313,0.0275128509054996,-0.0158418137443363
1493478286.4,40.4713883484159,-79.9263206497579,2.75999999046326,-0.0020294189453125,-0.936309814453125,0.403945922851562,0.0101732753641027,-0.0202730474821192,0.0236131841212966
1493478286.6,40.4713883484159,-79.9263206497579,2.75999999046326,0.024261474609375,-0.903182983398438,0.398391723632812,0.0429088514833567,0.0422696928217377,0.000330231975169826
1493478286.8,40.4713883484159,-79.9263206497579,2.75999999046326,-0.090362548828125,-0.908233642578125,0.386032104492188,0.00756044801862595,-0.055356200102278,0.0396701812817113
1493478287.0,40.4713883484159,-79.9263206497579,2.75999999046326,-0.0864105224609375,-0.914810180664062,0.409652709960938,0.00173265260520555,-0.0138361871273977,0.0213777267022841
1493478287.2,40.4714262765278,-79.9263040535896,4.88000011444092,0.0055999755859375,-0.943588256835938,0.370941162109375,-0.00674392282840766,-0.00633486128497148,0.0223377962752576
1493478287.4,40.4714262765278,-79.9263040535896,4.88000011444092,-0.0596466064453125,-0.9134521484375,0.381790161132812,-0.0259756743243059,-0.0189747564507056,0.0200410861511733
1493478287.6,40.4714262765278,-79.9263040535896,4.88000011444092,-0.036712646484375,-0.921234130859375,0.404083251953125,-0.022182800299815,-0.0381425920804419,0.0435860933485638
