,avgSpeed,maxAccelX,maxAccelY,maxAccelZ,maxGyroX,maxGyroY,maxGyroZ,sdAccelX,sdAccelY,sdAccelZ,sdGyroX,sdGyroY,sdGyroZ,condition
0,0.0,0.0433197021484,-0.932540893555,0.354614257812,-0.0112659703594,0.020282634862,0.0180482427075,0.0181349967285,0.0107829994819,0.0346293578026,0.00740678933843,0.0160018144946,0.0125264132474,0.0
1,1.42299998999,0.0653839111328,-0.892562866211,0.531356811523,0.0308785538911,0.0225630997035,0.0245863031836,0.0243939859706,0.0151151850025,0.0433228753181,0.0321111465885,0.0180115622582,0.014492831531,0.0
2,5.29400000572,0.0885620117188,-0.893737792969,0.449127197266,-0.00495401225977,0.0714752489161,0.0320234468438,0.034242384189,0.0218217393521,0.0439307208914,0.0376766723432,0.0424050616595,0.0247962491718,0.0
3,8.2029999733,0.101486206055,-0.873397827148,0.388259887695,0.0760034217176,0.0656511819282,0.0269397386389,0.0372961132724,0.0300901045843,0.0420744514004,0.0513183370944,0.0390765631416,0.0209377319651,0.0
4,10.0640002251,0.382186889648,-0.828186035156,0.428527832031,0.0352727696898,0.368513850575,0.0481060103506,0.114915149472,0.0561192447441,0.0649467894666,0.058433936965,0.148575674136,0.0961203455732,0.0
5,11.8730000496,0.149932861328,-0.876907348633,0.382614135742,0.049421345613,0.0628884186133,0.0456556358317,0.0801884474038,0.0849209907285,0.0510514460259,0.0328123537203,0.0609793679283,0.0307544725088,0.0
6,12.7749999046,0.146865844727,-0.871307373047,0.576187133789,0.0745293620542,0.229708030348,0.0859228978298,0.149984275602,0.107343830359,0.124820886749,0.0856505277851,0.115098747428,0.0999364383788,0.0
7,12.8920000076,0.179916381836,-0.785293579102,0.300598144531,0.0864422142423,0.124026607758,0.159245048962,0.0852162597768,0.0796269409826,0.0579850653693,0.0836528398965,0.0785945127286,0.0760454797255,0.0
8,12.6310001373,0.0768280029297,-0.889129638672,0.311172485352,0.0901027291607,0.0844807960995,0.0886510400504,0.0814522812062,0.0612633040677,0.060044014655,0.0546644611648,0.0795180141378,0.0362517900068,0.0
9,12.5369997978,0.0981750488281,-0.803604125977,0.303924560547,0.0411972378508,-0.0340216166097,0.106323510728,0.0823831971464,0.0844238694227,0.0355849371724,0.0704662138703,0.0429383255468,0.0312742399113,0.0
10,12.6389998436,0.14518737793,-0.882919311523,0.276336669922,0.101956725489,0.123604496726,0.110500146266,0.0936825005382,0.0351347909665,0.0299565556754,0.0519434177791,0.0925587184555,0.0740365985994,0.0
11,13.0840001106,0.0708618164062,-0.899169921875,0.280197143555,0.058966381276,0.148028613399,0.127699639534,0.0583267353513,0.0473785108265,0.0358427609349,0.0577921924853,0.0986018741706,0.0569931181658,0.0
12,13.1920000076,0.0652770996094,-0.887237548828,0.226989746094,0.0684789263736,0.108047108586,0.0823854209538,0.0546892195433,0.0471553632789,0.0489448711737,0.0298757442963,0.0750048506764,0.0457062084514,0.0
13,12.8010000229,0.110702514648,-0.923492431641,0.214599609375,0.0591626562483,0.162836055376,0.0610074279354,0.0541161405684,0.0359828413081,0.0261990830499,0.0366283856793,0.0730326534803,0.0455134433025,0.0
14,12.692999649,0.149688720703,-0.898330688477,0.288482666016,0.0432057939449,0.143417616287,-0.00560195935298,0.0678887634695,0.0472937858426,0.0623478258804,0.0686692164579,0.0456481505231,0.0308431774023,0.0
15,12.9400001526,0.212341308594,-0.849334716797,0.290649414062,0.0290833170003,0.178962028408,0.113657590054,0.114222457864,0.0548646665534,0.040360832681,0.0474321559495,0.137415778599,0.0984284744654,0.0
16,12.957000351,0.183456420898,-0.880859375,0.268737792969,0.070893614534,0.149272575944,0.0679819805142,0.0854081618962,0.0630277849245,0.0364496426499,0.0504158045491,0.118042164512,0.0634119536599,0.0
17,13.0140003204,0.130249023438,-0.928588867188,0.232467651367,0.171561636371,0.110911072022,0.078960595792,0.10142259668,0.0454204398421,0.0436779181749,0.062552972731,0.0856346610356,0.0387725248396,0.0
18,12.7070001602,0.0204925537109,-0.941802978516,0.255218505859,0.0533178166039,0.113605392097,0.1149329779,0.0743707342988,0.0341798384603,0.0363853755264,0.0600249721181,0.0794381385535,0.0613716571987,0.0
19,12.6460001945,0.179336547852,-0.776657104492,0.276245117188,0.0836437645689,0.155347779023,0.0528765308113,0.0848411136516,0.0985913113823,0.0621339622892,0.0641811458542,0.0835209310062,0.0432753255632,0.0
20,12.8020001411,0.190078735352,-0.895904541016,0.219100952148,0.0505092469183,0.10811528551,0.0516983483451,0.0864750748038,0.0541384808411,0.0186307741335,0.0541771181156,0.0782594989972,0.0393984387126,0.0
21,12.8999999046,0.246353149414,-0.949356079102,0.216094970703,0.0795677965205,0.126607210855,0.0862768319386,0.0719720562364,0.0250178366704,0.0273107896277,0.0423880712878,0.0455916624348,0.0496542530315,0.0
22,13.0750000954,0.30744934082,-0.859268188477,0.273818969727,0.0404070779553,0.217081717303,0.14517237313,0.105263362327,0.0718584597263,0.0387943936589,0.0593665715712,0.116949336367,0.0781159962405,0.0
23,13.4360002518,0.224517822266,-0.789337158203,0.263320922852,0.0370451033952,0.120353575983,0.151026001206,0.119903626419,0.0847098197104,0.0515672577012,0.049172572809,0.115640894775,0.0741030532094,0.0
24,13.5759999275,0.242614746094,-0.703552246094,0.240905761719,0.162861888038,0.253791262401,0.134982852483,0.142484323428,0.105892974048,0.0445635970266,0.105142262836,0.145958350049,0.107520514803,0.0
25,13.8439998627,0.103179931641,-0.927886962891,0.289367675781,0.118859009979,0.081132669977,0.113499664601,0.181426847811,0.0254402061688,0.0634200969833,0.0647668879856,0.137678006473,0.0490326793453,0.0
26,14.0810001373,0.135238647461,-0.916015625,0.270736694336,0.0400371648799,0.08398864393,0.0762468346412,0.0867098966683,0.0336121659294,0.0352354498681,0.0320792659822,0.0633446247859,0.0599325626733,0.0
27,14.2079999924,0.284042358398,-0.759857177734,0.29296875,0.0561157336452,0.0633595318102,0.169902753328,0.112683669625,0.138469396562,0.057662861913,0.0638548486694,0.0661801950246,0.0715969395078,0.0
28,14.1720001221,0.156112670898,-0.890777587891,0.246292114258,0.0315906831666,0.229774875691,0.194716756785,0.0608880929716,0.0696320534825,0.033401327809,0.0446547672107,0.105715906808,0.0822709029136,0.0
29,13.9989997864,0.245223999023,-0.887710571289,0.326614379883,0.0657246851743,0.123647373619,0.143703107156,0.124154384241,0.0521613459658,0.0685640934715,0.044911325494,0.0967700130744,0.0664841044494,0.0
30,13.9430002213,0.176788330078,-0.904571533203,0.322448730469,0.102614259962,0.175517229538,0.00974104431918,0.0719613940071,0.0505461656797,0.0517107832871,0.0487572190473,0.0642292754826,0.0444078001917,0.0
31,14.232999897,0.21012878418,-0.757583618164,0.370635986328,0.0673335007888,0.162788917424,0.104634800281,0.0998823940237,0.102277723704,0.0922587799518,0.0349897432957,0.119497687412,0.0838076209727,0.0
32,14.2080000877,0.070556640625,-0.892837524414,0.24153137207,-0.00960442415526,0.0587203051913,0.059557603038,0.0457780152483,0.0365800192392,0.0361636015233,0.0268816863793,0.0559667806796,0.0391143516456,0.0
33,13.6579998016,0.128936767578,-0.877914428711,0.220489501953,0.030822094876,0.107488910021,0.0861186401699,0.0717847709425,0.0453909781337,0.0296433866976,0.0254992584625,0.0600082415039,0.0521340470333,0.0
34,13.0619996071,0.119140625,-0.914077758789,0.283706665039,0.0280366946919,0.0414094917896,0.038837677125,0.0474176381429,0.0418109061469,0.0503380234146,0.0358625500202,0.046112288085,0.0194811966995,0.0
35,12.4580000877,0.0939025878906,-0.925720214844,0.212661743164,0.0463203608397,0.0439618653784,0.0944061311661,0.0335397548003,0.0285904506104,0.0511918939375,0.0339989148569,0.0281805353716,0.0432434013731,0.0
36,10.938999939,0.0826263427734,-0.93684387207,0.147033691406,0.0304378007307,0.0364269837062,0.019564380316,0.0415571316841,0.0224571080214,0.0218659849858,0.0328216796876,0.0274353766221,0.00882125254798,0.0
37,9.067000103,0.0784301757812,-0.885131835938,0.194808959961,0.021567610088,0.0618868037274,0.0679630720705,0.0604834143038,0.0467338384699,0.0207673899886,0.020471477029,0.0451893073424,0.0366532450034,0.0
38,8.18200025558,0.107131958008,-0.906753540039,0.28825378418,0.0229159685479,0.0576941892233,0.0691953167069,0.0448015185833,0.0405786107036,0.0445063083648,0.0193438337545,0.0333132239162,0.0326474369807,0.0
39,7.93100013733,0.103363037109,-0.938568115234,0.217163085938,0.0194482664925,0.0139467083126,0.0397317003029,0.0325002526272,0.0274295520802,0.0907528530014,0.0216816605991,0.0223304541657,0.0216122513887,0.0
40,4.66400008202,0.05322265625,-0.981964111328,0.0938415527344,0.0195313571185,0.0298891895462,0.0202338990141,0.0189916381479,0.0250353899717,0.0567163481005,0.0118017754504,0.0207072169974,0.0140584706378,0.0
41,1.52200000882,0.0603485107422,-0.958953857422,0.313262939453,0.00322349018343,0.0117791615014,0.020236029543,0.0161481394358,0.0151673285185,0.0709787398433,0.00890541127708,0.0148421782751,0.018468195902,0.0
42,1.89699994326,0.0480041503906,-0.913681030273,0.428421020508,0.0266574435634,0.0785358215981,0.034054107175,0.020296237941,0.00927362883515,0.0249022876514,0.0222889620444,0.036104303507,0.0239321400918,0.0
43,4.99699993134,0.0669860839844,-0.906982421875,0.390029907227,0.0164743145032,0.0637302438339,0.0806362567499,0.036757057868,0.0331536131517,0.0774182222836,0.0362884489128,0.0383506640749,0.035809585785,0.0
44,6.31200013161,0.0904846191406,-0.951766967773,0.165512084961,-0.00831012786548,0.0214006298877,0.0392962734647,0.0472070071543,0.0303899471826,0.043471217251,0.010932268229,0.0263694103883,0.0196974544938,0.0
45,4.48800005913,0.105850219727,-0.938446044922,0.287170410156,0.0112899388092,0.0405836455356,0.0423874045419,0.0414239638353,0.02122844866,0.0685869531787,0.0178498012451,0.0349321833662,0.0308754300763,0.0
46,4.46100001335,0.0771179199219,-0.917144775391,0.319244384766,0.010937602597,0.0320471489775,0.0406203971587,0.030858764805,0.0281425182821,0.0354915140348,0.020869996204,0.0299444122326,0.0222578184251,0.0
47,5.84499988556,0.0965423583984,-0.908172607422,0.381896972656,0.0106369317099,0.0569431777959,0.0974117747724,0.0405903016976,0.0291828598845,0.0388566743414,0.030128126672,0.0529492077542,0.0428472150708,0.0
48,7.26200017929,0.106170654297,-0.906814575195,0.386871337891,0.0238528686194,0.0777424659094,0.0985241771597,0.0475662603428,0.0360240439365,0.0429385592441,0.0287012691244,0.0360922920697,0.0354236725872,0.0
49,9.39400033951,0.128356933594,-0.824859619141,0.421768188477,0.11950029917,0.126761407882,0.0761368460882,0.111617611055,0.0746517078533,0.056304283908,0.0889931540976,0.0840936676635,0.0654639492263,0.0
50,11.186000061,0.102462768555,-0.892074584961,0.325317382812,0.0317803002362,0.100712762944,0.0548675100422,0.0702436974602,0.0251520498942,0.0249567872941,0.0428915938368,0.05956580442,0.0483191244781,0.0
51,12.5699999809,0.0832672119141,-0.902954101562,0.275253295898,0.036150281269,0.0470175764131,0.0860217011062,0.0434336880878,0.0362276631209,0.0414552341187,0.045595560028,0.0492781155434,0.0521413410177,0.0
52,11.6370000839,0.123016357422,-0.828048706055,0.193344116211,0.069544989758,0.058260377271,0.0659076443412,0.0750952422894,0.0775368992466,0.0510352634692,0.0614244399383,0.0650765737208,0.0422939740759,0.0
53,8.93799982071,0.14338684082,-0.931198120117,0.120391845703,0.0411029619482,0.104673149801,0.0316109231909,0.040167156162,0.0364622148437,0.0420451518993,0.032668289423,0.0351511221683,0.0380918950688,0.0
54,5.43600006104,0.0685272216797,-0.97265625,0.0829620361328,-0.00113131083107,0.0289440336753,0.0362879666973,0.0348040622758,0.0148594065583,0.046720474378,0.0165293202772,0.0283994271227,0.0225339220736,0.0
