,avgSpeed,sdSpeed,maxAccelX,maxAccelY,maxAccelZ,maxGyroX,maxGyroY,maxGyroZ,meanAccelX,meanAccelY,meanAccelZ,meanGyroX,meanGyroY,meanGyroZ,sdAccelX,sdAccelY,sdAccelZ,sdGyroX,sdGyroY,sdGyroZ,condition
0,0.186000001431,0.299488455058,0.0453338623047,-0.924011230469,0.3701171875,0.0368275231342,-0.00736417304629,0.061262825084,0.0102767944336,-0.952293395996,0.282679748535,0.00382935933142,-0.0369341561042,0.011223146729,0.0185236996251,0.0151200292214,0.044472357879,0.0210337683164,0.0267860301599,0.0258485411988,0.0
1,1.69000003338,1.04981482861,0.0111083984375,-0.846969604492,0.486038208008,0.0384065113445,-0.140346991551,0.138567999942,-0.106163024902,-0.914137268066,0.392669677734,-0.0195197191046,-0.328869848167,0.0713388418051,0.0758855453936,0.026238683114,0.0487950159779,0.0429031808571,0.151832747498,0.0359589095252,0.0
2,5.22599992752,1.64788892541,-0.0151672363281,-0.858612060547,0.554718017578,0.0282082022661,-0.138879856106,0.148555919295,-0.11891784668,-0.915090942383,0.49757232666,-0.0214419088846,-0.2580148761,0.0637794324193,0.0718334135423,0.0347396114801,0.0388794141271,0.0284313116576,0.10338281193,0.038540236573,0.0
3,10.2640001297,1.86992114021,0.162521362305,-0.868988037109,0.553939819336,0.00681076817177,0.0971758186998,0.0791837686913,0.047119140625,-0.913618469238,0.432815551758,-0.0333952677529,-0.0194612893503,0.00173411734381,0.0669443709778,0.0292145468134,0.0527328968822,0.0265331905103,0.0727838073434,0.0560772948706,0.0
4,13.7450001717,0.674804268076,0.159591674805,-0.823852539062,0.414367675781,0.0877935021794,0.102143413081,0.0977862152216,0.0411972045898,-0.938084411621,0.295347595215,-0.0117527962066,-0.0227888292375,0.0291527456099,0.0682071130884,0.0672720918774,0.0644501171831,0.0568567408318,0.0497310521899,0.0414713498017,0.0
5,14.6670000076,0.236927191888,0.20768737793,-0.825439453125,0.395156860352,0.0432020655194,0.196479769427,0.0659332106876,0.0615539550781,-0.983172607422,0.22569732666,-0.0760067240373,0.0661201113329,-0.0359206368882,0.0784001729653,0.0992461969012,0.0791217208714,0.0866640206206,0.06978823506,0.0787109333276,0.0
6,15.5349999428,0.495496411184,0.163299560547,-0.909255981445,0.24267578125,0.0404566127516,0.101276554146,0.0489100186837,0.0880218505859,-0.960070800781,0.204690551758,-0.0325506462132,0.0137204994096,-0.00292758635471,0.0617265088131,0.03101661976,0.036152127977,0.0720345809356,0.0460945264563,0.0430820472651,0.0
7,16.4429998398,0.15563820869,0.114990234375,-0.874420166016,0.302978515625,0.0387207643531,0.0671779721811,0.0795219901498,0.0571060180664,-0.950801086426,0.18193359375,-0.0167230803807,-0.00138050281426,-0.00048751826915,0.0418846056183,0.0530344325919,0.0570659964894,0.0374830502451,0.0483327925414,0.0412039978328,0.0
8,16.5489999771,0.0667416406596,0.141586303711,-0.885696411133,0.242782592773,0.0399804395487,0.087995103474,0.160339874486,0.045231628418,-0.97580871582,0.17847442627,-0.0138086766733,0.000622567168028,0.0055079497665,0.0762635536018,0.0534764920236,0.032295584417,0.057196451776,0.0829801393516,0.0678734364021,0.0
9,16.4659994125,0.0842224828404,0.217407226562,-0.935073852539,0.188552856445,0.034205641041,0.164790815616,0.0586286924498,0.0908187866211,-0.997190856934,0.140480041504,-0.0215202857154,0.012049818563,-0.0238147587842,0.0883458456355,0.0360827653906,0.0358936750726,0.0297556103271,0.0976732885113,0.0565747008232,0.0
10,15.6909998894,0.961277280798,0.147018432617,-0.978897094727,0.0854644775391,0.0876182661797,0.0908148584361,0.0956058852372,0.0688400268555,-1.01879577637,-0.0243545532227,-0.00392978713613,0.00151477939643,6.24777591733e-05,0.0572095047249,0.0227463605573,0.0515967670892,0.0554140598901,0.064656440102,0.0496842066567,0.0
11,11.9010001183,1.61746341829,0.279190063477,-0.969802856445,0.0144653320312,0.064309481371,0.210265356493,0.156115834681,0.104312133789,-1.03973083496,-0.13878326416,-0.0240393697905,0.00270920714533,-0.000572979108531,0.109546229983,0.0535585760515,0.0695165779593,0.0570883085446,0.0913880351841,0.0717693000868,0.0
12,5.8909999609,2.43929158892,0.0789642333984,-0.921157836914,0.356048583984,0.0221023728349,0.0803156121546,0.0117107182614,0.0479507446289,-0.98564453125,0.0888412475586,-0.0186842854706,0.0072484054337,-0.000316623222,0.0329121058085,0.0436994804467,0.178488625252,0.0312417747437,0.0433843179994,0.0112962356755,0.0
13,4.3810000658,1.11996477141,0.127853393555,-0.886917114258,0.449264526367,0.0263141620989,0.0248057476574,0.0559215892017,0.0666305541992,-0.91515045166,0.387054443359,-0.00877282547327,-0.0232349619833,0.0212944230234,0.0403794843398,0.0193864248485,0.0312724546053,0.0230610627196,0.0301780178508,0.0206261080636,0.0
14,7.93599996567,1.2932918893,0.234817504883,-0.888168334961,0.440505981445,0.0454492408472,0.178052026264,0.0423178960375,0.0709182739258,-0.926095581055,0.361212158203,-0.0224893567729,-0.00304615028644,-0.0080057551845,0.107010313315,0.0276899701651,0.0427427260726,0.0400683900835,0.0853654375318,0.0498930472564,0.0
15,10.8820001602,0.936350208316,0.278106689453,-0.90852355957,0.366027832031,0.0495398562815,0.169675053055,0.0763903790239,0.0681442260742,-0.957231140137,0.312403869629,-0.0241728207928,0.0150493635304,0.000353401476653,0.115011720625,0.0278459131838,0.0294805289745,0.0473275614138,0.0849467660501,0.0569542094702,0.0
16,12.928000164,0.551377807456,0.148147583008,-0.845367431641,0.292541503906,0.0811782100317,0.22148019416,0.0768191479594,0.0681411743164,-0.945109558105,0.249139404297,-0.0453314758638,0.0372025494789,-0.0210314358657,0.0410804948596,0.049729889472,0.0330331056824,0.0565980104338,0.0949514784469,0.0602926575826,0.0
17,13.7450001717,0.148417766843,0.193740844727,-0.912414550781,0.304946899414,0.058758654711,0.058543737611,0.0243719187159,0.0205215454102,-0.990159606934,0.216204833984,-0.0292590590007,0.00944146532816,-0.0200488892132,0.0858983095744,0.0467803026406,0.0402902961677,0.0632118829257,0.0316930230389,0.0349932417191,0.0
18,13.9029998779,0.0349761467451,0.0912933349609,-0.935104370117,0.237243652344,0.0345846088641,0.0869892275302,0.054153516554,0.00233612060547,-0.980897521973,0.198754882813,-0.0181855552933,0.000755059432259,-0.00914433644534,0.0590206035551,0.0301071289051,0.0290935206912,0.0312884079679,0.0630833841447,0.0402269344828,0.0
19,13.9229998589,0.060009288281,0.0750885009766,-0.89501953125,0.229934692383,0.0402076071897,0.0349278903286,0.0967643603114,0.00187225341797,-0.990107727051,0.185569763184,0.0094982439226,-0.0520737209007,0.0244346894228,0.0589416595068,0.0539205550259,0.0290397898815,0.0362338890337,0.0642908885784,0.0447471653974,0.0
20,13.8799999237,0.116618981198,0.165100097656,-0.726425170898,0.311828613281,0.128310568688,0.13586462512,0.0368136746965,0.0497680664062,-0.950784301758,0.17663269043,0.00257024339965,0.0479523193241,-0.0292050767254,0.0615917925249,0.10306872616,0.0705819866498,0.0870576116633,0.061325115027,0.047287809789,0.0
21,14.006000042,0.281709234448,0.139633178711,-0.910781860352,0.258193969727,0.0190945986998,0.101328485788,0.0330210669881,0.0424758911133,-0.986306762695,0.202258300781,-0.026235439057,0.0107003682071,-0.00690674849746,0.0500417730481,0.0536432037589,0.0462164311929,0.0323654538261,0.0421952418992,0.0272486884664,0.0
22,14.5510001183,0.0985955133082,0.169494628906,-0.852844238281,0.291076660156,0.015941149653,0.124026607758,0.0516421556461,0.045637512207,-0.932653808594,0.205342102051,-0.0413610488894,0.00494535698622,-0.0252790180148,0.0963158073218,0.0662054770596,0.0635623409566,0.0461010531821,0.0852815181394,0.0574567912085,0.0
23,14.7919997215,0.0885436900428,0.336700439453,-0.841613769531,0.236221313477,0.0717695282165,0.299365938136,0.121069966316,0.0604904174805,-0.969981384277,0.181173706055,-0.0337503203894,0.0537180098209,-0.0411069300582,0.130765838202,0.098133336945,0.0513854010217,0.0621995256623,0.124364384389,0.0848599914826,0.0
24,14.734000206,0.158197894397,0.136352539062,-0.92253112793,0.221328735352,0.0831801082231,0.072848108458,0.056061671475,0.0200576782227,-0.980178833008,0.166734313965,-0.00517361652325,-0.0190066078573,0.00191526556115,0.0573887171211,0.0304418692855,0.0320273630002,0.0441942815742,0.0438560119141,0.0285746481596,0.0
25,14.2759999275,0.181304031492,0.125427246094,-0.938369750977,0.194488525391,0.0218475083186,0.221369406658,0.101919973866,0.000984191894531,-0.998300170898,0.104446411133,-0.012941924265,0.0121046796815,0.0029282787766,0.0697577497469,0.0465819195769,0.0930853166234,0.0295319727328,0.106812600482,0.0678777493518,0.0
26,12.4850002289,0.83328318712,0.160110473633,-0.890625,0.315505981445,0.041588722531,0.123264144738,0.080724673698,0.0472610473633,-0.949012756348,0.210211181641,-0.0227003856577,0.0191876229166,-0.00380043740199,0.083902035269,0.0495952054113,0.126825221383,0.0552761884682,0.0961607696664,0.0496873358302,0.0
27,12.6340003014,0.511624923909,0.0996551513672,-0.894073486328,0.304504394531,0.0381425920804,0.0407647404897,0.0622322157208,-0.0256454467773,-0.973062133789,0.247924804687,-0.00392222375864,-0.0497573566478,-0.00513619910994,0.109447749068,0.0622582201209,0.0472537108232,0.0333754769643,0.0716218602534,0.0452943558162,0.0
28,12.9930002213,0.492275101469,0.149230957031,-0.95393371582,0.175048828125,0.099448294058,0.213066735644,0.0550459418353,0.0216323852539,-1.04108581543,0.0559112548828,0.0137845750655,-0.0122176776065,-0.0100629938634,0.0765719209853,0.0672858442731,0.0788569087198,0.0520347421986,0.0928741797976,0.0603459101497,0.0
29,10.0459998131,1.73101243084,0.139373779297,-0.978500366211,-0.0157775878906,0.0213779930184,0.0511318939812,0.0445240586845,0.000765991210938,-1.01823272705,-0.0518630981445,-0.00983034011053,-0.00801939056928,0.00578422609799,0.0649787014954,0.0268469377416,0.0231787311423,0.0211324932777,0.0449357392083,0.0264181845304,0.0
30,5.19300000668,1.75704329232,0.0584564208984,-1.00364685059,0.0357513427734,-0.00453989071026,0.00861239664921,0.0328516899428,0.0294342041016,-1.02111968994,-0.0310623168945,-0.0150009206301,-0.00841183398751,0.0021071729493,0.0149485192305,0.0155229005148,0.0489388027712,0.00984135373484,0.013969281082,0.0122370812319,0.0
31,1.12699997425,1.10208942795,0.0482330322266,-0.954864501953,0.23583984375,-0.0107937918981,0.00222267424578,0.00620995902985,0.035888671875,-0.979780578613,0.14369354248,-0.0180897081256,-0.0100938332688,0.0012269183142,0.00822687596014,0.0160816480172,0.0662536931322,0.00348894836452,0.004645355424,0.0042051699114,0.0
32,0.26099999696,0.173041420742,0.0394439697266,-0.955596923828,0.240768432617,-0.00965449158376,-0.00196807604557,0.00409407754378,0.0297515869141,-0.965525817871,0.211666870117,-0.0183791671045,-0.00785829595494,0.000258592941847,0.00627690524311,0.00754504921006,0.0319157478923,0.00428288816012,0.00392978422993,0.00266707517928,0.0
33,0.36400001049,0.252727353587,0.033935546875,-0.951690673828,0.233261108398,-0.0106872654545,-0.00305970577639,0.00200322977196,0.0285629272461,-0.975602722168,0.163645935059,-0.0170889720828,-0.00659025843351,5.528722423e-05,0.00379755840912,0.0126151124341,0.0383409659128,0.00335845348587,0.00201226220905,0.00166516239942,0.0
34,0.0,0.0,0.0313873291016,-0.966110229492,0.194412231445,-0.0128327080287,-0.00415053655889,0.000926513743239,0.0291717529297,-0.968817138672,0.189447021484,-0.0166616146227,-0.00659305475265,-4.69515300181e-05,0.00118434155953,0.00243009702959,0.00437307535896,0.00275869287885,0.00187386305471,0.000796544849093,0.0
35,0.0,0.0,0.0307922363281,-0.966186523438,0.195343017578,-0.0149621716363,-0.00519369675787,-0.00013422331894,0.0296035766602,-0.968391418457,0.187701416016,-0.0183597260286,-0.00605016936444,-0.00017235978575,0.000981515667841,0.00136308527664,0.00351661885895,0.00186527557371,0.00109757366627,1.90823953034e-05,0.0
36,0.0,0.0,0.0318450927734,-0.968490600586,0.193008422852,-0.0128020816761,-0.00520754519554,0.00091000214448,0.0299102783203,-0.970639038086,0.190065002441,-0.0176169437689,-0.00658687621893,-0.000269991271312,0.00118552051747,0.00164338724532,0.00219387746893,0.00276546641409,0.000865013252931,0.000785129487506,0.0
37,0.0,0.0,0.0324249267578,-0.96891784668,0.191665649414,-0.0160189139568,-0.00519343044176,0.00090733898339,0.0298278808594,-0.970243835449,0.188269042969,-0.0179406243678,-0.00637195911896,0.000152625762072,0.00158902866945,0.00111595554829,0.0021884671412,0.00140775413127,0.000600830863002,0.000713483685997,0.0
38,0.0,0.0,0.0314178466797,-0.968414306641,0.194076538086,-0.0160042665708,-0.00625043907842,0.00620729586876,0.0284439086914,-0.970538330078,0.189456176758,-0.018066272308,-0.0077538734086,0.000794634006058,0.00298809576255,0.0017760863415,0.00366109056783,0.0019254071292,0.00236101215992,0.00215257535947,0.0
39,0.0,0.0,0.0331268310547,-0.964721679688,0.191513061523,-0.006288522282,-0.00306636367912,0.00842331221181,0.0295883178711,-0.970159912109,0.186669921875,-0.0155974154511,-0.00745101872943,-0.00046032739442,0.00299285371591,0.00287536485057,0.00357993579514,0.00405335739855,0.00594278720952,0.00442910296827,0.0
40,0.0,0.0,0.0306243896484,-0.967330932617,0.189895629883,-0.0138974398325,-0.00521420309827,0.000931840065419,0.0288848876953,-0.970509338379,0.187994384766,-0.0159232265789,-0.00712968171231,0.000175235999727,0.000943799927144,0.00237590065705,0.00175249921495,0.0013665704061,0.00148657257249,0.000724382068436,0.0
41,0.0,0.0,0.0303802490234,-0.966110229492,0.193572998047,-0.0149754874417,-0.00412283968355,0.0019925771276,0.0289764404297,-0.969213867188,0.188998413086,-0.0184693950023,-0.00647494355831,-0.000172386417361,0.00106525340508,0.00181990442718,0.00263052554468,0.00207172906081,0.00121029305781,0.00112054363687,0.0
42,0.0,0.0,0.0347747802734,-0.958374023438,0.242324829102,-0.0128007500956,-0.00310790899212,0.0009046758223,0.0302978515625,-0.968241882324,0.199668884277,-0.0177171585207,-0.00594801050503,-0.000379287402449,0.00198821754745,0.00377020803173,0.0199890748234,0.00293872032133,0.00132178287335,0.000679444601474,0.0
43,0.432999992371,0.411421652253,0.0368194580078,-0.942260742188,0.270431518555,-0.00962253365067,0.00118031299512,0.00733647617095,0.0289520263672,-0.952989196777,0.265165710449,-0.0173260200514,-0.00648205419842,0.00186514486944,0.00539982078172,0.00691620107128,0.00491675368843,0.00507762553452,0.00550885646698,0.00427746625188,0.0
44,1.67100001574,0.429404009587,0.0505981445312,-0.937164306641,0.260971069336,-0.0106459864576,0.0214312562402,0.0167994864723,0.0268646240234,-0.959146118164,0.246839904785,-0.0200738962958,-0.00146575060076,-0.00467983982554,0.0165324896583,0.0153185664484,0.00862913100323,0.00603526884873,0.0106162984287,0.00855643932149,0.0
45,2.75100004673,0.422596418207,0.0765228271484,-0.927093505859,0.316329956055,0.00579903327365,0.0331419745016,0.00632767075003,0.0379272460937,-0.946670532227,0.272465515137,-0.0111485515869,0.0144311106833,-0.0100671750263,0.0268079107324,0.010886544503,0.0278843050923,0.00987371896519,0.0151135816267,0.00974505948542,0.0
46,4.35799999237,0.661577309296,0.101333618164,-0.919540405273,0.316268920898,0.0131496241984,0.0222501782754,0.0246052116274,0.0557846069336,-0.954884338379,0.268539428711,-0.0195186272085,-0.0023206785739,-0.00680437658515,0.029484385821,0.0262170883949,0.031880167535,0.0213497563269,0.0258480081411,0.0145589094349,0.0
47,5.64500007629,0.311492786692,0.0696105957031,-0.912979125977,0.268981933594,0.074067037289,0.0284385657004,0.0142345960265,0.0302871704102,-0.975160217285,0.234452819824,0.00460311415454,-0.00609395173276,-0.00505497269669,0.0362903091152,0.0466228889113,0.0263257804844,0.0509076317468,0.0213945427952,0.0198220584106,0.0
48,6.54999995232,0.486598200054,0.111953735352,-0.877044677734,0.368682861328,0.078445274121,0.0358690514578,0.0269738271009,0.0671539306641,-0.924835205078,0.289498901367,-0.00951230541316,-0.0258922374874,0.00391442069664,0.0251981919637,0.0441761377317,0.0388888647129,0.0545974882817,0.0350988254394,0.0156447138999,0.0
49,8.02299985886,0.516032895328,0.132385253906,-0.915969848633,0.347229003906,0.0509201726745,0.0203971507889,0.0603783892859,0.0575012207031,-0.943489074707,0.297848510742,-0.0307749835563,-0.0109673501063,0.00941576582364,0.0452261694283,0.0248691905887,0.0415431048219,0.0585405098561,0.0294295348305,0.0275014870297,0.0
50,9.14600000381,0.301558839724,0.110900878906,-0.910293579102,0.319091796875,0.0217548303126,0.0552038672879,0.0547926752156,0.0679580688477,-0.970300292969,0.214273071289,-0.0244271526769,-0.00281805053908,0.00913986233471,0.0390162194125,0.0314454789483,0.0481856442698,0.0327997676185,0.0387816816381,0.0281496938319,0.0
51,9.19699993134,0.134498915771,0.118774414062,-0.904907226562,0.239837646484,0.0462756197334,0.0275860878355,0.0349952683042,0.05859375,-0.968737792969,0.207164001465,-0.0137524839743,-0.00320817700716,-0.000665630482854,0.0306384663483,0.0378795475132,0.0187270085478,0.0366108053841,0.0226181533763,0.0210976395765,0.0
52,9.00500030518,0.0570086820363,0.130172729492,-0.921844482422,0.231658935547,0.0355031331241,0.0542640377392,0.0303168932172,0.0377944946289,-0.960507202148,0.197006225586,-0.0047405598984,-0.000820812879573,-0.00420465199224,0.0523740253118,0.0295174856153,0.0177684694899,0.0278080854442,0.0364878292176,0.0267077167134,0.0
53,8.84399995804,0.0643255044401,0.077880859375,-0.897750854492,0.239624023438,0.0101932490723,0.0606633475226,0.0267900689857,0.038313293457,-0.953294372559,0.206964111328,-0.0221331856087,0.0170571473078,0.000262481157038,0.031536910655,0.0304107240246,0.0210016957777,0.0300193705666,0.0230735257211,0.0217716433749,0.0
54,8.59899997711,0.121330853084,0.103012084961,-0.934097290039,0.218688964844,0.00152226287909,0.0918178049027,0.0256925803004,0.0447128295898,-0.977160644531,0.204331970215,-0.0279003674757,-0.00918004943556,-0.00505992617632,0.039241915876,0.0373280706569,0.0146281392252,0.031906889863,0.0413771439299,0.022142125603,0.0
55,8.44899988174,0.0868521825894,0.0849304199219,-0.925415039062,0.279602050781,0.066793944352,0.0512006035373,0.0467792234956,0.0449417114258,-0.973600769043,0.236268615723,0.00158255684617,-0.0210698652803,0.0128651453307,0.032884724518,0.0339141899329,0.0371217020165,0.0419229640298,0.0382307615105,0.025449409768,0.0
56,8.72999973297,0.269154831318,0.0954132080078,-0.914443969727,0.212997436523,0.0230520560796,0.0404829780464,0.071829183025,0.0349151611328,-0.981909179687,0.123887634277,-0.0136012696876,-0.00193310874046,-0.00322628650258,0.0357703197226,0.0279368997775,0.0498390486715,0.0180709470732,0.0390081074899,0.033153257668,0.0
57,7.63200001717,0.541126348595,0.126022338867,-0.890930175781,0.403594970703,0.0011885687945,0.109902000285,0.0170008214507,0.0885879516602,-0.930541992188,0.321318054199,-0.0205768875309,0.0472547841714,-0.0113146263125,0.0306919642935,0.0275532355711,0.0823739346956,0.0229152169872,0.026817273057,0.0190881573287,0.0
58,9.575,1.08285877241,0.0938568115234,-0.893569946289,0.4091796875,0.0150556485905,0.133037679623,0.0846680163241,-0.0427017211914,-0.915017700195,0.329580688477,-0.0450987954793,-0.0138472392459,0.0427556664575,0.115145414179,0.0146737254823,0.0434208445432,0.0372469751016,0.081259294941,0.0362342224526,0.0
59,12.1319998741,0.865702060924,0.138671875,-0.802505493164,0.381561279297,0.0963473092847,0.0835606739429,0.145729240114,-0.0456787109375,-0.961952209473,0.292361450195,-0.0352373230157,-0.0687021791678,-0.0150038501073,0.171710122835,0.100731453334,0.0512756918178,0.0952548616076,0.140428130511,0.0792978040582,0.0
60,13.556000042,0.188514782349,0.143707275391,-0.86393737793,0.291687011719,0.0662610458178,0.0355880879628,0.0711809696156,0.0698318481445,-0.967486572266,0.190365600586,-0.0264877203071,-0.00344498529129,-0.00399404921324,0.0446519593491,0.0467998350135,0.0518260865384,0.0514090809786,0.0359430178744,0.0368813855943,0.0
61,13.2690000534,0.264929874699,0.166275024414,-0.856369018555,0.231887817383,0.00762090177537,0.126062594412,0.0481408977609,0.0808822631836,-0.976164245605,0.149496459961,-0.0255398746435,0.046220279246,-0.0304480006377,0.0674092176741,0.0615838393696,0.0520590493095,0.0302286102256,0.0582419434236,0.0394886482162,0.0
62,11.8350000381,0.885077075895,0.0861511230469,-0.961776733398,0.170272827148,0.0494557003911,0.0540544469614,0.0637707238825,0.0306854248047,-1.00188751221,0.0589538574219,-0.0310141620538,0.0031769913908,-0.0197308278842,0.039559626277,0.020485710983,0.0687730094427,0.0629613631962,0.0454670478964,0.0469975768316,0.0
63,8.34199976921,1.69941680622,0.101425170898,-0.97265625,-0.0226593017578,0.0354410814707,0.0501451927973,0.032744630867,0.0574630737305,-1.01763763428,-0.0754547119141,-0.0169518192867,0.00776870721587,-0.0021127922192,0.0290973095645,0.0255175321274,0.0401527978454,0.0248097234389,0.0323287866958,0.0185324040096,0.0
64,2.63000000119,2.17355311247,0.0677947998047,-0.947525024414,0.299728393555,0.0010287791291,0.0107937918981,0.0160162507957,0.0335296630859,-1.00072479248,0.0409637451172,-0.0136077145375,-0.00799547538269,0.00169387697973,0.0190321549254,0.0333737118001,0.139744244125,0.00800181572682,0.0122489841982,0.00833607322135,0.0
65,0.0379999995232,0.0801110330523,0.0493927001953,-0.961090087891,0.225891113281,-0.0149009189312,-0.00308101106511,0.00733620985484,0.0371673583984,-0.96628112793,0.215901184082,-0.0168697672935,-0.00595346998526,-5.0733218766e-05,0.0072186806514,0.00382468581603,0.00537033774132,0.00130134129699,0.00265494769194,0.00291471630312,0.0
66,0.0,0.0,0.0518493652344,-0.955947875977,0.224746704102,-0.0159962770876,-0.00308154369733,0.00411644809694,0.0370178222656,-0.965214538574,0.21452331543,-0.0171835941964,-0.00637701912503,-0.000692581673086,0.00840429205469,0.00765587868109,0.00684695264629,0.00126021142379,0.00183918566042,0.00248199550213,0.0
67,0.0,0.0,0.0445709228516,-0.961456298828,0.218200683594,-0.0149621716363,-0.00308740265173,0.00199790344978,0.0372375488281,-0.963861083984,0.215284729004,-0.0164507987908,-0.00648801967926,0.000168178622839,0.00393623657325,0.00165231072604,0.00238970423903,0.00151404286683,0.00186614200049,0.00123942087342,0.0
68,0.0,0.0,0.0426025390625,-0.958923339844,0.218872070312,-0.0149315452837,-0.00520754519554,0.000934503226509,0.0375015258789,-0.963339233398,0.214584350586,-0.0164376161434,-0.00648825936376,-0.000791278423084,0.00335682608692,0.00224068446406,0.00273449912622,0.0010209242371,0.00110124841488,0.00103483076143,0.0
69,0.0,0.0,0.0432281494141,-0.958953857422,0.220825195312,-0.0159896191848,-0.00521473573048,0.000918257943859,0.0376373291016,-0.964709472656,0.216734313965,-0.0172947279086,-0.00680176668728,-0.000586001966261,0.00271315972953,0.0026346430045,0.0022453238831,0.00157243154214,0.0010319811559,0.00144065805741,0.0
70,0.0,0.0,0.0471649169922,-0.959838867188,0.216445922852,-0.0128473554147,-0.00519343044176,0.000953677986357,0.038166809082,-0.963760375977,0.21404876709,-0.0171909178893,-0.00637688596697,-0.000159549980907,0.00732017352397,0.00291336777013,0.00212078810278,0.00231781703322,0.000787251778083,0.00113260130501,0.0
71,0.0,0.0,0.043212890625,-0.957244873047,0.218048095703,-0.0149475242503,-0.00518650622293,0.000899083184011,0.0368194580078,-0.963865661621,0.215655517578,-0.01783055592,-0.00647909808961,-0.000165835041079,0.00523900399092,0.00295918633933,0.00169123867008,0.00151474530142,0.000842399825979,0.000861630147053,0.0
72,0.0,0.0,0.0419769287109,-0.961517333984,0.217971801758,-0.0138894503492,-0.00307328789795,0.000931840065419,0.0371765136719,-0.963772583008,0.21455078125,-0.0162331918981,-0.00606396453889,6.26908120605e-05,0.00302282563644,0.00116113491858,0.00262095878684,0.00156679897557,0.00149225768155,0.000839217921183,0.0
73,0.0,0.0,0.0412902832031,-0.959915161133,0.217269897461,-0.0128473554147,-0.00522858416815,0.000953677986357,0.0374114990234,-0.963589477539,0.214401245117,-0.0161277839822,-0.00659654349368,-0.000148098388219,0.00210407580441,0.00213468950188,0.00199941251656,0.00177287077071,0.000875936243667,0.000868744278537,0.0
74,0.0,0.0,0.0404205322266,-0.961639404297,0.216339111328,-0.0160042665708,-0.00413695443733,0.000915594782769,0.0370803833008,-0.96470489502,0.214770507813,-0.0172933963281,-0.0058443602754,-0.000161973457499,0.0019632112158,0.00179333079872,0.00112751794064,0.00130526629604,0.000900022134661,0.00100554175954,0.0
75,0.0,0.0,0.0400390625,-0.964019775391,0.216918945312,-0.0138894503492,-0.00519369675787,0.00090733898339,0.0372482299805,-0.964762878418,0.214105224609,-0.0165527445973,-0.00627464721272,-4.66585822982e-05,0.00134389907203,0.000770734175435,0.00193390662833,0.00153064861939,0.00100121934982,0.000600504144104,0.0
76,0.0,0.0,0.0383911132812,-0.961196899414,0.220016479492,-0.0127874342901,-0.00520754519554,0.00200615924916,0.0368896484375,-0.963124084473,0.214154052734,-0.0162341240045,-0.00638309113231,-4.31165780484e-05,0.00116607945997,0.00113153177884,0.00329948199081,0.00212392903288,0.00126770291897,0.00117188798986,0.0
77,0.0,0.0,0.038818359375,-0.96044921875,0.218368530273,-0.0128180606427,-0.00413003021849,0.000931840065419,0.0377822875977,-0.964543151855,0.215147399902,-0.0167658241162,-0.00648602230844,-0.00015491608061,0.00100183760043,0.0020108185609,0.00237929980307,0.00344181235908,0.000983873275803,0.000707978857417,0.0
78,0.0,0.0,0.0387268066406,-0.95915222168,0.217712402344,-0.00855913342741,-0.00414361234005,0.000978179068386,0.0372009277344,-0.963694763184,0.214486694336,-0.0151756506293,-0.00702818864316,7.60066175109e-05,0.00100458523276,0.00264440728305,0.00212323550521,0.004481323098,0.00124915517985,0.000831166884658,0.0
79,0.0,0.0,0.0399017333984,-0.951049804688,0.27067565918,-0.0107778129316,-0.00628506017259,0.00417903238255,0.0370590209961,-0.962577819824,0.219775390625,-0.0146544700039,-0.00735059092473,0.000721903076688,0.00170828865664,0.00434112623319,0.0180049455093,0.00304435250127,0.00100359216991,0.00150884938912,0.0
80,0.672000002861,1.08202280166,0.0810089111328,-0.903701782227,0.458053588867,0.0225923944755,0.0553830980293,0.0467177044744,0.0312744140625,-0.919291687012,0.411158752441,-0.0157624781755,-0.00627906806013,0.00443954280038,0.0325771888242,0.0123157702974,0.0331745999496,0.0185789813786,0.0381545670852,0.0183545483045,0.0
81,4.37399988174,1.38746932046,0.0588684082031,-0.875289916992,0.422653198242,0.0114963337937,0.0129123365452,0.0438350989105,0.0208374023437,-0.923141479492,0.382691955566,-0.0195138601502,-0.0252953698238,0.00359723821081,0.0254478921396,0.0252518847155,0.0238860924016,0.0151070538035,0.026516111684,0.0188754376517,0.0
82,7.58899998665,0.999504884812,0.121215820312,-0.898544311523,0.40592956543,0.0614276747554,0.0456689516371,0.0764518980451,0.0182754516602,-0.928793334961,0.356188964844,0.00211630759184,-0.020755452482,0.00519305759921,0.050455964534,0.0255446522362,0.0332850708793,0.0455770993205,0.0525259963649,0.0359825793878,0.0
83,10.05,0.823272602349,0.193420410156,-0.933822631836,0.354156494141,0.0102188154187,0.0736342736118,0.114530041627,0.0512878417969,-0.952674865723,0.300025939941,-0.0266303059519,-0.0320564434097,0.00631398210203,0.0918055382038,0.0136646907527,0.0248867562176,0.0204263478329,0.0778937765594,0.0671156638375,0.0
84,11.8110002518,0.520308678798,0.10432434082,-0.90168762207,0.451904296875,0.0307917348396,0.0827532035004,0.101256580438,0.0177200317383,-0.951782226562,0.294062805176,-0.0164129552717,-0.0171243388621,0.00712640602416,0.0812509559516,0.0485406727281,0.068278243743,0.0336797988945,0.0834426234042,0.0570323190859,0.0
85,13.0309998512,0.437859783133,0.179992675781,-0.842742919922,0.369323730469,0.0852464549129,0.223149996163,0.142328649718,0.029833984375,-0.945164489746,0.261846923828,-0.0124050309892,0.0320945798765,-0.025265861999,0.130404608297,0.067355328501,0.0444849240627,0.0760504668499,0.119186115081,0.111477588401,0.0
86,14.0640000343,0.304127144978,0.166793823242,-0.886215209961,0.353713989258,0.144866109604,0.0426348122072,0.0493108244278,0.0830703735352,-0.989865112305,0.237608337402,0.0222903920079,-0.00269730281525,0.00386030526329,0.0611741955291,0.066291692662,0.0538194107459,0.0723463224565,0.0380402423195,0.0292380346229,0.0
87,14.740999794,0.232687211989,0.164855957031,-0.672653198242,0.308746337891,0.0962509028532,0.13942234202,0.0905288349351,0.0594390869141,-0.914909362793,0.232965087891,-0.0124981883641,0.00784633836165,-0.000681316501675,0.074050667051,0.120459425524,0.0483750196073,0.0605549337813,0.0875129408758,0.0670589252008,0.0
88,15.3619999886,0.218062238202,0.135131835938,-0.917663574219,0.32470703125,0.0376752073091,0.0605943716504,0.0614423221414,0.0449966430664,-0.971635437012,0.25736541748,-0.00356011374522,-0.0288018741363,0.0109132613046,0.0616704688615,0.0436514213395,0.0348635968916,0.0404066278028,0.0456985241296,0.0318832493634,0.0
89,15.9459998131,0.189923780267,0.0989379882812,-0.889266967773,0.321594238281,0.0424028508762,0.0660967287786,0.0592761069108,0.0257781982422,-0.951379394531,0.255671691895,-0.0374895050863,0.0164113840067,-0.00629035986316,0.0469310744097,0.0336086745525,0.0496647178207,0.0445910519379,0.0381398331507,0.0430353193008,0.0
90,16.4309997559,0.192668586044,0.132781982422,-0.937942504883,0.321441650391,0.0678557466786,0.12776488698,0.0543601778546,0.00301513671875,-0.975509643555,0.26321105957,-0.0213357819151,-0.0117754597075,-0.00370656097356,0.0612380982269,0.0215519651072,0.0301517625543,0.0466330773164,0.0785763068982,0.0359869450026,0.0
91,16.8300004959,0.138242994478,0.287384033203,-0.749908447266,0.381637573242,0.0702520590274,0.116537798773,0.160231217513,0.0790771484375,-0.939694213867,0.267565917969,-0.0535157693678,-0.00879873803068,0.00704491329481,0.115054060691,0.0939690981226,0.054549239144,0.102143272273,0.105112132959,0.0855445760594,0.0
92,17.0359996796,0.219251026546,0.135009765625,-0.861694335938,0.246017456055,0.114067450546,0.110745423402,0.0848885260624,0.0314895629883,-0.957855224609,0.177836608887,-0.00714081372566,-0.0152711249543,-0.000140321957836,0.0515360028255,0.0637514670216,0.0323133952875,0.0651739223428,0.0720838802764,0.0521661170156,0.0
93,16.3119997025,0.232130357199,0.123840332031,-0.874847412109,0.260406494141,0.0916175351887,0.153259594412,0.0546752298115,0.0225494384766,-0.954998779297,0.170655822754,0.00812296090407,0.00590167150206,-0.0144325754219,0.0697083221985,0.0550414853502,0.0500506426319,0.0470018009657,0.0841801358642,0.0554303281103,0.0
94,15.8869997025,0.128153272137,0.11067199707,-0.884033203125,0.303268432617,0.0472697777684,0.0924995741417,0.0577240166275,0.00910949707031,-0.962524414062,0.224903869629,-0.00197782321516,-0.00711271737616,0.0083145753445,0.0516926342053,0.0543398821725,0.0563368475334,0.0267046317705,0.0529800919181,0.0289207392192,0.0
95,15.9100001335,0.0795825062126,0.115753173828,-0.832794189453,0.36930847168,0.246370364024,0.15878245788,0.125882298406,-0.019319152832,-0.960372924805,0.217021179199,0.0198091780834,-0.0177844299699,0.013469762793,0.0861373190789,0.075351776618,0.0654184251276,0.137656376449,0.123986637807,0.0574421618896,0.0
96,16.0440004349,0.0386436344697,0.135803222656,-0.862213134766,0.331039428711,0.0111919344811,0.0670024698653,0.0673034070685,0.0482879638672,-0.947117614746,0.252137756348,-0.0332707383403,0.0181916539322,-0.0100901314749,0.0777712369677,0.0463403235807,0.0355659126254,0.0381298918992,0.0499234747643,0.0402520399514,0.0
97,16.3539995193,0.141436694971,0.136276245117,-0.834350585938,0.393951416016,0.0984629244546,0.164018232584,0.0612689503545,0.0195510864258,-0.949491882324,0.24367980957,-0.0194244312008,0.0093782951471,-0.0150434513128,0.0686348594426,0.0689276280573,0.0765185458117,0.0704122830042,0.0901251143309,0.048041934046,0.0
98,16.5359998703,0.0469515932401,0.0798492431641,-0.87467956543,0.299896240234,0.0381985184633,0.0884539661298,0.032805883572,0.0458541870117,-0.951629638672,0.217137145996,-0.0171456441508,0.000430686411488,0.00024983114186,0.0244743687941,0.0474501100119,0.067099921883,0.0332858782798,0.0518686732841,0.0332340135253,0.0
99,16.0989997864,0.288423092081,0.25993347168,-0.85205078125,0.360504150391,0.00213984993588,0.188721714855,0.0732340005,0.00147857666016,-0.96971282959,0.167256164551,-0.0497920043736,0.0672271873981,-0.028831328698,0.147269012214,0.0746195753065,0.0848900348863,0.0412234301502,0.0746784978879,0.0630181079895,0.0
100,15.1999998093,0.511968008433,0.457092285156,-0.632415771484,0.199554443359,0.0243817724119,0.338085104592,0.070444072942,0.0628845214844,-0.972880554199,0.0707107543945,-0.0452003151801,0.0466680897833,-0.0254259978753,0.162021430831,0.135372079838,0.075324322676,0.043552965721,0.149311196742,0.0566717459929,0.0
101,13.01299963,1.01775397154,0.142013549805,-0.936325073242,0.117340087891,0.118920795316,0.179074946439,0.073077672944,-0.0177307128906,-1.00624389648,0.0486083984375,0.00464077125235,0.0081579548408,-0.0155402640141,0.0695614698784,0.044432801809,0.0499456412936,0.0623094801321,0.0908180655117,0.0581464784456,0.0
102,10.3066666921,1.11025502892,0.101577758789,-0.975524902344,0.0369262695312,0.0759887743316,0.0850227493813,0.0275061930028,0.0199940999349,-1.02204640706,0.00872548421224,-0.00716794245997,0.0129863280375,-0.0137899812825,0.0625887231111,0.0468431945193,0.0193174833239,0.04486151074,0.0603790213428,0.0302303246639,0.0
