timestamp,latitude,longitude,speed,accelerometerX,accelerometerY,accelerometerZ,gyroX,gyroY,gyroZ
1493479323.0,40.4753724262736,-79.9243562321184,5.69000005722046,0.0411834716796875,-0.9920654296875,0.04852294921875,0.00228792169248707,0.0308338127848284,0.00527492317111995
1493479323.2,40.4753724262736,-79.9243562321184,5.69000005722046,-0.0258636474609375,-0.969528198242188,0.062347412109375,0.0029643646093672,0.0350767610335427,-0.041642518385024
1493479323.4,40.4753847136636,-79.9243931813425,3.86999988555908,-0.0002593994140625,-1.01976013183594,0.115371704101562,0.0254297263008396,-0.0459078371868949,-0.0156143797872436
1493479323.6,40.4753847136636,-79.9243931813425,3.86999988555908,-0.0103302001953125,-0.975601196289062,0.131195068359375,0.0391700396289944,-0.0438683884241122,-0.00694925254845276
1493479323.8,40.4753847136636,-79.9243931813425,3.86999988555908,-0.0252685546875,-0.990951538085938,0.146438598632812,0.0150753559826115,0.000963797998499676,-0.0115764949424654
1493479324.0,40.4753847136636,-79.9243931813425,3.86999988555908,-0.0177001953125,-0.9521484375,0.146469116210938,-0.0161281035615199,-0.0169142687153113,0.00201095293911883
1493479324.2,40.4753987819544,-79.9244323928692,2.42000007629395,-0.01971435546875,-0.97491455078125,0.09906005859375,0.0110369385056154,-0.0255953749206425,0.0353641161151622
1493479324.4,40.4753987819544,-79.9244323928692,2.42000007629395,-0.0059967041015625,-0.975006103515625,0.101593017578125,0.00258086941239579,0.0191265566328401,-0.0224134300502159
1493479324.6,40.4753987819544,-79.9244323928692,2.42000007629395,-0.0368804931640625,-0.99078369140625,0.10906982421875,-0.00812557080194076,-0.0329174700217064,0.03092196341691
1493479324.8,40.4753987819544,-79.9244323928692,2.42000007629395,-0.0242462158203125,-0.967330932617188,0.127548217773438,-0.0103224123851471,0.0160205118534807,-0.0150740244020665
1493479325.0,40.4753987819544,-79.9244323928692,2.42000007629395,0.00286865234375,-0.942550659179688,0.23431396484375,0.019996877677078,-0.0214035593648578,0.00559104039251235
1493479325.2,40.4754059210421,-79.9244519321879,1.30999994277954,0.0028228759765625,-0.934722900390625,0.275497436523438,-0.00405386381131862,0.0117258982796189,-0.00860147768873792
1493479325.4,40.4754059210421,-79.9244519321879,1.30999994277954,0.02447509765625,-0.921417236328125,0.3253173828125,0.00456385916006879,0.0191153713562617,-0.01173095828569
1493479325.6,40.4754059210421,-79.9244519321879,1.30999994277954,0.0383758544921875,-0.920516967773438,0.365570068359375,-0.00475773728742656,0.0500234863355034,-0.0140385873702437
1493479325.8,40.4754059210421,-79.9244519321879,1.30999994277954,0.0733489990234375,-0.924468994140625,0.390304565429688,0.00203811718223764,0.09252700470095,-0.0204759803571832
1493479326.0,40.4754059210421,-79.9244519321879,1.30999994277954,0.0347900390625,-0.939849853515625,0.387130737304688,0.0246624695907878,0.11790826146995,-0.0256409149752829
1493479326.2,40.4754059210421,-79.9244519321879,1.30999994277954,0.1082763671875,-0.94171142578125,0.383377075195312,0.015627162960476,0.161576912812306,-0.0418393259895809
1493479326.4,40.475412358658,-79.9244695516139,1.78999996185303,0.147109985351562,-0.905181884765625,0.393646240234375,0.0292028929332639,0.244456616464444,-0.0547087856412798
1493479326.6,40.475412358658,-79.9244695516139,1.78999996185303,0.102203369140625,-0.91815185546875,0.2896728515625,0.0651734108286371,0.227204392606802,-0.0468324867173704
1493479326.8,40.475412358658,-79.9244695516139,1.78999996185303,0.346450805664062,-0.894912719726562,0.359664916992188,0.0142407212969807,0.575337870308031,-0.258296532017368
1493479327.0,40.475412358658,-79.9244695516139,1.78999996185303,0.383575439453125,-0.93585205078125,0.281845092773438,-0.0166317073236538,0.531934736126356,-0.20518990408788
1493479327.2,40.475412358658,-79.9244695516139,1.78999996185303,0.186935424804688,-0.921142578125,0.393707275390625,-0.0373654816743567,0.459748689515322,-0.130580913517092
1493479327.4,40.4754226906723,-79.9244978298096,3.26999998092651,0.204345703125,-0.858306884765625,0.334640502929688,-0.1354001698257,0.513565316191425,-0.174372070269592
1493479327.6,40.4754226906723,-79.9244978298096,3.26999998092651,0.27056884765625,-0.90216064453125,0.306793212890625,-0.0447275241917718,0.527867023877369,-0.177745496422396
1493479327.8,40.4754226906723,-79.9244978298096,3.26999998092651,0.25299072265625,-0.938613891601562,0.269851684570312,-0.000913730570006187,0.572260321352336,-0.164616911196632
1493479328.0,40.4754226906723,-79.9244978298096,3.26999998092651,0.249374389648438,-0.906417846679688,0.33380126953125,-0.0354551962244429,0.53525702958623,-0.151014283296834
1493479328.2,40.4754226906723,-79.9244978298096,3.26999998092651,0.19720458984375,-0.958740234375,0.262985229492188,-0.006117014707803,0.581854625495455,-0.245727210620521
1493479328.4,40.4754327107391,-79.9245252542208,4.34999990463257,0.35345458984375,-0.906890869140625,0.31787109375,0.00285916974630907,0.497774635140019,-0.169717131000243
1493479328.6,40.4754327107391,-79.9245252542208,4.34999990463257,0.316314697265625,-0.834518432617188,0.246200561523438,-0.0899482658174263,0.591995676610368,-0.106937635675478
1493479328.8,40.4754327107391,-79.9245252542208,4.34999990463257,0.245819091796875,-0.96746826171875,0.295303344726562,0.0347630406571313,0.558192439210101,-0.211128753318757
1493479329.0,40.4754327107391,-79.9245252542208,4.34999990463257,0.389205932617188,-0.917434692382812,0.28179931640625,0.0792442224480708,0.454728630860523,-0.172022629555924
1493479329.2,40.4754327107391,-79.9245252542208,4.34999990463257,0.117324829101562,-0.896560668945312,0.3868408203125,0.0319360951600122,0.394416820601825,-0.0945177176157842
1493479329.4,40.4753784098724,-79.9246028893684,5.84000015258789,0.122711181640625,-0.9300537109375,0.357833862304688,0.0767461773455765,0.289883220442362,-0.0799283885321121
1493479329.6,40.4753784098724,-79.9246028893684,5.84000015258789,0.292221069335938,-1.05703735351562,0.41290283203125,0.0500586400618924,0.237930806529314,-0.103524262106323
1493479329.8,40.4753784098724,-79.9246028893684,5.84000015258789,-0.032196044921875,-0.916854858398438,0.47637939453125,0.0379681550290417,-0.00556174562052148,0.0238597928382379
1493479330.0,40.4753784098724,-79.9246028893684,5.84000015258789,0.0243682861328125,-0.903594970703125,0.478897094726562,0.0552816315917558,-0.0343880675756482,0.0656937925056386
1493479330.2,40.475308400212,-79.924633873462,7.6100001335144,0.0721282958984375,-0.866287231445312,0.46533203125,-0.0217548303126393,0.0299211474792583,-0.0280215146737047
1493479330.4,40.475308400212,-79.924633873462,7.6100001335144,0.086029052734375,-0.855438232421875,0.455276489257812,-0.0262891283846082,-0.114699684988623,0.0682645419058921
1493479330.6,40.475308400212,-79.924633873462,7.6100001335144,-0.0703582763671875,-0.879165649414062,0.572219848632812,-0.0372142141244403,-0.0508091188570767,0.0455973126037917
1493479330.8,40.475308400212,-79.924633873462,7.6100001335144,0.110260009765625,-0.845733642578125,0.425445556640625,-0.0313741681700055,0.104438525308547,-0.0624311538541825
1493479331.0,40.475308400212,-79.924633873462,7.6100001335144,0.038787841796875,-0.917388916015625,0.460052490234375,0.0307733590280836,0.0210773221313231,0.0194525275502658
1493479331.2,40.475308400212,-79.924633873462,7.6100001335144,-0.0843658447265625,-0.770233154296875,0.537063598632812,-0.0530232709873686,-0.112396849594031,0.0775808120312073
1493479331.4,40.4752357316496,-79.9246660343027,9.60000038146973,-0.009063720703125,-0.84063720703125,0.4134521484375,-0.0378336653939927,0.00981454756526902,-0.0313328891731093
1493479331.6,40.4752357316496,-79.9246660343027,9.60000038146973,0.0382843017578125,-0.891708374023438,0.431640625,-0.0401689913538832,0.0481169293111156,-0.0730379918437501
1493479331.8,40.4752357316496,-79.9246660343027,9.60000038146973,0.068603515625,-0.91632080078125,0.454269409179688,0.00906380245397568,0.0180194805676941,-0.0298076968168209
1493479332.0,40.4752357316496,-79.9246660343027,9.60000038146973,-0.014984130859375,-0.949615478515625,0.442474365234375,0.00468103824803228,-0.00429061883222666,-0.0329936364288827
1493479332.2,40.4752357316496,-79.9246660343027,9.60000038146973,0.109481811523438,-0.88140869140625,0.415481567382812,-0.0304399312596057,0.0948596674997504,-0.0581320129064676
1493479332.4,40.4751435078075,-79.9247068497007,11.6000003814697,0.009368896484375,-0.887802124023438,0.450820922851562,-0.0284433593903733,-0.0561881716268188,0.0243767124058223
1493479332.6,40.4751435078075,-79.9247068497007,11.6000003814697,0.01446533203125,-0.91912841796875,0.442916870117188,-0.0194181727722038,-0.0179555647015322,0.00837723952495325
1493479332.8,40.4751435078075,-79.9247068497007,11.6000003814697,0.04852294921875,-0.901718139648438,0.401947021484375,-0.016066850856448,-0.036063994849635,-0.0128659975422818
1493479333.0,40.4751435078075,-79.9247068497007,11.6000003814697,0.0865936279296875,-0.899322509765625,0.326583862304688,0.00766484393335706,0.0339896586765723,0.0031894017214789
1493479333.2,40.4751435078075,-79.9247068497007,11.6000003814697,-0.036590576171875,-0.892684936523438,0.3553466796875,-0.0384187618854831,-0.0284596046730228,0.0679177983319638
1493479333.4,40.4750265774048,-79.9247585994524,13.7600002288818,0.14727783203125,-0.9083251953125,0.343597412109375,-0.0172599470248035,-0.0817862097085514,0.0490801946773973
1493479333.6,40.4750265774048,-79.9247585994524,13.7600002288818,-0.210830688476562,-0.860458374023438,0.340667724609375,-0.0398520751841637,-0.216715798969634,0.147288787247922
1493479333.8,40.4750265774048,-79.9247585994524,13.7600002288818,-0.0158538818359375,-0.924667358398438,0.369613647460938,0.00971414639217303,0.113738283835104,-0.10255061041179
1493479334.0,40.4750265774048,-79.9247585994524,13.7600002288818,0.05535888671875,-0.953567504882812,0.35772705078125,0.0365905017971437,-0.0959731351515125,-0.00257634203854265
1493479334.2,40.4750265774048,-79.9247585994524,13.7600002288818,0.0012664794921875,-0.903732299804688,0.36334228515625,-0.0529867856804345,-0.0496450511446031,0.0315720410389984
1493479334.4,40.4749035089572,-79.9248130657114,14.9899997711182,-0.0603179931640625,-0.952438354492188,0.3104248046875,0.0140886547987372,-0.0543364757208867,0.0301384614242087
1493479334.6,40.4749035089572,-79.9248130657114,14.9899997711182,0.0122833251953125,-0.919952392578125,0.284530639648438,-0.0736276157090937,0.000480700576759303,0.0109732889555625
1493479334.8,40.4749035089572,-79.9248130657114,14.9899997711182,-0.0364532470703125,-0.965011596679688,0.320556640625,0.00871040097732216,-0.0128122016882622,0.056631587948317
1493479335.0,40.4749035089572,-79.9248130657114,14.9899997711182,0.0351715087890625,-0.892562866210938,0.278900146484375,-0.0799014906051023,-0.0154370132586443,-0.00610929154064177
1493479335.2,40.4749035089572,-79.9248130657114,14.9899997711182,0.03125,-1.04617309570312,0.248336791992188,-0.0772093010591412,-0.0452353890116499,0.0142532381541041
1493479335.4,40.4747601085078,-79.9248765302807,15.9300003051758,-0.037933349609375,-0.943923950195312,0.275192260742188,0.00394467420662537,-0.0457658907007937,-0.00197393499996673
1493479335.6,40.4747601085078,-79.9248765302807,15.9300003051758,0.0556640625,-0.996551513671875,0.224197387695312,0.022081067546174,-0.0235442082490635,0.0077503314043486
1493479335.8,40.4747601085078,-79.9248765302807,15.9300003051758,0.00341796875,-0.955276489257812,0.228271484375,0.0269844797452279,0.0115221664562278,-0.0200115250630734
1493479336.0,40.4747601085078,-79.9248765302807,15.9300003051758,-0.03399658203125,-0.9854736328125,0.222244262695312,-0.00928031745059912,0.00324825758156965,-0.0203614644303098
1493479336.2,40.4747601085078,-79.9248765302807,15.9300003051758,0.04302978515625,-0.979782104492188,0.164886474609375,-0.0599410982349585,-0.087890441243122,0.0518576053782409
1493479336.4,40.4746267803866,-79.9249355371514,16.3999996185303,0.03350830078125,-0.956390380859375,0.11798095703125,-0.0336570298564214,-0.0955041524835496,0.0724044258204203
1493479336.6,40.4746267803866,-79.9249355371514,16.3999996185303,-0.0842742919921875,-0.96612548828125,0.188995361328125,0.0103005744642085,-0.0787725766190178,0.0600167320099167
1493479336.8,40.4746267803866,-79.9249355371514,16.3999996185303,0.0547027587890625,-0.937759399414062,0.07965087890625,-0.0824272325829335,0.0579746200860439,-0.014854313612135
1493479337.0,40.4746267803866,-79.9249355371514,16.3999996185303,0.089599609375,-0.92254638671875,0.14849853515625,-0.0151552508153139,0.0118033962673402,0.0243372976216891
1493479337.2,40.4746267803866,-79.9249355371514,16.3999996185303,-0.113128662109375,-0.953048706054688,0.182968139648438,0.00289858453044224,-0.0159725749538592,0.0128654649100638
1493479337.4,40.4744919608548,-79.924995204074,15.8599996566772,0.0108184814453125,-0.923858642578125,0.143569946289062,-0.0049002164057458,0.0213031581917618,-0.0192969989426052
1493479337.6,40.4744919608548,-79.924995204074,15.8599996566772,-0.0512847900390625,-1.00775146484375,0.124908447265625,0.0297333946224077,-0.0491153484037863,0.0569405146347662
1493479337.8,40.4744919608548,-79.924995204074,15.8599996566772,-0.0164794921875,-1.01969909667969,0.091552734375,0.023156984626566,0.0104782073089168,-0.0520344392746222
1493479338.0,40.4744919608548,-79.924995204074,15.8599996566772,0.013214111328125,-0.968231201171875,0.17230224609375,0.0266699604204895,0.0912889011101722,-0.108716360967542
1493479338.2,40.4744919608548,-79.924995204074,15.8599996566772,0.128799438476562,-0.963577270507812,0.193588256835938,-0.0469001310090584,0.0226456576972708,0.0154545901218388
1493479338.4,40.4743603547611,-79.9250534488291,14.960000038147,-0.0221710205078125,-0.9239501953125,0.157089233398438,0.0215897143250544,-0.0597048758462684,0.0238318296467921
1493479338.6,40.4743603547611,-79.9250534488291,14.960000038147,0.0001983642578125,-0.903549194335938,0.167282104492188,-0.108725149399139,0.00389993310031204,0.00953891039244581
1493479338.8,40.4743603547611,-79.9250534488291,14.960000038147,0.111923217773438,-0.9381103515625,0.182037353515625,-0.0260350628166146,0.0778207628454234,-0.000467384771308906
1493479339.0,40.4743603547611,-79.9250534488291,14.960000038147,0.014404296875,-1.032470703125,0.244598388671875,0.0448811885866694,-0.00986807710317961,-0.0165744493602171
1493479339.2,40.4743603547611,-79.9250534488291,14.960000038147,0.0706024169921875,-0.909881591796875,0.259475708007812,-0.082813390940995,0.0143653572359964,-0.0104808704700068
1493479339.4,40.4742360124294,-79.9251084788695,14.4700002670288,-0.0485992431640625,-0.875030517578125,0.213790893554688,0.0134825193346352,0.0275631846501021,-0.0361843697309066
1493479339.6,40.4742360124294,-79.9251084788695,14.4700002670288,0.03179931640625,-0.949508666992188,0.259414672851562,-0.118193219706589,0.0114068515810274,0.00515774408315646
1493479339.8,40.4742360124294,-79.9251084788695,14.4700002670288,0.0958099365234375,-0.96612548828125,0.188308715820312,0.0099349224465406,-0.0149496547791598,0.0438550726186618
1493479340.0,40.4742360124294,-79.9251084788695,14.4700002670288,-0.0254058837890625,-1.02137756347656,0.274368286132812,0.0262694209925416,-0.00761344492431853,0.0216128838265381
1493479340.2,40.4742360124294,-79.9251084788695,14.4700002670288,-0.0030364990234375,-0.985382080078125,0.268753051757812,-0.0677367033778384,0.0174567546293604,-0.0209966283502937
1493479340.4,40.4741166810509,-79.9251616131261,14.2600002288818,0.0130157470703125,-0.86834716796875,0.263931274414062,-0.0515252428741991,-0.0124257770140917,0.0229612422864452
1493479340.6,40.4741166810509,-79.9251616131261,14.2600002288818,-0.057220458984375,-0.911422729492188,0.252838134765625,-0.0233774943648246,-0.0306990568336704,-0.0204181897615285
1493479340.8,40.4741166810509,-79.9251616131261,14.2600002288818,0.024627685546875,-1.02452087402344,0.21356201171875,0.0730201486644466,0.067589430569557,-0.0847239427070178
1493479341.0,40.4741166810509,-79.9251616131261,14.2600002288818,0.0470123291015625,-0.908935546875,0.243988037109375,-0.020265324314958,0.0650122895826873,-0.0398251772571539
1493479341.2,40.4741166810509,-79.9251616131261,14.2600002288818,-0.057830810546875,-0.952896118164062,0.205810546875,-0.0370988992492398,-0.105053182888138,0.0851883980011277
1493479341.4,40.4740526611502,-79.9251901417205,14.25,0.0036163330078125,-0.992935180664062,0.154739379882812,0.0383130343902069,-0.0162061341814592,-0.00702941369726415
1493479341.6,40.4740526611502,-79.9251901417205,14.25,-0.0524139404296875,-0.97283935546875,0.268234252929688,-0.0252092165625811,-0.039188681756625,0.0307632390159413
1493479341.8,40.4740526611502,-79.9251901417205,14.25,0.0235443115234375,-0.92156982421875,0.259185791015625,-0.0435959470445971,-0.0518315063995582,0.0444683986177071
1493479342.0,40.4740526611502,-79.9251901417205,14.25,-0.0855255126953125,-0.962814331054688,0.294921875,-0.0126300414697008,-0.102020641354864,0.088629734761728
1493479342.2,40.4740526611502,-79.9251901417205,14.25,0.0349578857421875,-0.912139892578125,0.297027587890625,0.039523441105648,0.0571748728106931,-0.055186024108622
1493479342.4,40.4738681714347,-79.9252719702882,14.4099998474121,0.0138092041015625,-0.88525390625,0.260940551757812,-0.0296140850055721,0.00125408255731831,-0.0141672180508945
1493479342.6,40.4738681714347,-79.9252719702882,14.4099998474121,0.032379150390625,-0.942031860351562,0.239471435546875,-0.00675324389222293,-0.00952612721921343,0.0212797223741691
1493479342.8,40.4738681714347,-79.9252719702882,14.4099998474121,0.05767822265625,-0.92388916015625,0.318328857421875,-0.0110356069250703,0.0511268339751232,-0.0215692079846608
1493479343.0,40.4738681714347,-79.9252719702882,14.4099998474121,0.104827880859375,-0.974090576171875,0.23919677734375,-0.10361108115786,-0.0663300216900585,0.0641494253895017
1493479343.2,40.4738681714347,-79.9252719702882,14.4099998474121,0.062225341796875,-0.972747802734375,0.21893310546875,0.0213918414560615,-0.00865074616890439,-0.0114870127298388
1493479343.4,40.4737428154833,-79.9253275539762,14.6899995803833,0.0153350830078125,-0.9974365234375,0.24072265625,-0.0312122479757287,0.0427469312890799,-0.0302838700197271
1493479343.6,40.4737428154833,-79.9253275539762,14.6899995803833,0.0409393310546875,-0.907012939453125,0.220245361328125,0.0126516130745304,-0.00114462663651606,0.00866219776159173
1493479343.8,40.4737428154833,-79.9253275539762,14.6899995803833,0.0189666748046875,-1.02377319335938,0.3095703125,0.038045386700654,0.0125216508133346,0.0280787726371414
1493479344.0,40.4737428154833,-79.9253275539762,14.6899995803833,-0.035369873046875,-1.13215637207031,0.174530029296875,-0.0905839623696282,-0.0408861806354415,0.0599522835115368
1493479344.2,40.4737428154833,-79.9253275539762,14.6899995803833,-0.0297698974609375,-0.8162841796875,0.290603637695312,0.0648080251270783,0.036801157839369,-0.0463448619217769
1493479344.4,40.4736159101836,-79.9253838246559,14.9899997711182,-0.06439208984375,-0.917633056640625,0.196380615234375,-0.0905658528742156,0.134592699383188,-0.155875617550665
1493479344.6,40.4736159101836,-79.9253838246559,14.9899997711182,0.066925048828125,-0.82952880859375,0.196075439453125,-0.056295497018749,-0.0804727386589243,0.0230880087543329
1493479344.8,40.4736159101836,-79.9253838246559,14.9899997711182,0.140777587890625,-0.929840087890625,0.177871704101562,0.00553617927405672,-0.00428129776841138,0.0597757159312645
1493479345.0,40.4736159101836,-79.9253838246559,14.9899997711182,-0.0056304931640625,-0.93048095703125,0.226837158203125,0.216512067146243,-0.00460380657641998,-0.0265591729191422
1493479345.2,40.4736159101836,-79.9253838246559,14.9899997711182,-0.064666748046875,-0.801162719726562,0.373672485351562,-0.122187695025599,-0.02685505011625,0.0425330794535465
1493479345.4,40.4734896874385,-79.9254397926862,15.210000038147,0.0250396728515625,-1.01292419433594,0.25494384765625,-0.0425035183654466,0.0715383658339265,-0.0454007713153438
1493479345.6,40.4734896874385,-79.9254397926862,15.210000038147,0.108627319335938,-0.966934204101562,0.247512817382812,0.00655883313264715,0.0499545104632703,0.0148652325726043
1493479345.8,40.4734896874385,-79.9254397926862,15.210000038147,0.186492919921875,-0.914215087890625,0.247894287109375,-0.00461978554296045,0.0202466821873274,0.0372179425499664
1493479346.0,40.4734896874385,-79.9254397926862,15.210000038147,-0.141693115234375,-0.81085205078125,0.28521728515625,0.0103644903303704,-0.0468593846443802,0.072729597789519
1493479346.2,40.4734896874385,-79.9254397926862,15.210000038147,0.124725341796875,-0.865219116210938,0.262252807617188,-0.0217942450967725,0.100121008549311,-0.0644543573343157
1493479346.4,40.4733597720419,-79.9255026598274,15.4899997711182,-0.140762329101562,-0.82879638671875,0.226882934570312,-0.0612220787192866,-0.121909128375576,0.126567263438234
1493479346.6,40.4733597720419,-79.9255026598274,15.4899997711182,0.085906982421875,-0.812408447265625,0.25390625,-0.0842222031576469,-0.0717777840159246,0.045170141564943
1493479346.8,40.4733597720419,-79.9255026598274,15.4899997711182,-0.0065765380859375,-0.897750854492188,0.265975952148438,0.0360059379378713,-0.0704310234526716,0.0538611014663075
1493479347.0,40.4733597720419,-79.9255026598274,15.4899997711182,-0.01080322265625,-1.04470825195312,0.268875122070312,0.0365425648975223,-0.0555474150685457,0.0229079790646436
1493479347.2,40.4733597720419,-79.9255026598274,15.4899997711182,-0.00396728515625,-0.91387939453125,0.250946044921875,-0.00318354276708072,-0.0414680813336238,-0.0233822880547867
1493479347.4,40.4732283438002,-79.9255589023977,15.5200004577637,0.0031585693359375,-0.883438110351562,0.235702514648438,-0.0423948613929714,0.0300601644881604,0.00162079983942222
1493479347.6,40.4732283438002,-79.9255589023977,15.5200004577637,-0.001739501953125,-0.88153076171875,0.272384643554688,-0.0769296691446829,-0.00800706013343224,0.0141600275159513
1493479347.8,40.4732283438002,-79.9255589023977,15.5200004577637,-0.028076171875,-1.0048828125,0.261795043945312,-0.0161747088805963,-0.032870598386521,-0.00327941656632357
1493479348.0,40.4732283438002,-79.9255589023977,15.5200004577637,-0.0496826171875,-0.837234497070312,0.231887817382812,0.0251998954987658,0.000891626332958529,-0.0509225695195141
1493479348.2,40.4732283438002,-79.9255589023977,15.5200004577637,0.026763916015625,-0.978424072265625,0.298568725585938,-0.0109330752231023,0.00431725044312745,-0.0544999938118176
1493479348.4,40.4730921378736,-79.9256196711957,15.6899995803833,0.071746826171875,-0.948394775390625,0.226974487304688,0.0232017257328793,-0.0278073965220624,0.00137552270302593
1493479348.6,40.4730921378736,-79.9256196711957,15.6899995803833,-0.0814971923828125,-0.969268798828125,0.270294189453125,-0.0219740084703528,0.0352317570089853,-0.086679235579354
1493479348.8,40.4730921378736,-79.9256196711957,15.6899995803833,0.0716552734375,-1.03692626953125,0.2281494140625,0.0174729999120099,0.0594422881627866,-0.0767419162878323
1493479349.0,40.4730921378736,-79.9256196711957,15.6899995803833,-0.023895263671875,-0.963134765625,0.216995239257812,-0.022150309734516,-0.0402832409646476,-0.037440316500988
1493479349.2,40.4730921378736,-79.9256196711957,15.6899995803833,-0.0302581787109375,-0.98187255859375,0.250259399414062,-0.0790399579924617,0.0270997946204283,-0.0456601632055175
1493479349.4,40.4729580274229,-79.925678763613,15.8500003814697,-0.0588226318359375,-0.952239990234375,0.183670043945312,0.0092190647455273,-0.00750239110686222,0.0225042438433876
1493479349.6,40.4729580274229,-79.925678763613,15.8500003814697,0.053131103515625,-0.953369140625,0.224899291992188,-0.0348511912892129,0.0576691555090119,0.0101564974492352
1493479349.8,40.4729580274229,-79.925678763613,15.8500003814697,-0.0405120849609375,-0.996978759765625,0.247085571289062,-0.00773142296060904,5.35295379105927e-05,0.0201787715795304
1493479350.0,40.4729580274229,-79.925678763613,15.8500003814697,0.0085906982421875,-0.87939453125,0.2376708984375,-0.0667665137927225,0.0419192208222832,-0.000791757792080558
1493479350.2,40.4729580274229,-79.925678763613,15.8500003814697,-0.10638427734375,-0.973037719726562,0.242355346679688,0.036836311565758,-0.093837546273378,0.0581948635081935
1493479350.4,40.4728254676242,-79.9257379398494,15.6400003433228,-0.111602783203125,-0.873031616210938,0.238021850585938,0.0152636414716801,0.0956271905259112,-0.0512687804612244
1493479350.6,40.4728254676242,-79.9257379398494,15.6400003433228,-0.013580322265625,-0.889785766601562,0.264450073242188,-0.113268768534923,-0.0737005863229619,0.142969406275923
1493479350.8,40.4728254676242,-79.9257379398494,15.6400003433228,-0.0392303466796875,-0.954666137695312,0.21551513671875,-0.0655214859831105,0.0653004436126339,-0.0786729743942488
1493479351.0,40.4728254676242,-79.9257379398494,15.6400003433228,0.0881805419921875,-1.01634216308594,0.196273803710938,-0.000838096795047936,-0.138267861687497,0.0632548695793441
1493479351.2,40.4728254676242,-79.9257379398494,15.6400003433228,-0.1005859375,-0.964508056640625,0.181640625,-0.00592899553484341,0.0085436870930832,-0.028870530429222
1493479351.4,40.4726849450175,-79.9257997144758,15.4399995803833,-0.040679931640625,-0.998565673828125,0.176284790039062,-0.0525108787936374,0.0599064771407874,-0.0209502893473263
1493479351.6,40.4726849450175,-79.9257997144758,15.4399995803833,-0.016693115234375,-0.937301635742188,0.163742065429688,0.0108332066822243,-0.0351659769300603,0.0449826550242014
1493479351.8,40.4726849450175,-79.9257997144758,15.4399995803833,-0.065399169921875,-0.964828491210938,0.15362548828125,0.0213545572008004,-0.0331177397356804,-0.0220863938683541
1493479352.0,40.4726849450175,-79.9257997144758,15.4399995803833,0.054168701171875,-0.967559814453125,0.171981811523438,-0.0623046537024038,0.101448860668824,-0.0606076874558053
1493479352.2,40.4726849450175,-79.9257997144758,15.4399995803833,-0.001129150390625,-0.8740234375,0.181854248046875,-0.00315291641454481,-0.0393410145709775,-0.0244536777613256
1493479352.4,40.4725627368693,-79.9258542806654,14.9300003051758,0.08013916015625,-0.992050170898438,0.100753784179688,-0.0760343143861983,0.034516698256299,-0.105356516936298
1493479352.6,40.4725627368693,-79.9258542806654,14.9300003051758,-0.044097900390625,-0.935546875,0.183731079101562,0.00531300637470808,-0.05216120574251,-0.0275325582975662
1493479352.8,40.4725627368693,-79.9258542806654,14.9300003051758,-0.0277862548828125,-1.04757690429688,0.188858032226562,-0.0421884664084902,0.0321840354574986,-0.0122433504794213
1493479353.0,40.4725627368693,-79.9258542806654,14.9300003051758,0.003265380859375,-1.03248596191406,0.216796875,-0.00287062133899641,0.0138444429267769,-0.0160583287409598
1493479353.2,40.4725627368693,-79.9258542806654,14.9300003051758,0.0353851318359375,-0.958099365234375,0.2562255859375,-0.0589384180845436,-0.00705897478536403,0.0228714937577095
1493479353.4,40.4724407801782,-79.925911361426,14.2299995422363,0.088653564453125,-0.979644775390625,0.164459228515625,-0.0750721142843526,0.128127076888693,-0.0469464700120258
1493479353.6,40.4724407801782,-79.925911361426,14.2299995422363,0.22760009765625,-0.99505615234375,0.120574951171875,0.0168471570558413,0.0541346081102587,-0.0340860651080332
1493479353.8,40.4724407801782,-79.925911361426,14.2299995422363,0.0099639892578125,-1.00546264648438,0.143569946289062,0.00759693332556003,-0.0160082613124663,-0.0190727607788205
1493479354.0,40.4724407801782,-79.925911361426,14.2299995422363,-0.0905914306640625,-1.0479736328125,0.130950927734375,0.0196298940788651,-0.00651595623909687,-0.0370996981975668
1493479354.2,40.4724407801782,-79.925911361426,14.2299995422363,0.0685882568359375,-1.0089111328125,0.108154296875,0.057002566288165,0.098544683500093,-0.0647097544828543
1493479354.4,40.4723124113311,-79.925969280377,13.6800003051758,0.0961151123046875,-1.16423034667969,0.157638549804688,0.112622951970579,-0.196433696739809,0.144532681835799
1493479354.6,40.4723124113311,-79.925969280377,13.6800003051758,-0.155960083007812,-0.943038940429688,0.151947021484375,0.0107269465547302,-0.190455699040908,0.123215941522478
1493479354.8,40.4723124113311,-79.925969280377,13.6800003051758,0.07611083984375,-0.907974243164062,0.123794555664062,-0.0367297851221548,0.100218480245208,-0.0624750960121689
1493479355.0,40.4723124113311,-79.925969280377,13.6800003051758,0.0576934814453125,-1.04539489746094,0.089996337890625,-0.0480341050012142,0.0407386415110511,0.0303232848038602
1493479355.2,40.4722080147271,-79.9260167219489,12.8599996566772,-0.0006561279296875,-0.96051025390625,0.1065673828125,-0.00409381122766981,-0.00529436424707753,-0.014955247417449
1493479355.4,40.4722080147271,-79.9260167219489,12.8599996566772,0.013458251953125,-0.9764404296875,0.10992431640625,-0.0177747360635159,-0.0456196831569483,0.0287235239370496
1493479355.6,40.4722080147271,-79.9260167219489,12.8599996566772,0.095306396484375,-1.02101135253906,0.126052856445312,-0.00329752606173611,0.0617113014115341,-0.0364442942532983
1493479355.8,40.4722080147271,-79.9260167219489,12.8599996566772,-0.056396484375,-1.11094665527344,0.10174560546875,0.0679652025993672,-0.0780857473738863,0.0488769954862243
1493479356.0,40.4722080147271,-79.9260167219489,12.8599996566772,-0.06170654296875,-1.05354309082031,0.121826171875,-0.0181957818318574,0.0628719070145907,-0.036599822860959
1493479356.2,40.4722080147271,-79.9260167219489,12.8599996566772,-0.0620880126953125,-1.09817504882812,-0.0161590576171875,0.0735831409188893,-0.0408923059059487,0.0477723162660594
1493479356.4,40.4721009359141,-79.9260648340731,11.539999961853,-0.200851440429688,-1.01547241210938,0.13714599609375,0.0894904684260416,-0.198414289642501,0.121910459956121
1493479356.6,40.4721009359141,-79.9260648340731,11.539999961853,0.07928466796875,-0.960906982421875,0.119918823242188,-0.0638341071164363,0.049337456038699,-0.0551577946010671
1493479356.8,40.4721009359141,-79.9260648340731,11.539999961853,0.16357421875,-1.04656982421875,0.0266265869140625,-0.0320266426370749,0.0448769275289252,-0.047357129452116
1493479357.0,40.4721009359141,-79.9260648340731,11.539999961853,-0.04364013671875,-0.943023681640625,0.04986572265625,-0.020198478971597,-0.0477281077919641,0.0489622166411068
1493479357.2,40.4721009359141,-79.9260648340731,11.539999961853,0.041015625,-1.03608703613281,0.06201171875,0.00046818371963593,-0.0287189965631965,0.0278004723032282
1493479357.4,40.4720157757778,-79.9261019659042,9.85000038146973,-0.0032958984375,-0.935211181640625,0.061676025390625,-0.0239926845766329,-0.0189859417272839,0.0307235579156991
1493479357.6,40.4720157757778,-79.9261019659042,9.85000038146973,-0.0141448974609375,-1.03237915039062,0.0702056884765625,0.0332538272673834,-0.0544611116599024,0.0303350027126566
1493479357.8,40.4720157757778,-79.9261019659042,9.85000038146973,0.022430419921875,-0.970474243164062,0.05072021484375,-0.00919243313462651,0.0032466596849156,-0.0267578447364621
1493479358.0,40.4720157757778,-79.9261019659042,9.85000038146973,-0.0034332275390625,-0.9599609375,0.0807037353515625,-0.0301533751263132,-0.0178847246165361,0.0146644302264123
1493479358.2,40.4720157757778,-79.9261019659042,9.85000038146973,-0.00494384765625,-1.03060913085938,0.060394287109375,0.0273314896352652,-0.0235774977626895,0.0131352431284888
1493479358.4,40.4719389556353,-79.9261371698975,8.1899995803833,0.007171630859375,-0.987411499023438,0.074615478515625,-0.0234307575866261,0.00121626566983919,0.000823183092943493
1493479358.6,40.4719389556353,-79.9261371698975,8.1899995803833,-0.0189056396484375,-1.02842712402344,0.070953369140625,-0.00557133300044577,-0.0095351819669197,0.0127621342597687
1493479358.8,40.4719389556353,-79.9261371698975,8.1899995803833,0.0095977783203125,-1.02796936035156,0.0521697998046875,-0.00818948666810267,-0.0297248725069194,0.0373103542397921
1493479359.0,40.4719389556353,-79.9261371698975,8.1899995803833,0.0062408447265625,-0.999343872070312,0.09796142578125,0.0118824921517155,0.0031121700498666,-0.0105485147616949
1493479359.2,40.4719389556353,-79.9261371698975,8.1899995803833,0.0432281494140625,-0.979766845703125,0.0373992919921875,-0.00712422223207097,0.0340844672113791,-0.0054919707999614
1493479359.4,40.4718812462319,-79.926164913997,6.40999984741211,-0.028778076171875,-0.989425659179688,0.072296142578125,0.0222262098255833,-0.00227061114540156,0.00876313156690573
1493479359.6,40.4718812462319,-79.926164913997,6.40999984741211,-0.03106689453125,-1.00114440917969,0.08343505859375,-0.0130883714933034,-0.0296979745799096,0.00633992129104263
1493479359.8,40.4718812462319,-79.926164913997,6.40999984741211,-0.02471923828125,-1.00480651855469,0.0093841552734375,-0.00683713346656043,-0.0265455907975828,0.0181241427985343
1493479360.0,40.4718812462319,-79.926164913997,6.40999984741211,0.0008544921875,-1.005615234375,0.0199737548828125,-0.0259658206282726,0.0246289137610528,-0.034448255016284
1493479360.2,40.4718371993308,-79.9261837732791,4.6100001335144,-0.0029754638671875,-1.0238037109375,0.0121307373046875,-0.010518154725268,-0.00418835344636762,-0.0118252341882788
1493479360.4,40.4718371993308,-79.9261837732791,4.6100001335144,-0.014007568359375,-0.997238159179688,0.0587158203125,0.00366823808547514,0.00848110280746634,-0.0298383231693568
1493479360.6,40.4718371993308,-79.9261837732791,4.6100001335144,0.019500732421875,-1.01445007324219,0.0520172119140625,-0.00979697070207449,-0.0148271493690162,0.00740145730154822
1493479360.8,40.4718371993308,-79.9261837732791,4.6100001335144,-0.028656005859375,-1.02023315429688,0.08697509765625,-0.00574577005184596,-0.0308082464383637,0.013881460865929
1493479361.0,40.4718371993308,-79.9261837732791,4.6100001335144,-0.0211944580078125,-0.979476928710938,0.0730133056640625,-0.00290923717480256,0.010653709624753,-0.0149842758733308
1493479361.2,40.4718072759364,-79.9261954241245,2.75,-0.017333984375,-0.986541748046875,0.0853118896484375,-0.00533564324397375,0.00429008620000864,0.00313294270636922
1493479361.4,40.4718072759364,-79.9261954241245,2.75,-0.023529052734375,-0.984130859375,0.0884857177734375,-0.0171662037544328,-0.0094611460886155,0.00411351861973639
1493479361.6,40.4718072759364,-79.9261954241245,2.75,-0.0052642822265625,-0.999069213867188,0.084686279296875,-0.0063218117956301,0.00110414658794685,-0.0043324304613409
1493479361.8,40.4718072759364,-79.9261954241245,2.75,0.0169525146484375,-0.983245849609375,0.104095458984375,-0.0159177138354036,0.00329433026842802,-0.00230390065902755
1493479362.0,40.4718072759364,-79.9261954241245,2.75,-0.0084228515625,-0.990188598632812,0.100921630859375,-0.00117658456959701,-0.0148844073324529,2.63652947917845e-05
1493479362.2,40.4718072759364,-79.9261954241245,2.75,0.0096435546875,-0.978363037109375,0.13470458984375,-0.0127781132263092,-0.00204450876885383,-0.00119176458781046
1493479362.4,40.471791643687,-79.9262023811042,1.24000000953674,0.0212554931640625,-0.9698486328125,0.15948486328125,-0.000256995045192646,-0.0127610689953327,0.0117586551610269
1493479362.6,40.471791643687,-79.9262023811042,1.24000000953674,-0.0049591064453125,-0.968246459960938,0.161727905273438,-0.00841265956745131,0.0043087283276392,-0.00542832124990851
1493479362.8,40.471791643687,-79.9262023811042,1.24000000953674,0.0030364990234375,-0.966156005859375,0.1517333984375,-0.00867897567645923,-0.0116436066019354,0.00527226001002987
1493479363.0,40.471791643687,-79.9262023811042,1.24000000953674,-0.004547119140625,-0.959716796875,0.176773071289062,-0.00846725436979793,-0.00100933805314003,-0.0043489420600994
1493479363.2,40.4717847286169,-79.9262043927609,0.340000003576279,-0.0078887939453125,-0.965347290039062,0.181350708007812,-0.0108310761533523,-0.0126931583875357,0.00631914863454002
1493479363.4,40.4717847286169,-79.9262043927609,0.340000003576279,-0.000946044921875,-0.974472045898438,0.1851806640625,-0.010687265454488,-0.00524909050854618,-9.58737992428526e-05
1493479363.6,40.4717847286169,-79.9262043927609,0.340000003576279,0.01239013671875,-0.93829345703125,0.253814697265625,-0.00101413174310217,-0.00105780758497947,-0.00427250933681412
1493479363.8,40.4717847286169,-79.9262043927609,0.340000003576279,0.0066375732421875,-0.955154418945312,0.24267578125,-0.0160468771482725,-0.00415000392667048,0.0030450583903966
1493479364.0,40.4717847286169,-79.9262043927609,0.340000003576279,0.00592041015625,-0.944168090820312,0.233657836914062,-0.017074324696825,-0.00307994580067664,0.000899349500119759
1493479364.2,40.4717847286169,-79.9262043927609,0.0,0.006378173828125,-0.943832397460938,0.238006591796875,-0.0117586551610269,-0.00417823343422532,0.000956607463556462
1493479364.4,40.4717847286169,-79.9262043927609,0.0,0.004241943359375,-0.95062255859375,0.230941772460938,-0.0127861027095794,-0.00310817530823148,-0.00118910142672038
1493479364.6,40.4717847286169,-79.9262043927609,0.0,0.0059967041015625,-0.949493408203125,0.241104125976562,-0.0181403880811837,-0.00520062097670674,-0.000172306522528127
1493479364.8,40.4717847286169,-79.9262043927609,0.0,0.0030059814453125,-0.94866943359375,0.237762451171875,-0.00854182288032015,-0.0031356058674593,-7.93622004843613e-05
1493479365.0,40.4717847286169,-79.9262043927609,0.0,0.00439453125,-0.948867797851562,0.231307983398438,-0.00956128094560248,-0.00100188120208781,-0.00222773425185128
1493479365.2,40.4717847286169,-79.9262043927609,0.0,0.0023651123046875,-0.962173461914062,0.235321044921875,-0.00213212676871744,-0.00424135035206019,-0.00214331204529577
1493479365.4,40.4717847286169,-79.9262043927609,0.0,0.03466796875,-0.928451538085938,0.297500610351562,-0.00545548549302732,-0.0116649118906561,0.0031728901227204
1493479365.6,40.4717847286169,-79.9262043927609,0.0,0.017486572265625,-0.921676635742188,0.358795166015625,0.00634578024544081,-0.00961507679962208,-0.00204264455609078
1493479365.8,40.4717847286169,-79.9262043927609,0.0,0.0133819580078125,-0.900131225585938,0.386871337890625,-3.99474163511886e-05,-0.00531833269688824,1.33158054503962e-05
1493479366.0,40.4717847286169,-79.9262043927609,0.0,0.0158233642578125,-0.9014892578125,0.443099975585938,-0.00509329558477654,0.00534949168164217,-0.0139267346044604
1493479366.2,40.4717847286169,-79.9262043927609,0.0,0.005645751953125,-0.869216918945312,0.461349487304688,0.000151800182134517,-0.00319419541144104,-0.0127847711290344
1493479366.4,40.4717806633939,-79.9262074940651,0.769999980926514,0.022491455078125,-0.896697998046875,0.4752197265625,-0.00122984779139859,-0.00637294448855962,0.0085335670809409
1493479366.6,40.4717806633939,-79.9262074940651,0.769999980926514,0.015228271484375,-0.885101318359375,0.459014892578125,0.00667015326621246,-0.0457781412418081,0.0321728501809203
1493479366.8,40.4717806633939,-79.9262074940651,0.769999980926514,0.0144195556640625,-0.859359741210938,0.548614501953125,0.0575021753086639,-0.013139770502342,-0.00684086189208654
1493479367.0,40.4717806633939,-79.9262074940651,0.769999980926514,0.005950927734375,-0.84283447265625,0.498260498046875,-0.0220456475036759,-0.0647403808353902,0.0191332145355653
1493479367.2,40.4717806633939,-79.9262074940651,0.769999980926514,0.01715087890625,-0.82415771484375,0.555770874023438,0.0407727299730041,-0.00346024520433995,-0.024096547859146
1493479367.4,40.4717626842116,-79.9262193125486,2.95000004768372,0.0291748046875,-0.886932373046875,0.540802001953125,0.0339648912784346,-0.0300063686341408,-0.00810453182932914
1493479367.6,40.4717626842116,-79.9262193125486,2.95000004768372,0.016265869140625,-0.876724243164062,0.513046264648438,0.0126090024970892,-0.0107181581231329,0.00655403944268501
1493479367.8,40.4717626842116,-79.9262193125486,2.95000004768372,0.0420379638671875,-0.897293090820312,0.526199340820312,0.0154481985352226,0.011595137070096,-0.0329243942405406
1493479368.0,40.4717626842116,-79.9262193125486,2.95000004768372,0.048187255859375,-0.893478393554688,0.484939575195312,-0.0263373316003386,0.00442324425451261,-0.0184067041901917
1493479368.2,40.4717626842116,-79.9262193125486,2.95000004768372,-0.00799560546875,-0.883102416992188,0.39599609375,-0.0332836546715923,0.00234731018479584,0.0209774535904452
1493479368.4,40.4717229539905,-79.926233561784,5.44000005722046,0.0568084716796875,-0.875473022460938,0.370498657226562,-0.00871439571895728,0.0415351929930938,-0.0407125425323683
1493479368.6,40.4717229539905,-79.926233561784,5.44000005722046,0.104248046875,-0.876693725585938,0.435653686523438,-0.0132889075233864,0.0405048159673422,-0.0183662241416225
1493479368.8,40.4717229539905,-79.926233561784,5.44000005722046,-0.05706787109375,-0.899871826171875,0.431472778320312,-0.0191071155568825,-0.0753946230923613,0.0319853636401787
1493479369.0,40.4717229539905,-79.926233561784,5.44000005722046,0.0716094970703125,-0.877609252929688,0.386306762695312,-0.00710824326553049,0.0128079406305181,-0.0182314681904645
1493479369.2,40.4716655798633,-79.9262590427696,7.34999990463257,0.08050537109375,-0.997665405273438,0.357177734375,-0.024972195225564,-0.0466396738544487,0.00946061345639749
1493479369.4,40.4716655798633,-79.9262590427696,7.34999990463257,0.089508056640625,-0.905242919921875,0.341842651367188,0.0661172351189612,0.036802223103805,0.01337652552325
1493479369.6,40.4716655798633,-79.9262590427696,7.34999990463257,0.021209716796875,-0.932052612304688,0.438507080078125,0.0317022696163032,-0.00871386308673927,0.013141634715105
1493479369.8,40.4716655798633,-79.9262590427696,7.34999990463257,-0.0457916259765625,-1.02023315429688,0.354751586914062,-0.143806171490426,0.0498589029801365,-0.0474482095613967
1493479370.0,40.4716655798633,-79.9262590427696,7.34999990463257,0.040924072265625,-0.9482421875,0.351531982421875,0.0149461926697427,0.0169233234630175,0.00650663517528159
1493479370.2,40.4716655798633,-79.9262590427696,7.34999990463257,0.00579833984375,-0.794464111328125,0.486480712890625,-0.0246246527033087,0.00548078552338307,0.0125283087160598
1493479370.4,40.4715931602199,-79.9262923189252,9.01000022888184,0.03973388671875,-0.947525024414062,0.4246826171875,-0.0375305976619417,-0.0252843177053213,0.00501206917152913
1493479370.6,40.4715931602199,-79.9262923189252,9.01000022888184,0.0970458984375,-0.900131225585938,0.436813354492188,0.00298220778867073,0.103147957444295,-0.0834003516452484
1493479370.8,40.4715931602199,-79.9262923189252,9.01000022888184,-0.052825927734375,-0.918243408203125,0.4417724609375,-0.0228680316482924,-0.0753759809647307,-0.00430446726989507
1493479371.0,40.4715931602199,-79.9262923189252,9.01000022888184,0.03948974609375,-0.838104248046875,0.474899291992188,0.0277360238048482,0.0700057166265859,-0.120378876013217
1493479371.2,40.4715085029979,-79.9263283611088,10.7399997711182,0.257308959960938,-0.99566650390625,0.380111694335938,-0.0582854109852562,0.139722746591007,-0.022281603576257
1493479371.4,40.4715085029979,-79.9263283611088,10.7399997711182,0.012542724609375,-0.92730712890625,0.409408569335938,-0.0181334638623495,-0.120067552481786,0.0918186038509889
1493479371.6,40.4715085029979,-79.9263283611088,10.7399997711182,0.04229736328125,-0.860260009765625,0.396514892578125,0.0839138091034157,0.121770111366674,-0.0730238770899727
1493479371.8,40.4715085029979,-79.9263283611088,10.7399997711182,0.179244995117188,-0.9146728515625,0.404754638671875,-0.0476482129592617,0.127939324031843,-0.105306982140022
1493479372.0,40.4715085029979,-79.9263283611088,10.7399997711182,0.05859375,-0.8406982421875,0.414703369140625,0.000932905329854757,-0.0117064572036613,0.00323840388553635
1493479372.2,40.4715085029979,-79.9263283611088,10.7399997711182,0.129989624023438,-0.927093505859375,0.394180297851562,0.0305555124509151,0.0753232503751471,-0.0126761141565592
1493479372.4,40.4714073753361,-79.9263758026808,12.25,0.0742034912109375,-0.912933349609375,0.320068359375,-0.0360304390199,0.015125689727214,-0.00467278244865303
1493479372.6,40.4714073753361,-79.9263758026808,12.25,-0.07470703125,-0.927276611328125,0.456863403320312,0.00396225106981989,-0.131910097217151,0.10486995740514
1493479372.8,40.4714073753361,-79.9263758026808,12.25,-0.039825439453125,-0.905532836914062,0.38385009765625,-0.0157504673189466,-0.0615887960013905,0.0277192458899807
1493479373.0,40.4714073753361,-79.9263758026808,12.25,0.093231201171875,-0.856399536132812,0.361404418945312,-0.015258048833391,0.0670986099806554,-0.0930899969553927
1493479373.2,40.471295979843,-79.9264229089766,13.7399997711182,0.125747680664062,-0.944808959960938,0.441314697265625,0.035626171166426,0.0221026391510036,-0.0231489951432958
1493479373.4,40.471295979843,-79.9264229089766,13.7399997711182,0.01678466796875,-0.95416259765625,0.399490356445312,-0.00687921141178368,0.0276971416529331,-0.0267972595205953
1493479373.6,40.471295979843,-79.9264229089766,13.7399997711182,0.0941314697265625,-0.897201538085938,0.312149047851562,0.022685871429731,-0.0958695381851084,0.0793795110314468
1493479373.8,40.471295979843,-79.9264229089766,13.7399997711182,-0.0508270263671875,-0.820220947265625,0.463638305664062,0.00646695407503941,0.0201694505157151,0.00534523062389804
1493479374.0,40.471295979843,-79.9264229089766,13.7399997711182,-0.00091552734375,-0.937103271484375,0.341766357421875,0.00887738117767013,0.012703811031896,-0.0191337471677833
1493479374.2,40.471295979843,-79.9264229089766,13.7399997711182,-0.0010986328125,-0.869308471679688,0.385665893554688,-0.00167060095180671,-0.03189641405977,0.026720560481201
1493479374.4,40.4711699160193,-79.9264800735562,15.0,0.126388549804688,-0.909149169921875,0.38946533203125,0.00675510810498599,0.0520661308915941,-0.0757664003805363
1493479374.6,40.4711699160193,-79.9264800735562,15.0,-0.008453369140625,-0.940505981445312,0.377777099609375,0.0238443465039154,-0.0586571882734313,0.0153224973317709
1493479374.8,40.4711699160193,-79.9264800735562,15.0,0.001983642578125,-0.940231323242188,0.312591552734375,-0.0511577266437681,-0.033708695181569,-0.0153637763286671
1493479375.0,40.4711699160193,-79.9264800735562,15.0,0.11212158203125,-0.86614990234375,0.3485107421875,-0.0598801118459956,0.0418686207615717,-0.0369723990974611
1493479375.2,40.4710311955218,-79.9265400041639,15.8800001144409,0.11431884765625,-0.94378662109375,0.360260009765625,-0.0207185943324894,0.00333188083979813,0.0370967687203678
1493479375.4,40.4710311955218,-79.9265400041639,15.8800001144409,-0.109466552734375,-0.97491455078125,0.301727294921875,0.0627853542791631,-0.0940109180603421,0.0296732071817719
1493479375.6,40.4710311955218,-79.9265400041639,15.8800001144409,-0.025482177734375,-0.93621826171875,0.363265991210938,0.041036649237031,-0.0704603182246624,0.0752369639558286
1493479375.8,40.4710311955218,-79.9265400041639,15.8800001144409,0.122573852539062,-0.89666748046875,0.289047241210938,0.0259903217103013,0.0423783497942129,-0.00837297846720913
1493479376.0,40.4710311955218,-79.9265400041639,15.8800001144409,-0.008087158203125,-0.912200927734375,0.363037109375,0.0311754963526856,0.0551119882303178,0.00870667255179605
1493479376.2,40.4709015274797,-79.9265971687435,16.5599994659424,0.109100341796875,-0.935317993164062,0.267868041992188,0.0395748401146865,0.00612340629441919,-0.00920654788840393
1493479376.4,40.4709015274797,-79.9265971687435,16.5599994659424,-0.082000732421875,-0.960128784179688,0.312271118164062,0.00640729926662164,-0.130865871753731,0.0825018010934557
1493479376.6,40.4709015274797,-79.9265971687435,16.5599994659424,-0.0088653564453125,-0.85089111328125,0.319900512695312,-0.147719953028406,-0.0277530680358247,0.0401415607946553
1493479376.8,40.4709015274797,-79.9265971687435,16.5599994659424,0.00970458984375,-0.883636474609375,0.188827514648438,0.0419040408040698,0.0209992915113838,-0.0156183745288787
1493479377.0,40.4709015274797,-79.9265971687435,16.5599994659424,0.0127105712890625,-0.93695068359375,0.23809814453125,-0.0835604076267622,-0.00902492030206052,0.0311541910639649
1493479377.2,40.4709015274797,-79.9265971687435,16.5599994659424,0.0983428955078125,-0.968948364257812,0.262603759765625,-0.00124156570019494,-0.0925166183726987,0.117509586254765
1493479377.4,40.4707582807545,-79.9266625475883,16.7399997711182,0.02947998046875,-0.91912841796875,0.27301025390625,0.0589240370146572,-0.0716379680586955,0.0903501368259192
1493479377.6,40.4707582807545,-79.9266625475883,16.7399997711182,-0.0121002197265625,-0.902587890625,0.280364990234375,-0.0459866667551613,0.0428414735077777,-0.0400313059255261
1493479377.8,40.4707582807545,-79.9266625475883,16.7399997711182,0.11834716796875,-0.935791015625,0.182418823242188,-0.0433983404917132,0.0109173625726708,-0.0132670696024477
1493479378.0,40.4707582807545,-79.9266625475883,16.7399997711182,0.02215576171875,-1.06202697753906,0.238372802734375,-0.0107639644938823,0.0170799173351142,-0.0598622686666921
1493479378.2,40.4706228711088,-79.9267213885485,16.6499996185303,0.154220581054688,-0.969467163085938,0.253662109375,-0.00239844287772536,0.00321017437798151,0.0212914402829655
1493479378.4,40.4706228711088,-79.9267213885485,16.6499996185303,0.048187255859375,-0.977706909179688,0.235610961914062,-0.0476466150626077,0.0162639247771139,-0.011191934481058
1493479378.6,40.4706228711088,-79.9267213885485,16.6499996185303,0.203704833984375,-1.02095031738281,0.13470458984375,0.0463611072044264,0.170940587205025,-0.103389239839056
1493479378.8,40.4706228711088,-79.9267213885485,16.6499996185303,-0.130691528320312,-0.965621948242188,0.144515991210938,-0.00901586555435425,-0.0233394111612364,0.023424632316119
1493479379.0,40.4706228711088,-79.9267213885485,16.6499996185303,0.03375244140625,-0.999252319335938,0.203628540039062,-0.00873383679491486,0.0851393958370702,-0.0930697569311081
1493479379.2,40.4706228711088,-79.9267213885485,16.6499996185303,-0.012725830078125,-0.995468139648438,0.210220336914062,-0.0528869171395566,-0.0304982544874784,0.0347222942924531
1493479379.4,40.4704765230794,-79.926780732423,16.3299999237061,-0.0351104736328125,-0.942886352539062,0.169036865234375,-0.030853253860786,0.00339180196432492,-0.000324639336880659
1493479379.6,40.4704765230794,-79.926780732423,16.3299999237061,0.010467529296875,-1.05046081542969,0.211044311523438,0.00895061810764731,0.0244044092811591,-0.0180969785554154
1493479379.8,40.4704765230794,-79.926780732423,16.3299999237061,-0.0514984130859375,-0.877761840820312,0.2230224609375,0.116932745562654,0.00349699682738305,0.0171813837726462
1493479380.0,40.4704765230794,-79.926780732423,16.3299999237061,-0.0011138916015625,-0.891357421875,0.27093505859375,-0.0939467358780712,-0.0366195302530256,-0.00299978465186525
1493479380.2,40.4704765230794,-79.926780732423,16.3299999237061,-0.011199951171875,-0.9644775390625,0.23492431640625,-0.0360855664544647,-0.0540086405906979,0.0392198407413789
1493479380.4,40.4703400656958,-79.9268346280604,15.8999996185303,-0.00408935546875,-0.920166015625,0.265304565429688,-0.062648734115242,-0.00810506446154715,-0.017679927528709
1493479380.6,40.4703400656958,-79.9268346280604,15.8999996185303,0.0080108642578125,-0.94305419921875,0.201675415039062,0.018250376634204,-0.0575538406338114,0.0355204436711499
1493479380.8,40.4703400656958,-79.9268346280604,15.8999996185303,-0.00982666015625,-0.9659423828125,0.186996459960938,-0.0259596953577654,-0.063655142691183,-0.00543258230765264
1493479381.0,40.4703400656958,-79.9268346280604,15.8999996185303,-0.019073486328125,-0.961013793945312,0.233810424804688,-0.0391154448266478,-0.0444289838335739,-0.0450668109146479
1493479381.2,40.4702064162497,-79.9268963188677,15.6400003433228,-0.0284881591796875,-0.950546264648438,0.273849487304688,0.0489323892368979,0.0209585451467056,0.0153738963408094
1493479381.4,40.4702064162497,-79.9268963188677,15.6400003433228,0.00518798828125,-0.90008544921875,0.258392333984375,-0.000352336212217483,0.0733969859586928,-0.0119213743036307
1493479381.6,40.4702064162497,-79.9268963188677,15.6400003433228,0.129898071289062,-0.97772216796875,0.218902587890625,-0.0125317708254769,-0.00630423493243557,-0.0214363162462658
1493479381.8,40.4702064162497,-79.9268963188677,15.6400003433228,-0.0395355224609375,-0.929290771484375,0.28533935546875,-0.0420265462142134,-0.0178056287321608,0.0262710188891957
1493479382.0,40.4702064162497,-79.9268963188677,15.6400003433228,-0.053131103515625,-0.911529541015625,0.263916015625,-0.0134308540094876,0.0873026815905416,-0.0600707941800453
1493479382.2,40.470073772632,-79.9269544054567,15.460000038147,0.0360565185546875,-1.02664184570312,0.24346923828125,-0.0542427324505159,0.0237559295557248,0.00791305054695244
1493479382.4,40.470073772632,-79.9269544054567,15.460000038147,0.0803375244140625,-0.919464111328125,0.288192749023438,-0.0725676775952421,0.0557796427156006,-0.0360719843329053
1493479382.6,40.470073772632,-79.9269544054567,15.460000038147,0.141677856445312,-0.99810791015625,0.182525634765625,-0.0688259362636808,-0.0027358653878384,0.0472820283093758
1493479382.8,40.470073772632,-79.9269544054567,15.460000038147,0.017669677734375,-0.917037963867188,0.237106323242188,-0.0604771925623914,-0.00385199620069061,0.0590987403821664
1493479383.0,40.470073772632,-79.9269544054567,15.460000038147,0.0513458251953125,-0.98455810546875,0.22698974609375,-0.0084965491417888,-0.0127107352507302,-0.0085839008255434
1493479383.2,40.470073772632,-79.9269544054567,15.460000038147,-0.06005859375,-0.985198974609375,0.29718017578125,-0.0223095667677028,0.0607693413339731,-0.048364869608602
1493479383.4,40.4699408775572,-79.9270088040083,15.2600002288818,0.040374755859375,-0.76409912109375,0.313034057617188,-7.59000910672583e-05,-0.0159557970389917,-0.00315824273672497
1493479383.6,40.4699408775572,-79.9270088040083,15.2600002288818,0.132843017578125,-0.861526489257812,0.2310791015625,-0.0715181258096419,0.0738702296843999,0.0523878407512757
1493479383.8,40.4699408775572,-79.9270088040083,15.2600002288818,0.0839691162109375,-1.03608703613281,0.138961791992188,-0.0833497515845369,-0.114321249797722,0.113526562528443
1493479384.0,40.4699408775572,-79.9270088040083,15.2600002288818,-0.0445404052734375,-1.00300598144531,0.160110473632812,-0.0137616186168755,0.0224286100684293,0.00619850743715943
1493479384.2,40.4699408775572,-79.9270088040083,15.2600002288818,-0.0363006591796875,-0.922592163085938,0.198974609375,0.0139174135406451,-0.0426438669548938,-0.028535238447981
1493479384.4,40.469810874239,-79.9270628672838,15.1700000762939,-0.066558837890625,-0.915328979492188,0.21771240234375,-0.00430766306320317,-0.0265791466273178,-0.0884712766768683
1493479384.6,40.469810874239,-79.9270628672838,15.1700000762939,-0.0599822998046875,-1.00015258789062,0.16864013671875,0.0232430047297756,-0.0437653240899262,-0.0103112271085688
1493479384.8,40.469810874239,-79.9270628672838,15.1700000762939,0.0029449462890625,-0.938812255859375,0.158157348632812,0.0282457528374894,-0.0416664868348347,0.0142574992118482
1493479385.0,40.469810874239,-79.9270628672838,15.1700000762939,-0.0855712890625,-0.95037841796875,0.228317260742188,-0.012503807634031,-0.0201342967893261,-0.0309962656113232
1493479385.2,40.469810874239,-79.9270628672838,15.1700000762939,-0.106735229492188,-0.981704711914062,0.152313232421875,-0.0521193941133957,0.0535164884212513,-0.0529162119115474
1493479385.4,40.4696850199629,-79.9271165952831,14.75,0.001495361328125,-0.978256225585938,0.112533569335938,-0.0581498560857712,-0.125131553294572,0.0562369074747672
1493479385.6,40.4696850199629,-79.9271165952831,14.75,-0.122482299804688,-0.946090698242188,0.160614013671875,-0.0163699185884991,0.0341406599103798,-0.0301096992844359
1493479385.8,40.4696850199629,-79.9271165952831,14.75,0.0560455322265625,-0.992965698242188,0.14483642578125,-0.00842011641850353,0.0553593958955861,-0.0546059876232027
1493479386.0,40.4696850199629,-79.9271165952831,14.75,-0.047332763671875,-0.986114501953125,0.184310913085938,0.04910363049499,-0.0609456425981363,0.0358450830080305
1493479386.2,40.4696850199629,-79.9271165952831,14.75,-0.0136260986328125,-1.05657958984375,0.109619140625,-0.0762833199481207,0.104732804609001,-0.0490309261972308
1493479386.4,40.4695584113155,-79.927171748206,13.6700000762939,0.0704193115234375,-0.98480224609375,0.12298583984375,0.0206946258826787,0.0402848388613016,-0.0116204371004517
1493479386.6,40.4695584113155,-79.927171748206,13.6700000762939,-0.0136871337890625,-0.944717407226562,0.123855590820312,-0.0176668780393677,-0.0137072901306378,0.0382381995635757
1493479386.8,40.4695584113155,-79.927171748206,13.6700000762939,0.029327392578125,-0.966781616210938,0.0722198486328125,0.017172861657158,-0.00330471659667933,-0.0115440043771665
1493479387.0,40.4695584113155,-79.927171748206,13.6700000762939,0.0180206298828125,-0.974411010742188,0.07110595703125,-0.0406483603500974,0.0311046562676895,-0.0474098600416996
1493479387.2,40.4695584113155,-79.927171748206,13.6700000762939,0.0358123779296875,-1.00482177734375,0.094879150390625,0.00143890593696981,-0.0106518454119899,-0.0330104143437502
1493479387.4,40.469457870387,-79.9272170943021,12.1999998092651,0.0087432861328125,-0.921844482421875,0.0324554443359375,-0.00710877589774851,-0.0393063934768065,0.0309488613439198
1493479387.6,40.469457870387,-79.9272170943021,12.1999998092651,-0.0178680419921875,-1.00711059570312,0.13262939453125,-0.0190519881223179,0.00544163705535891,-0.00554017401569184
1493479387.8,40.469457870387,-79.9272170943021,12.1999998092651,-0.0402679443359375,-0.950424194335938,0.106109619140625,-0.0485720635414102,-0.0230802855871717,0.0347473280066998
1493479388.0,40.469457870387,-79.9272170943021,12.1999998092651,0.0330352783203125,-0.905853271484375,0.133026123046875,-0.00944676501872907,0.029846578968736,0.00622354115140617
1493479388.2,40.4693621071432,-79.9272597581893,10.6000003814697,0.0845489501953125,-0.9478759765625,0.148056030273438,-0.00221415213029188,0.0563849792313756,-0.0406843130248135
1493479388.4,40.4693621071432,-79.9272597581893,10.6000003814697,-0.05572509765625,-0.9425048828125,0.146148681640625,-0.0303664280135195,-0.042348522390004,0.0168578097002016
1493479388.6,40.4693621071432,-79.9272597581893,10.6000003814697,0.01666259765625,-0.920989990234375,0.0141143798828125,-0.0912127347029959,0.0165462198526623,-0.0180359921664526
1493479388.8,40.4693621071432,-79.9272597581893,10.6000003814697,-0.0239410400390625,-0.966964721679688,0.08428955078125,-0.0197193762914917,0.0947890937308633,-0.063353140223568
1493479389.0,40.4693621071432,-79.9272597581893,10.6000003814697,0.0198516845703125,-1.03169250488281,0.08282470703125,0.027258785337506,0.0519420275847965,-0.017980598415779
1493479389.2,40.4693621071432,-79.9272597581893,10.6000003814697,0.0417327880859375,-1.02851867675781,0.091461181640625,0.0154894775321189,0.0190410691618485,-0.0318769729838125
1493479389.4,40.4692818085109,-79.9272965547442,9.03999996185303,0.0435333251953125,-1.00340270996094,0.03509521484375,-0.00348394733804166,0.0329917722161196,-0.0385045156725836
1493479389.6,40.4692818085109,-79.9272965547442,9.03999996185303,-0.0742034912109375,-1.09347534179688,0.1368408203125,0.048296692684696,-0.121568243756046,0.0615824044147743
1493479389.8,40.4692818085109,-79.9272965547442,9.03999996185303,-0.04241943359375,-0.964126586914062,0.0340728759765625,-0.0286327101438779,0.0480439586972475,-0.0601251226662829
1493479390.0,40.4692818085109,-79.9272965547442,9.03999996185303,0.0745391845703125,-1.13182067871094,-0.04217529296875,0.0379854655761272,-0.0481145324661346,-0.000553138558409458
1493479390.2,40.4692818085109,-79.9272965547442,9.03999996185303,0.0119781494140625,-1.05006408691406,-0.0716094970703125,-0.00424960615143944,0.00321896280957878,0.00101439805921118
1493479390.4,40.4692154657473,-79.9273294956236,7.09000015258789,-0.057220458984375,-1.01692199707031,0.0021209716796875,-0.00371617498509657,-0.0382669617033486,0.0171201310675744
1493479390.6,40.4692154657473,-79.9273294956236,7.09000015258789,0.0516357421875,-0.972030639648438,0.0170440673828125,-0.000939563232579955,-0.0106334696004684,-0.0149091747305906
1493479390.8,40.4692154657473,-79.9273294956236,7.09000015258789,0.03509521484375,-1.00247192382812,-0.0099639892578125,-0.00487092163375493,0.0213026255595438,-0.0214291257113226
1493479391.0,40.4692154657473,-79.9273294956236,7.09000015258789,0.00848388671875,-1.02659606933594,-0.0079345703125,-0.0087788442173372,-0.0190884734292519,0.00848909229073658
1493479391.2,40.4692154657473,-79.9273294956236,7.09000015258789,-0.0023345947265625,-1.00279235839844,-0.00860595703125,0.00322349018343191,-2.13052887206339e-05,-0.00209936988730946
1493479391.4,40.4691662220661,-79.9273576588183,4.73999977111816,-0.0197906494140625,-1.00382995605469,0.025665283203125,-0.0246765843445652,-0.0189859417272839,0.00299499096190311
1493479391.6,40.4691662220661,-79.9273576588183,4.73999977111816,0.005889892578125,-1.00946044921875,0.012725830078125,-0.0105248126279931,-0.00312442059088096,-0.0107618339650102
1493479391.8,40.4691662220661,-79.9273576588183,4.73999977111816,-0.00262451171875,-1.00236511230469,0.0455169677734375,-0.00523843786418586,-0.00422217559221162,-0.00857244923285606
1493479392.0,40.4691662220661,-79.9273576588183,4.73999977111816,-0.00634765625,-1.00270080566406,0.041656494140625,-0.00952000194870625,-0.00525787894014344,-0.00754739852928456
1493479392.2,40.4691662220661,-79.9273576588183,4.73999977111816,0.0101776123046875,-0.985794067382812,0.1217041015625,-0.0108483867004378,-0.0169480908611553,0.00526373789454161
1493479392.4,40.4691459378604,-79.9273662083595,2.14000010490417,0.019287109375,-0.979095458984375,0.12841796875,-0.0130138029827812,-0.0158697769357822,0.00843742696558904
1493479392.6,40.4691459378604,-79.9273662083595,2.14000010490417,0.0093536376953125,-0.974212646484375,0.139236450195312,-0.012839365931381,-0.00629864229414641,0.000951014825267296
1493479392.8,40.4691459378604,-79.9273662083595,2.14000010490417,0.008056640625,-0.962356567382812,0.148483276367188,-0.0181070985675577,0.00118164457566816,0.000877777895290117
1493479393.0,40.4691459378604,-79.9273662083595,2.14000010490417,0.0096588134765625,-0.969039916992188,0.166152954101562,-0.00335265349630075,-0.00742302890637786,0.00744832893673361
1493479393.2,40.4691459378604,-79.9273662083595,2.14000010490417,0.01434326171875,-0.973724365234375,0.174209594726562,-0.00878283895897232,-0.0137693417840367,0.0116739666383623
1493479393.4,40.4691359633957,-79.9273671303689,0.560000002384186,0.014739990234375,-0.952011108398438,0.20037841796875,-0.0053036853108928,-0.00315717747228894,-0.00324479547215254
1493479393.6,40.4691359633957,-79.9273671303689,0.560000002384186,0.015045166015625,-0.959075927734375,0.201583862304688,-0.0106180232661459,6.87095561240443e-05,-0.00224131637341069
1493479393.8,40.4691359633957,-79.9273671303689,0.560000002384186,0.011077880859375,-0.951126098632812,0.278472900390625,-0.0106819391323078,-0.00844062275889714,-0.00222001108469005
1493479394.0,40.4691359633957,-79.9273671303689,0.560000002384186,0.0188140869140625,-0.941009521484375,0.249954223632812,-0.00749972794577214,-0.00420593030956214,0.00100028330543376
1493479394.2,40.4691359633957,-79.9273671303689,0.0,0.012115478515625,-0.950088500976562,0.262344360351562,-0.00855380710522551,0.00111985923837832,0.00310817530823148
1493479394.4,40.4691359633957,-79.9273671303689,0.0,0.0157012939453125,-0.96917724609375,0.23309326171875,-0.0254390473646549,0.00761078176322845,-0.00454495071632923
1493479394.6,40.4691359633957,-79.9273671303689,0.0,0.0149993896484375,-0.951858520507812,0.25799560546875,-0.0160415508260923,-0.00734153617702144,0.000920921104949401
1493479394.8,40.4691359633957,-79.9273671303689,0.0,0.0144195556640625,-0.947174072265625,0.254730224609375,-0.010687265454488,-0.00524909050854618,-9.58737992428526e-05
1493479395.0,40.4691359633957,-79.9273671303689,0.0,0.016937255859375,-0.944091796875,0.259185791015625,-0.00959190729813839,-0.0031289479647341,-0.00115634454531241
1493479395.2,40.4691359633957,-79.9273671303689,0.0,0.0133056640625,-0.942520141601562,0.259674072265625,-0.0149595084751931,-0.00309352792223604,0.00198725080541713
1493479395.4,40.4691359633957,-79.9273671303689,0.0,0.019866943359375,-0.943679809570312,0.258636474609375,-0.0106340022326864,-0.00205862352263125,-0.00223599005123053
1493479395.6,40.4691359633957,-79.9273671303689,0.0,0.0068206787109375,-0.943817138671875,0.257354736328125,-0.0106419917159566,-0.0031222900620089,-0.00223332689014045
1493479395.8,40.4691359633957,-79.9273671303689,0.0,0.0205078125,-0.947555541992188,0.257217407226562,-0.0117506656777566,-0.00311456689484767,0.000953944302466383
1493479396.0,40.4691359633957,-79.9273671303689,0.0,0.0113372802734375,-0.945343017578125,0.259414672851562,-0.0138188765803122,0.00115341506811332,-0.00121067303155002
1493479396.2,40.4691359633957,-79.9273671303689,0.0,0.02117919921875,-0.93914794921875,0.2576904296875,-0.0117213709057658,-0.00311509952706569,-0.00117818246625105
1493479396.4,40.4691359633957,-79.9273671303689,0.0,0.0069122314453125,-0.943069458007812,0.256317138671875,-0.0170969615660907,-0.00414334602394528,0.00196807604556856
1493479396.6,40.4691359633957,-79.9273671303689,0.0,0.017333984375,-0.943222045898438,0.261383056640625,-0.0106566391019521,-0.00312202374589989,-0.00116726350578173
1493479396.8,40.4691359633957,-79.9273671303689,0.0,0.010650634765625,-0.95074462890625,0.255477905273438,-0.015965650735025,-0.00308766896783787,-0.00228792169248707
1493479397.0,40.4691359633957,-79.9273671303689,0.0,0.0163726806640625,-0.944076538085938,0.2606201171875,-0.0149009189312114,-0.00309459318667207,-0.00227700273201775
1493479397.2,40.4691359633957,-79.9273671303689,0.0,0.0128936767578125,-0.93878173828125,0.25439453125,-0.0117826236108376,-0.00736923305235826,0.0009645969468267
1493479397.4,40.4691359633957,-79.9273671303689,0.0,0.0106353759765625,-0.942535400390625,0.256988525390625,-0.0117440077750314,-0.00417849975033432,-0.000109455920802257
1493479397.6,40.4691359633957,-79.9273671303689,0.0,0.0113067626953125,-0.942733764648438,0.257125854492188,-0.0128233869648405,-0.00417130921539111,0.000945688503087137
1493479397.8,40.4691359633957,-79.9273671303689,0.0,0.011474609375,-0.93878173828125,0.262710571289062,-0.00854182288032015,-0.0031356058674593,-7.93622004843613e-05
1493479398.0,40.4691359633957,-79.9273671303689,0.0,0.011688232421875,-0.946334838867188,0.251693725585938,-0.0106566391019521,-0.00312202374589989,-0.00116726350578173
1493479398.2,40.4691359633957,-79.9273671303689,0.0,0.0141143798828125,-0.936248779296875,0.2547607421875,-0.0106260127494162,-0.000994956983253603,-0.00223865321232061
1493479398.4,40.4691359633957,-79.9273671303689,0.0,0.014312744140625,-0.944442749023438,0.255218505859375,-0.00855647026631558,-0.00313533955135029,0.000986701183874358
1493479398.6,40.4691359633957,-79.9273671303689,0.0,0.013458251953125,-0.949981689453125,0.248504638671875,-0.00746244369051103,-0.00314279640240251,-0.00113450662437376
1493479398.8,40.4691359633957,-79.9273671303689,0.0,0.0135650634765625,-0.952682495117188,0.25152587890625,-0.0202245779502798,-0.00305997209250104,-0.00233159753436437
1493479399.0,40.4691359633957,-79.9273671303689,0.0,0.0135345458984375,-0.951019287109375,0.252975463867188,-0.0096158757479491,-0.00631994758286704,-0.00114835506204217
1493479399.2,40.4691359633957,-79.9273671303689,0.0,0.013702392578125,-0.941650390625,0.25323486328125,-0.0149075768339366,-0.00203066033118542,-0.00121360250874911
1493479399.4,40.4691359633957,-79.9273671303689,0.0,0.0122222900390625,-0.946075439453125,0.256881713867188,-4.66053190763867e-05,-0.00425439984140158,0.00107671602871904
1493479399.6,40.4691359633957,-79.9273671303689,0.0,0.0130767822265625,-0.945571899414062,0.2587890625,-0.0128233869648405,-0.00417130921539111,0.000945688503087137
1493479399.8,40.4691359633957,-79.9273671303689,0.0,0.0118408203125,-0.941116333007812,0.258636474609375,-0.014923555800477,-0.00415799340994071,-0.00120827618656895
1493479400.0,40.4691359633957,-79.9273671303689,0.0,0.0172882080078125,-0.941726684570312,0.250778198242188,-0.0159869560237457,-0.00202346979624221,-0.000158458084859715
1493479400.2,40.4691359633957,-79.9273671303689,0.0,0.0107421875,-0.941192626953125,0.259109497070312,-0.0181563670477242,-0.00732795405546203,-0.000166980200347968
1493479400.4,40.4691359633957,-79.9273671303689,0.0,0.015716552734375,-0.9403076171875,0.257415771484375,-0.0138881187686542,-0.0041643849965569,0.000934769542617813
1493479400.6,40.4691359633957,-79.9273671303689,0.0,0.0125274658203125,-0.9412841796875,0.257766723632812,-0.0138867871881092,-0.0020367856016926,0.00199550660479637
1493479400.8,40.4691359633957,-79.9273671303689,0.0,0.0142059326171875,-0.938720703125,0.259063720703125,-0.00852717549432471,-0.0031358721835683,-0.00114542558484308
1493479401.0,40.4691359633957,-79.9273671303689,0.0,0.015380859375,-0.946334838867188,0.25360107421875,-0.0138881187686542,-0.0041643849965569,0.000934769542617813
1493479401.2,40.4691359633957,-79.9273671303689,0.0,0.0143890380859375,-0.946884155273438,0.256027221679688,-0.0117360182917612,-0.00311483321095668,-0.000112119081892336
1493479401.4,40.4691359633957,-79.9273671303689,0.0,0.0146026611328125,-0.943008422851562,0.25946044921875,-0.0085870966188515,-0.00526240631399657,0.00205809089041324
1493479401.6,40.4691359633957,-79.9273671303689,0.0,0.014862060546875,-0.94085693359375,0.259017944335938,-0.00855780184686062,-0.00526293894621459,-7.40358783042028e-05
1493479401.8,40.4691359633957,-79.9273671303689,0.0,0.015167236328125,-0.95233154296875,0.261032104492188,-0.0128779817671872,-0.00948937559617034,0.00202506769289625
1493479402.0,40.4691359633957,-79.9273671303689,0.0,0.008575439453125,-0.939895629882812,0.266021728515625,-0.0117200393252207,-0.000987500132201381,-0.000117445404072494
1493479402.2,40.4691359633957,-79.9273671303689,0.0,0.0180511474609375,-0.94842529296875,0.257431030273438,-0.0107445234179247,-0.00312042584924584,0.00522911680037058
1493479402.4,40.4691359633957,-79.9273671303689,0.0,0.011383056640625,-0.950439453125,0.25408935546875,-0.0107165602264789,-0.00524855787632816,0.00203625296947459
1493479402.6,40.4691359633957,-79.9273671303689,0.0,0.0125885009765625,-0.94659423828125,0.259902954101562,-0.0054008906906807,-0.00634684550987684,0.00209351093291129
1493479402.8,40.4691359633957,-79.9273671303689,0.0,0.01123046875,-0.943695068359375,0.256622314453125,-0.00321150595852655,-0.00423415981711698,-0.00108816762140638
1493479403.0,40.4691359633957,-79.9273671303689,0.0,0.01666259765625,-0.948043823242188,0.252471923828125,-0.00531833269688824,-0.00315691115617993,-0.00217873208779382
1493479403.2,40.4691359633957,-79.9273671303689,0.0,0.01934814453125,-0.945632934570312,0.264144897460938,-0.00959856520086359,-0.00206501510924744,-9.29443220437654e-05
1493479403.4,40.4691359633957,-79.9273671303689,0.0,0.0120697021484375,-0.944229125976562,0.252716064453125,-0.00749307004304694,-0.0052698631650488,-6.31169178348779e-05
1493479403.6,40.4691359633957,-79.9273671303689,0.0,0.0121002197265625,-0.945175170898438,0.257369995117188,-0.00751570691231262,-0.00633326338831744,0.00100560962761392
1493479403.8,40.4691359633957,-79.9273671303689,0.0,0.0125732421875,-0.943374633789062,0.2567138671875,-0.00534096956615391,-0.00422031137944857,-0.00111000554234503
1493479404.0,40.4691359633957,-79.9273671303689,0.0,0.014739990234375,-0.942764282226562,0.256454467773438,-0.0096291915533995,-0.00419208187189373,0.000978445384495112
1493479404.2,40.4691359633957,-79.9273671303689,0.0,0.016937255859375,-0.942901611328125,0.256103515625,-0.00537958540196006,-0.0074110446814725,-3.59526747160697e-05
1493479404.4,40.4691359633957,-79.9273671303689,0.0,0.007049560546875,-0.946563720703125,0.256393432617188,-0.0117812920302925,-0.00524163365749396,0.00202533400900526
1493479404.6,40.4691359633957,-79.9273671303689,0.0,0.0139007568359375,-0.946182250976562,0.260574340820312,-0.010687265454488,-0.00524909050854618,-9.58737992428526e-05
1493479404.8,40.4691359633957,-79.9273671303689,0.0,0.010498046875,-0.946441650390625,0.260574340820312,-0.00856579133013086,-0.00632660548559224,-7.13727172141236e-05
1493479405.0,40.4691359633957,-79.9273671303689,0.0,0.01171875,-0.945755004882812,0.25311279296875,-0.0159723086377502,-0.00202373611235121,-0.00122452146921843
1493479405.2,40.4691359633957,-79.9273671303689,0.0,0.01409912109375,-0.942031860351562,0.261871337890625,-0.00962120207012926,-0.00312841533251608,0.000975782223405033
1493479405.4,40.4691359633957,-79.9273671303689,0.0,0.011444091796875,-0.9393310546875,0.2557373046875,-0.017074324696825,-0.00307994580067664,0.000899349500119759
1493479405.6,40.4691359633957,-79.9273671303689,0.0,0.01763916015625,-0.948486328125,0.262222290039062,-0.0117280288084909,-0.00205116667157903,-0.000114782242982415
1493479405.8,40.4691359633957,-79.9273671303689,0.0,0.0135345458984375,-0.945755004882812,0.261016845703125,-0.00956128094560248,-0.00100188120208781,-0.00222773425185128
1493479406.0,40.4691359633957,-79.9273671303689,0.0,0.0174102783203125,-0.942855834960938,0.257034301757812,-0.00854182288032015,-0.0031356058674593,-7.93622004843613e-05
1493479406.2,40.4691359633957,-79.9273671303689,0.0,0.0093994140625,-0.941665649414062,0.261581420898438,-0.00959989678140863,-0.00419261450411174,-0.00115368138422233
1493479406.4,40.4691359633957,-79.9273671303689,0.0,0.01287841796875,-0.941085815429688,0.25628662109375,-0.00749173846250191,-0.00314226377018449,0.000997620144343683
1493479406.6,40.4691359633957,-79.9273671303689,0.0,0.0155029296875,-0.943191528320312,0.254638671875,-0.0106340022326864,-0.00205862352263125,-0.00223599005123053
1493479406.8,40.4691359633957,-79.9273671303689,0.0,0.0153656005859375,-0.942779541015625,0.26043701171875,-0.0106712864879475,-0.00312175742979088,-0.000101200121423011
1493479407.0,40.4691359633957,-79.9273671303689,0.0,0.0139312744140625,-0.941299438476562,0.253555297851562,-0.00853383339704991,-0.00207193932808165,-8.20253615744405e-05
1493479407.2,40.4691359633957,-79.9273671303689,0.0,0.0125579833984375,-0.943878173828125,0.259674072265625,-0.00749307004304694,-0.0052698631650488,-6.31169178348779e-05
1493479407.4,40.4691359633957,-79.9273671303689,0.0,0.0119781494140625,-0.940216064453125,0.262588500976562,-0.0149155663172068,-0.00309432687056307,-0.00121093934765903
1493479407.6,40.4691359633957,-79.9273671303689,0.0,0.0157012939453125,-0.93988037109375,0.256820678710938,-0.00857910713558126,-0.00419873977461893,0.00205542772932316
1493479407.8,40.4691359633957,-79.9273671303689,0.0,0.010589599609375,-0.94171142578125,0.259796142578125,-0.0117426761944864,-0.00205090035547002,0.000951281141376304
1493479408.0,40.4691359633957,-79.9273671303689,0.0,0.012451171875,-0.942550659179688,0.2596435546875,-0.00855647026631558,-0.00313533955135029,0.000986701183874358
1493479408.2,40.4691359633957,-79.9273671303689,0.0,0.013397216796875,-0.942581176757812,0.258438110351562,-0.00638306450070192,-0.00314998693734572,-0.00218965104826315
1493479408.4,40.4691359633957,-79.9273671303689,0.0,0.0160064697265625,-0.938034057617188,0.256561279296875,-0.0128087395788451,-0.00417157553150012,-0.000120374881271582
1493479408.6,40.4691359633957,-79.9273671303689,0.0,0.0109405517578125,-0.944747924804688,0.261337280273438,-0.0106273443299612,-0.00312255637811791,-0.00329939027449917
1493479408.8,40.4691359633957,-79.9273671303689,0.0,0.011962890625,-0.947128295898438,0.258956909179688,-0.00642833823923327,-0.005276787383883,-5.21979573655531e-05
1493479409.0,40.4691359633957,-79.9273671303689,0.0,0.0116424560546875,-0.942291259765625,0.2584228515625,-0.00746244369051103,-0.00314279640240251,-0.00113450662437376
1493479409.2,40.4691359633957,-79.9273671303689,0.0,0.015106201171875,-0.93994140625,0.259658813476562,-0.00323281124724719,-0.00316996064552132,0.00104129598622098
1493479409.4,40.4691359633957,-79.9273671303689,0.0,0.01434326171875,-0.945037841796875,0.26019287109375,-0.00638306450070192,-0.00314998693734572,-0.00218965104826315
1493479409.6,40.4691359633957,-79.9273671303689,0.0,0.013275146484375,-0.940994262695312,0.259033203125,-0.012838034350836,-0.0041710428992821,0.00201175188744586
1493479409.8,40.4691359633957,-79.9273671303689,0.0,0.0134124755859375,-0.9425048828125,0.258285522460938,-0.0128473554146513,-0.00736230883352405,0.000953677986357375
1493479410.0,40.4691359633957,-79.9273671303689,0.0,0.009613037109375,-0.947845458984375,0.254241943359375,-0.00854315446086519,-0.0052632052623236,-0.00114009926266292
1493479410.2,40.4691359633957,-79.9273671303689,0.0,0.0162353515625,-0.940841674804688,0.256851196289062,-0.0138574924161183,-0.00203731823391062,-0.000136620163921065
1493479410.4,40.4691359633957,-79.9273671303689,0.0,0.0480499267578125,-0.94134521484375,0.244155883789062,-0.0157659136532691,0.0118020646867952,-0.0087215862539005
1493479410.6,40.4691359633957,-79.9273671303689,0.0,0.03094482421875,-0.92449951171875,0.279388427734375,0.00207486880528073,-0.00533191481844764,0.00110121711074776
1493479410.8,40.4691359633957,-79.9273671303689,0.0,0.009368896484375,-0.94671630859375,0.293716430664062,-0.00740119098543921,0.00111133712289007,-0.00327728603745151
1493479411.0,40.4691359633957,-79.9273671303689,0.0,0.0175628662109375,-0.937911987304688,0.279098510742188,-0.00742382785470488,4.79368996214263e-05,-0.00220855949200271
1493479411.2,40.4691359633957,-79.9273671303689,0.0,0.026611328125,-0.932144165039062,0.29095458984375,-0.00314226377018449,0.00108364024755324,-0.00323361019557421
1493479411.4,40.4691359633957,-79.9273671303689,0.0,0.02081298828125,-0.90997314453125,0.343368530273438,-0.00437477472267316,-0.00954450303073498,0.00317848276100957
1493479411.6,40.4691359633957,-79.9273671303689,0.0,0.019195556640625,-0.902816772460938,0.343658447265625,-0.00532499059961344,-0.00209297830069327,-0.00111533186452518
1493479411.8,40.4691359633957,-79.9273671303689,0.0,0.0105133056640625,-0.902984619140625,0.385894775390625,-0.0149821453444588,-0.00415692814550468,0.00305597735086593
1493479412.0,40.4691359633957,-79.9273671303689,0.0,0.0288848876953125,-0.891647338867188,0.442367553710938,-0.00531300637470808,-0.00634844340653089,-0.00430286937324102
1493479412.2,40.4691359633957,-79.9273671303689,0.0,0.023956298828125,-0.88763427734375,0.439346313476562,-0.0138441766106679,-0.00416518394488393,-0.00226342061045834
1493479412.4,40.4691229714458,-79.9273736682534,0.879999995231628,0.0377044677734375,-0.881988525390625,0.431854248046875,-0.00733194879709715,0.00642913718756029,-0.00542272861161934
1493479412.6,40.4691229714458,-79.9273736682534,0.879999995231628,0.0314788818359375,-0.88775634765625,0.439727783203125,-0.0053170011163432,-0.00102931176131563,-0.00111799502561526
1493479412.8,40.4691229714458,-79.9273736682534,0.879999995231628,0.0063018798828125,-0.933395385742188,0.42108154296875,0.046717704474388,-0.021578529048476,-0.00159842928626556
1493479413.0,40.4691229714458,-79.9273736682534,0.879999995231628,0.0319366455078125,-0.900161743164062,0.449569702148438,-0.00478436889832735,0.0308753580978336,-0.022519157545492
1493479413.2,40.4691065848251,-79.9273811281472,2.50999999046326,-0.0006866455078125,-0.849899291992188,0.470123291015625,0.00415825972604972,0.0542161008396151,-0.0406134729398174
1493479413.4,40.4691065848251,-79.9273811281472,2.50999999046326,0.0949249267578125,-0.889663696289062,0.47637939453125,-0.0371465698327522,0.0661840804623222,-0.0506631776293404
1493479413.6,40.4691065848251,-79.9273811281472,2.50999999046326,0.0379486083984375,-0.892181396484375,0.473358154296875,0.000132625422285946,-0.0616910613872495,0.0342794106031729
1493479413.8,40.4691065848251,-79.9273811281472,2.50999999046326,-0.0085601806640625,-0.886566162109375,0.492721557617188,0.0649060294551932,-0.0216978386653116,-0.00780918726443935
1493479414.0,40.4691065848251,-79.9273811281472,2.50999999046326,0.0606842041015625,-0.875595092773438,0.423690795898438,-0.0551135861269718,-0.0453760039172061,0.0336716772424168
1493479414.2,40.4690750688691,-79.9273956288397,4.38000011444092,0.0800628662109375,-0.881683349609375,0.447784423828125,-0.00547226340789482,0.0595983494026653,-0.0343286790833394
1493479414.4,40.4690750688691,-79.9273956288397,4.38000011444092,-0.0395965576171875,-0.902450561523438,0.431930541992188,0.0104036387983945,-0.0266601067244562,0.00337395878502139
1493479414.6,40.4690750688691,-79.9273956288397,4.38000011444092,0.04522705078125,-0.902755737304688,0.407241821289062,-0.021376661437848,0.0724667437899281,-0.0323922946547428
1493479414.8,40.4690750688691,-79.9273956288397,4.38000011444092,0.0785675048828125,-0.88214111328125,0.482635498046875,-0.0455935841782656,-0.0518200548068708,0.03485199023754
1493479415.0,40.4690750688691,-79.9273956288397,4.38000011444092,-0.008087158203125,-0.847381591796875,0.434585571289062,-0.0454878566829894,0.0162495437072275,-0.0133022233288368
1493479415.2,40.4690241068978,-79.9274164159595,5.98999977111816,0.0340423583984375,-0.875259399414062,0.395095825195312,-0.0577045755515099,-0.029409021601636,-0.00158111873918004
1493479415.4,40.4690241068978,-79.9274164159595,5.98999977111816,0.04913330078125,-0.879287719726562,0.401412963867188,-0.00899802237505072,0.0447317852495159,-0.0183332009441055
1493479415.6,40.4690241068978,-79.9274164159595,5.98999977111816,-0.0042266845703125,-0.9210205078125,0.442947387695312,-0.0390728342492066,0.000250337142467448,-0.0238573959932568
1493479415.8,40.4690241068978,-79.9274164159595,5.98999977111816,0.032135009765625,-0.917724609375,0.331008911132812,-0.0783059907960359,-0.0377812011205181,0.0206200573721565
1493479416.0,40.4690241068978,-79.9274164159595,5.98999977111816,0.022796630859375,-0.909805297851562,0.336929321289062,-0.0187936614965802,0.0203303054455559,-0.0162380921145401
1493479416.2,40.4689755274336,-79.9274582977764,7.28000020980835,0.0539398193359375,-0.962493896484375,0.27838134765625,-0.0359737136886813,-0.050819238869219,0.0328154709519564
1493479416.4,40.4689755274336,-79.9274582977764,7.28000020980835,0.0242919921875,-0.865631103515625,0.371673583984375,-0.00205223193601506,0.00639531504171628,-0.00216994365619656
1493479416.6,40.4689755274336,-79.9274582977764,7.28000020980835,0.0154876708984375,-0.875656127929688,0.386398315429688,0.0323728535787852,0.00511593245404222,0.0493640876495997
1493479416.8,40.4689755274336,-79.9274582977764,7.28000020980835,0.05389404296875,-1.00714111328125,0.4454345703125,0.0240613941327569,0.00729519717405406,0.0354125856470016
1493479417.0,40.4689755274336,-79.9274582977764,7.28000020980835,-0.037750244140625,-0.88250732421875,0.327133178710938,0.00847737438194023,-0.0691899903846946,0.0429139114894278
1493479417.2,40.4689755274336,-79.9274582977764,7.28000020980835,-0.10784912109375,-0.88623046875,0.334823608398438,0.0191204313623329,0.0732667573813879,-0.034112164086716
1493479417.4,40.4688983409829,-79.9274941375361,8.28999996185303,0.0094451904296875,-0.920639038085938,0.374588012695312,-0.0448886454377216,0.0375148850115102,-0.0453373880813999
1493479417.6,40.4688983409829,-79.9274941375361,8.28999996185303,-0.03778076171875,-0.983367919921875,0.371917724609375,-0.000201068662300982,-0.0170173330494973,0.00537292749923486
1493479417.8,40.4688983409829,-79.9274941375361,8.28999996185303,-0.0162200927734375,-0.964004516601562,0.3116455078125,-0.0161174509171595,0.00010652644360317,0.0104968494365473
1493479418.0,40.4688983409829,-79.9274941375361,8.28999996185303,0.0270538330078125,-0.87457275390625,0.33258056640625,-0.00402456903932774,2.34358175926973e-05,-0.0171006899916168
1493479418.2,40.4688983409829,-79.9274941375361,8.28999996185303,-0.0881805419921875,-0.884658813476562,0.349197387695312,0.0239660529657321,0.0232416731492305,-0.0264699570226246
1493479418.4,40.4688252450936,-79.9275280779374,9.10999965667725,-0.007904052734375,-0.904983520507812,0.338760375976562,0.0420712873205268,-0.0438838347584347,0.0144047720201296
1493479418.6,40.4688252450936,-79.9275280779374,9.10999965667725,0.0008087158203125,-0.919235229492188,0.367218017578125,-0.0243862997857466,-0.0115445370093845,-0.0140806653154669
1493479418.8,40.4688252450936,-79.9275280779374,9.10999965667725,-0.0566253662109375,-0.903411865234375,0.3563232421875,-0.0569447756925103,-0.0485590140520688,0.0102044343488566
1493479419.0,40.4688252450936,-79.9275280779374,9.10999965667725,-0.0198211669921875,-0.90740966796875,0.299713134765625,-0.0294915795954285,-0.0253434398815211,-0.0375540334795344
1493479419.2,40.4688252450936,-79.9275280779374,9.10999965667725,-0.0240325927734375,-0.994949340820312,0.3260498046875,0.0400829712506736,-0.0289791874016972,0.0122135230752124
1493479419.4,40.4687732749248,-79.9275522090944,10.25,0.049041748046875,-0.92242431640625,0.344039916992188,-0.0250994943256698,0.0469656447718744,-0.00784167782973832
1493479419.6,40.4687732749248,-79.9275522090944,10.25,-0.0569915771484375,-0.911376953125,0.3375244140625,0.0468103824803228,-0.0651840634729974,0.0454284681906807
1493479419.8,40.4687732749248,-79.9275522090944,10.25,-0.0776519775390625,-0.922653198242188,0.340042114257812,-0.0331411755532731,-0.0508458704801198,-0.0183337335763235
1493479420.0,40.4687732749248,-79.9275522090944,10.25,-0.0414581298828125,-0.994522094726562,0.31378173828125,0.0709628567223604,-0.0366267207879688,0.00828456151901849
1493479420.2,40.4687732749248,-79.9275522090944,10.25,0.0217132568359375,-0.926544189453125,0.327621459960938,-0.00730931192783148,-0.00420939241897924,-0.0128585406912296
1493479420.4,40.4686445810679,-79.9276217282339,11.0200004577637,0.0533294677734375,-0.928848266601562,0.31982421875,-0.0116015286567122,-0.0105639610960173,-0.0139523009509251
1493479420.6,40.4686445810679,-79.9276217282339,11.0200004577637,-0.003509521484375,-0.953689575195312,0.303421020507812,0.0296966429993646,-0.0448718675228541,-0.0155733671064564
1493479420.8,40.4686445810679,-79.9276217282339,11.0200004577637,0.015716552734375,-0.916259765625,0.38348388671875,0.0131594778944085,0.0775557783169605,-0.0629720418715776
1493479421.0,40.4686445810679,-79.9276217282339,11.0200004577637,0.0624542236328125,-0.864242553710938,0.3094482421875,-0.024937574131393,-0.0147259492475931,0.0243056060047172
1493479421.2,40.468553721582,-79.9276709063058,11.710000038147,0.0362091064453125,-0.933990478515625,0.29302978515625,-0.0723924415955149,0.00366211281496796,0.00031558458917439
1493479421.4,40.468553721582,-79.9276709063058,11.710000038147,0.0063934326171875,-0.886764526367188,0.277572631835938,0.0337877910659443,-0.032130772235697,0.00362749172079693
1493479421.6,40.468553721582,-79.9276709063058,11.710000038147,-0.03173828125,-0.901641845703125,0.276031494140625,-0.0311129120670687,-0.0253263956505445,0.00294545616562764
1493479421.8,40.468553721582,-79.9276709063058,11.710000038147,-0.030548095703125,-0.902435302734375,0.2763671875,-0.021611552245993,-0.026451048578885,0.00837670689273524
1493479422.0,40.468553721582,-79.9276709063058,11.710000038147,-0.0295562744140625,-0.95111083984375,0.275711059570312,-0.000104395914731106,-0.0776439289490422,0.0428478650943939
1493479422.2,40.468553721582,-79.9276709063058,11.710000038147,-0.0724945068359375,-0.935836791992188,0.328292846679688,-0.0437077998103805,-0.0667228379508452,0.0445056828729682
1493479422.4,40.4684515205483,-79.927726701591,12.0900001525879,-0.03973388671875,-0.883743286132812,0.266265869140625,-0.0239340950326511,-0.0423908666513363,0.0137251333099414
1493479422.6,40.4684515205483,-79.927726701591,12.0900001525879,0.0336456298828125,-0.980133056640625,0.197769165039062,-0.00726723398260823,-0.046750195039687,0.0384299471620614
1493479422.8,40.4684515205483,-79.927726701591,12.0900001525879,0.0136566162109375,-0.911529541015625,0.294723510742188,-0.0188154994175188,-0.00731596983055667,0.0478058720957944
1493479423.0,40.4684515205483,-79.927726701591,12.0900001525879,-0.0645599365234375,-0.905685424804688,0.330856323242188,-0.0142897234610382,0.0373191426713894,-0.0247655339249739
1493479423.2,40.4683477081327,-79.9277848711053,12.289999961853,-0.048004150390625,-0.906173706054688,0.301986694335938,-0.0545276906871544,0.00142106275766628,0.0164974840047139
1493479423.4,40.4683477081327,-79.9277848711053,12.289999961853,0.103988647460938,-1.14244079589844,0.118438720703125,0.173924659206459,-0.276612955046606,0.134705084781189
1493479423.6,40.4683477081327,-79.9277848711053,12.289999961853,0.0254364013671875,-0.934188842773438,0.409896850585938,-0.0956684695228075,0.206962504109437,-0.132657912851245
1493479423.8,40.4683477081327,-79.9277848711053,12.289999961853,0.412384033203125,-1.07084655761719,0.181106567382812,0.0086813725214403,-0.17342238702487,0.126349683177174
1493479424.0,40.4683477081327,-79.9277848711053,12.289999961853,0.15460205078125,-0.958053588867188,0.30889892578125,0.0286987565389119,-0.157605340678671,0.073203107831335
1493479424.2,40.4683477081327,-79.9277848711053,12.289999961853,0.13128662109375,-0.917755126953125,0.22412109375,0.00258885889566603,0.0435940828318341,-0.00968192214298307
1493479424.4,40.4682521146443,-79.927838435284,12.4700002670288,-0.0547332763671875,-0.934005737304688,0.235885620117188,-0.0609027657045861,-0.000665257640301794,0.0143051697953606
1493479424.6,40.4682521146443,-79.927838435284,12.4700002670288,0.05224609375,-0.923141479492188,0.263687133789062,0.000859668399877578,0.0351025936961164,0.0340370629439757
1493479424.8,40.4682521146443,-79.927838435284,12.4700002670288,-0.0706939697265625,-0.888839721679688,0.293243408203125,-0.0851449884753594,-0.106866795590482,0.0932308781770579
1493479425.0,40.4682521146443,-79.927838435284,12.4700002670288,0.112762451171875,-0.971359252929688,0.257614135742188,-0.0380190214058622,0.132131405903736,-0.106285427524517
1493479425.2,40.4682521146443,-79.927838435284,12.4700002670288,0.016204833984375,-0.850845336914062,0.274169921875,-0.0515691850321854,-0.0124249780657647,0.0261594324395213
1493479425.4,40.4681630374643,-79.9278883481606,12.5100002288818,0.0683441162109375,-0.969024658203125,0.312454223632812,0.0526733316201322,-0.046079877393314,0.0166514147157204
1493479425.6,40.4681630374643,-79.9278883481606,12.5100002288818,0.166671752929688,-0.93157958984375,0.298446655273438,-0.0483502222226066,0.1970749859303,-0.171597855362057
1493479425.8,40.4681630374643,-79.9278883481606,12.5100002288818,0.227874755859375,-0.954940795898438,0.224349975585938,0.00232760279272925,0.161657073961118,-0.0814256176969547
1493479426.0,40.4681630374643,-79.9278883481606,12.5100002288818,-0.064300537109375,-0.907989501953125,0.284103393554688,0.00603472303011955,0.00101626227197424,-0.051119110807962
1493479426.2,40.4681630374643,-79.9278883481606,12.5100002288818,0.04864501953125,-0.828125,0.26971435546875,-0.0522179310737287,0.0247953613291827,-0.0613728136369851
1493479426.4,40.4680489295785,-79.9279553557278,12.539999961853,0.014251708984375,-0.922042846679688,0.277633666992188,-0.0420252146336684,-0.0273799591671046,0.0209646704172128
1493479426.6,40.4680489295785,-79.9279553557278,12.539999961853,0.08074951171875,-0.952682495117188,0.237655639648438,-0.0637414291105015,-0.0176719380454388,-0.0208650681924438
1493479426.8,40.4680489295785,-79.9279553557278,12.539999961853,0.0110015869140625,-0.947418212890625,0.3336181640625,-0.0152391403896514,-0.0169179971408374,0.0148146325118928
1493479427.0,40.4680489295785,-79.9279553557278,12.539999961853,0.0552825927734375,-0.931350708007812,0.21942138671875,0.0218014356317157,-0.00226288797824033,0.0396789697133086
1493479427.2,40.4680489295785,-79.9279553557278,12.539999961853,0.0393829345703125,-0.920562744140625,0.2646484375,0.0588025968689496,0.0474862927649849,0.00900920765162905
1493479427.4,40.4679374550425,-79.9280209484501,12.9300003051758,-0.166290283203125,-1.05941772460938,0.274246215820312,0.0493813981966853,-0.12476696654134,0.0584031227054377
1493479427.6,40.4679374550425,-79.9280209484501,12.9300003051758,0.077239990234375,-1.00083923339844,0.221710205078125,0.05982525072754,0.0549143816774339,-0.061369617843677
1493479427.8,40.4679374550425,-79.9280209484501,12.9300003051758,-0.0086212158203125,-1.03781127929688,0.269332885742188,0.00393535314281009,-0.00214943731580295,0.0224363332355906
1493479428.0,40.4679374550425,-79.9280209484501,12.9300003051758,-0.0824127197265625,-0.814041137695312,0.334671020507812,0.0720427685443875,0.0973939315930698,0.00261868629987492
1493479428.2,40.4679374550425,-79.9280209484501,12.9300003051758,0.034820556640625,-0.824234008789062,0.296173095703125,-0.014117150622401,0.0277541333002608,0.0349689030093944
1493479428.4,40.4678248546766,-79.9280872036218,13.2200002670288,0.0545654296875,-0.772811889648438,0.275344848632812,-0.236239965553223,0.0111091101711565,-0.00671223121143571
1493479428.6,40.4678248546766,-79.9280872036218,13.2200002670288,-0.116867065429688,-0.837493896484375,0.299362182617188,-0.0794988206482824,-0.232412204118452,0.156519303586137
1493479428.8,40.4678248546766,-79.9280872036218,13.2200002670288,-0.03570556640625,-0.819259643554688,0.271392822265625,-0.0946008082417947,0.0740039203711219,-0.0502053802379558
1493479429.0,40.4678248546766,-79.9280872036218,13.2200002670288,-0.14111328125,-0.932601928710938,0.272216796875,0.054076817514604,0.043254796108958,-0.0368754600337822
1493479429.2,40.4678248546766,-79.9280872036218,13.2200002670288,-0.00921630859375,-0.9892578125,0.249832153320312,0.0970525143413216,-0.0389178382737639,0.0458750803054869
1493479429.4,40.4677248723745,-79.928147731124,13.5,0.0094146728515625,-1.04248046875,0.311279296875,0.0536440538374661,0.00709306324731704,-0.0250582153287736
1493479429.6,40.4677248723745,-79.928147731124,13.5,-0.0672760009765625,-0.920303344726562,0.329376220703125,0.0401514144906886,0.00292148771581692,-0.0529071571638412
1493479429.8,40.4677248723745,-79.928147731124,13.5,-0.0578765869140625,-0.868011474609375,0.276092529296875,-0.0308633738729283,0.0501872707425432,-0.051623779834532
1493479430.0,40.4677248723745,-79.928147731124,13.5,0.152114868164062,-0.936416625976562,0.172332763671875,-0.0311408752585145,-0.0231982636234622,0.00613831999652364
1493479430.2,40.4677248723745,-79.928147731124,13.5,-0.208404541015625,-0.913406372070312,0.442062377929688,-0.00778708302739169,0.12341940702976,-0.141138483026493
1493479430.4,40.4676347127372,-79.9282042927332,13.6599998474121,0.0211181640625,-0.98406982421875,0.294525146484375,0.0247974918580548,0.115765748372981,-0.114129768515346
1493479430.6,40.4676347127372,-79.9282042927332,13.6599998474121,-0.0449981689453125,-0.976715087890625,0.347564697265625,-0.024064589926065,-0.0402608704114909,0.0243804408313484
1493479430.8,40.4676347127372,-79.9282042927332,13.6599998474121,0.0670928955078125,-0.981704711914062,0.333297729492188,-0.0210584136875836,0.0426742269913207,-0.0717620713654932
1493479431.0,40.4676347127372,-79.9282042927332,13.6599998474121,0.09161376953125,-0.917770385742188,0.298248291015625,-0.046179745934192,0.0385897368274662,-0.0282939560532198
1493479431.2,40.4676347127372,-79.9282042927332,13.6599998474121,0.179733276367188,-0.952896118164062,0.286514282226562,-0.0490527641181695,-0.0656240176850785,0.0465805516782489
1493479431.4,40.4674957142306,-79.928287633619,13.75,0.0,-0.96246337890625,0.324981689453125,-0.005948969243019,0.0468412751489677,-0.00657907315693175
1493479431.6,40.4674957142306,-79.928287633619,13.75,0.152145385742188,-0.983779907226562,0.226821899414062,0.0155999987173572,0.0318048013182713,-0.0329749943012521
1493479431.8,40.4674957142306,-79.928287633619,13.75,-0.0030517578125,-0.921783447265625,0.353256225585938,0.0229655033441893,-0.117150858455932,0.0474508727224868
1493479432.0,40.4674957142306,-79.928287633619,13.75,0.0656585693359375,-0.924972534179688,0.2091064453125,-0.0207745207153811,-0.0041137849358454,0.0371154108479983
1493479432.2,40.4674957142306,-79.928287633619,13.75,0.037109375,-0.922592163085938,0.287673950195312,0.00194357496353983,0.0233809564742417,-0.0512187130327309
1493479432.4,40.4673908816098,-79.9283504691499,13.8999996185303,0.0096435546875,-0.885772705078125,0.179962158203125,-0.0776833437331753,-0.0537372644756189,0.0441243182048688
1493479432.6,40.4673908816098,-79.9283504691499,13.8999996185303,-0.010528564453125,-0.904098510742188,0.233245849609375,-0.0348565176113931,0.00235103861032195,-0.0195547929361248
1493479432.8,40.4673908816098,-79.9283504691499,13.8999996185303,-0.088592529296875,-0.982070922851562,0.309982299804688,-0.00942545973000844,0.00537852013752403,-0.00864009352454407
1493479433.0,40.4673908816098,-79.9283504691499,13.8999996185303,0.0178375244140625,-0.975189208984375,0.22821044921875,0.000950215876940272,-0.0191534545598499,-0.00207327090862669
1493479433.2,40.4673908816098,-79.9283504691499,13.8999996185303,-0.0715179443359375,-0.975173950195312,0.231857299804688,0.0127482858221003,-0.0851750821956773,0.0334029642884279
1493479433.4,40.4672702764389,-79.9284227585755,14.0900001525879,0.0577545166015625,-0.917160034179688,0.310455322265625,-0.0575794069802762,0.0184602337281023,0.0153560531615059
1493479433.6,40.4672702764389,-79.9284227585755,14.0900001525879,-0.01177978515625,-0.963272094726562,0.2781982421875,-0.0429482662674899,0.0513340279079314,-0.0240289035674579
1493479433.8,40.4672702764389,-79.9284227585755,14.0900001525879,0.145843505859375,-0.903228759765625,0.24981689453125,0.0256028317716948,0.00834341737910924,0.00130681314690188
1493479434.0,40.4672702764389,-79.9284227585755,14.0900001525879,-0.117660522460938,-0.913528442382812,0.348968505859375,0.00512685141451154,-0.11277022477886,0.108031129619064
1493479434.2,40.4672702764389,-79.9284227585755,14.0900001525879,0.09478759765625,-0.930557250976562,0.25469970703125,-0.0307102421102487,0.107630323875007,-0.0315123862305806
1493479434.4,40.4671542998792,-79.928492596343,14.1499996185303,0.046844482421875,-0.905532836914062,0.328872680664062,-0.116711703192178,0.0688381868046952,0.00609091572912023
1493479434.6,40.4671542998792,-79.928492596343,14.1499996185303,-0.0207977294921875,-0.958160400390625,0.253631591796875,-0.00252627461004917,-0.0372123499116772,0.00859987979208388
1493479434.8,40.4671542998792,-79.928492596343,14.1499996185303,0.0021514892578125,-0.931961059570312,0.282989501953125,-0.110582970575578,-0.00672927544241222,-0.0160418171422013
1493479435.0,40.4671542998792,-79.928492596343,14.1499996185303,-0.0052032470703125,-0.938873291015625,0.3697509765625,-0.0643433035168594,-0.00808668865002561,0.0281498790382466
1493479435.2,40.4671542998792,-79.928492596343,14.1499996185303,-0.0179443359375,-0.927169799804688,0.279281616210938,0.0127453563449012,0.0243727176641872,-0.061772820432715
1493479435.4,40.4670592798286,-79.9285498670516,14.1499996185303,0.0262908935546875,-0.982589721679688,0.226348876953125,0.0239500739991916,0.00941241024066705,-0.0328317162346059
1493479435.6,40.4670592798286,-79.9285498670516,14.1499996185303,0.026763916015625,-0.9495849609375,0.227645874023438,-0.0577218860985954,-0.0219620242454474,0.003730556054983
1493479435.8,40.4670592798286,-79.9285498670516,14.1499996185303,0.134201049804688,-0.897430419921875,0.110214233398438,-0.0175931084771725,0.0267037825663335,-0.0226395324267636
1493479436.0,40.4670592798286,-79.9285498670516,14.1499996185303,-0.0438079833984375,-0.9569091796875,0.272308349609375,-0.00598865034326118,-0.0839819860273218,0.0801214677111429
1493479436.2,40.4670592798286,-79.9285498670516,14.1499996185303,-0.100479125976562,-0.7432861328125,0.308670043945312,0.0155707039453663,0.0435072637802975,-0.0244757819983732
1493479436.4,40.4669276729034,-79.928630133179,13.8800001144409,0.0218505859375,-0.864089965820312,0.109848022460938,-0.0722816540941676,-0.0856752238483941,0.0986389594026818
1493479436.6,40.4669276729034,-79.928630133179,13.8800001144409,-0.03411865234375,-1.0029296875,0.231414794921875,0.0210674684352898,0.0977238972521306,-0.00749999426188115
1493479436.8,40.4669276729034,-79.928630133179,13.8800001144409,0.006591796875,-0.916305541992188,0.26190185546875,0.0262214840929202,-0.00229351433077624,0.02799594832724
1493479437.0,40.4669276729034,-79.928630133179,13.8800001144409,0.0561981201171875,-0.9815673828125,0.245132446289062,0.0157432767840034,0.0105383947495526,0.0225244838676722
1493479437.2,40.4669276729034,-79.928630133179,13.8800001144409,0.102737426757812,-0.9266357421875,0.23272705078125,-0.0733847354176785,0.0887602296551419,-0.036165461287167
1493479437.4,40.4668178580567,-79.9286972280971,13.4899997711182,0.0029144287109375,-0.9354248046875,0.275009155273438,-0.0158777664190524,0.0203145927951244,0.0040498690696835
1493479437.6,40.4668178580567,-79.9286972280971,13.4899997711182,-0.0157318115234375,-0.926834106445312,0.248443603515625,-0.0877128083984138,-0.0260201491145102,0.0140961116497894
1493479437.8,40.4668178580567,-79.9286972280971,13.4899997711182,-0.0198822021484375,-0.899765014648438,0.35498046875,-0.0335933803063685,0.00340431882144829,-0.0334053611334089
1493479438.0,40.4668178580567,-79.9286972280971,13.4899997711182,0.0192108154296875,-0.90673828125,0.327850341796875,0.0477384941202154,0.00181920534063313,0.0143448508956028
1493479438.2,40.4667025580289,-79.9287676743633,13.1199998855591,-0.0027923583984375,-0.993026733398438,0.273544311523438,0.0190400038974125,0.0105157578802869,0.0150947970585691
1493479438.4,40.4667025580289,-79.9287676743633,13.1199998855591,0.0510711669921875,-0.976837158203125,0.345932006835938,-0.00417157553150012,-0.06379016495845,0.0363731878521932
1493479438.6,40.4667025580289,-79.9287676743633,13.1199998855591,-0.0867156982421875,-0.93292236328125,0.215301513671875,0.0564475635169925,-0.0716302448915342,0.038080274110934
1493479438.8,40.4667025580289,-79.9287676743633,13.1199998855591,0.04266357421875,-1.02214050292969,0.143386840820312,0.0234304912705171,0.100884803149946,-0.100244579223891
1493479439.0,40.4667025580289,-79.9287676743633,13.1199998855591,0.0070343017578125,-1.01788330078125,0.200851440429688,-0.0285826427153844,0.0416726121053419,0.0102619586284023
1493479439.2,40.4667025580289,-79.9287676743633,13.1199998855591,0.082244873046875,-0.947860717773438,0.235183715820312,-0.029675604026753,0.110802947681619,-0.105078749234602
1493479439.4,40.4666387314631,-79.9288066712597,13.210000038147,0.034454345703125,-0.982986450195312,0.211700439453125,0.0285751858643322,0.0561857747818377,-0.0339712828650508
1493479439.6,40.4666387314631,-79.9288066712597,13.210000038147,0.0361785888671875,-0.934738159179688,0.168487548828125,0.00693780095576542,-0.0394001367471773,0.016165920448999
1493479439.8,40.4666387314631,-79.9288066712597,13.210000038147,-0.08441162109375,-0.932022094726562,0.258346557617188,-0.0533343282026899,-0.0549577912032022,0.0539726879159819
1493479440.0,40.4666387314631,-79.9288066712597,13.210000038147,-0.0354766845703125,-0.863571166992188,0.288589477539062,-0.0953544828302871,0.00486985636931889,-0.0329752606173611
1493479440.2,40.4666387314631,-79.9288066712597,13.210000038147,-0.0146942138671875,-0.97625732421875,0.223602294921875,-0.00536893275759974,-0.0137941091821744,-0.00428422724561047
1493479440.4,40.4664930388045,-79.9288958655967,12.7799997329712,0.0688018798828125,-1.02847290039062,0.143630981445312,0.0280039378105102,-0.0257173476985682,-0.0369644096141908
1493479440.6,40.4664930388045,-79.9288958655967,12.7799997329712,-0.068084716796875,-0.987899780273438,0.07611083984375,-0.0244054745455951,-0.0583394731553848,0.0393506019509018
1493479440.8,40.4664930388045,-79.9288958655967,12.7799997329712,-0.026031494140625,-0.97479248046875,-0.0167694091796875,-0.0285213900103126,-0.0125829035184064,-0.0237162484554826
1493479441.0,40.4664930388045,-79.9288958655967,12.7799997329712,0.013275146484375,-0.990524291992188,-0.0142669677734375,-0.0097836548966241,-0.0286569449097976,-0.0010924286791505
1493479441.2,40.4663968739953,-79.928954740968,11.1199998855591,-0.026275634765625,-0.936431884765625,-0.036773681640625,-0.069302109466587,-0.0101863248534441,0.000382962564753394
1493479441.4,40.4663968739953,-79.928954740968,11.1199998855591,-0.0188446044921875,-1.01100158691406,-0.0239105224609375,-0.0534176851448094,-0.00816099084443882,0.00800386434012414
1493479441.6,40.4663968739953,-79.928954740968,11.1199998855591,0.02337646484375,-0.913055419921875,-0.0305023193359375,-0.0259983111935715,0.00336570298564214,0.033843983764945
1493479441.8,40.4663968739953,-79.928954740968,11.1199998855591,-0.047119140625,-1.06184387207031,0.068115234375,-0.0978887469236065,-0.0100023004221196,-0.0116385465958643
1493479442.0,40.4663968739953,-79.928954740968,11.1199998855591,-0.008697509765625,-1.0291748046875,0.007354736328125,-0.0392605871060571,0.0279128577012295,0.00485707319608652
1493479442.2,40.4663279742069,-79.9289969237651,8.63000011444092,-0.02349853515625,-1.01214599609375,0.075958251953125,-0.0461070416364328,-0.0252278586902116,0.0091889710252094
1493479442.4,40.4663279742069,-79.9289969237651,8.63000011444092,-0.0084991455078125,-1.03976440429688,0.09527587890625,-0.0193728990336724,-0.015828764254995,0.00623978643405565
1493479442.6,40.4663279742069,-79.9289969237651,8.63000011444092,0.0101470947265625,-1.01490783691406,0.076171875,-0.0225718881350756,0.0511998045889914,-0.034482077162128
1493479442.8,40.4663279742069,-79.9289969237651,8.63000011444092,-0.0673828125,-0.920608520507812,0.200942993164062,-0.025275795589833,-0.0519532128613748,0.0286630701803048
1493479443.0,40.4663279742069,-79.9289969237651,8.63000011444092,0.0640869140625,-0.994186401367188,0.18426513671875,0.0519894318521999,0.000727841925918656,0.0143911898985702
1493479443.2,40.4662617731082,-79.9290374543324,6.67999982833862,-0.037445068359375,-0.96868896484375,0.111770629882812,-0.0400749817674034,0.0300428539410749,-0.0122161862363025
1493479443.4,40.4662617731082,-79.9290374543324,6.67999982833862,0.028167724609375,-0.929183959960938,0.222396850585938,0.00692102304089792,0.031863124546144,-0.0213356487570608
1493479443.6,40.4662617731082,-79.9290374543324,6.67999982833862,-0.014556884765625,-1.01202392578125,0.2154541015625,-0.0363207235787187,-0.0391234343099181,-0.0130654683079287
1493479443.8,40.4662617731082,-79.9290374543324,6.67999982833862,-0.0901031494140625,-0.994873046875,0.2525634765625,-0.035524971045003,-0.0359340325884392,0.00825872885644473
1493479444.0,40.4662617731082,-79.9290374543324,6.67999982833862,-0.04876708984375,-0.98675537109375,0.24249267578125,-0.0304995860680235,-0.0327717951100791,0.0317587286314129
1493479444.2,40.4662617731082,-79.9290374543324,6.67999982833862,-0.0048828125,-0.937606811523438,0.257217407226562,-0.00588239021576702,-0.0106057727251316,-0.0426814175262639
1493479444.4,40.466211171455,-79.9290684343878,5.88000011444092,0.073760986328125,-0.966171264648438,0.246231079101562,0.0148923968157231,-0.0500834074600302,0.0514599954274921
1493479444.6,40.466211171455,-79.9290684343878,5.88000011444092,-0.041412353515625,-0.902267456054688,0.352188110351562,-0.068797973072235,-0.0399697869043452,0.0249879078759955
1493479444.8,40.466211171455,-79.9290684343878,5.88000011444092,0.0479888916015625,-0.929901123046875,0.214080810546875,-0.0127549437248255,0.0628351553915476,-0.0450737351334821
1493479445.0,40.466211171455,-79.9290684343878,5.88000011444092,-0.0156097412109375,-0.916702270507812,0.248245239257812,-0.0325291811347729,-0.0487169395047105,0.0157858873614447
1493479445.2,40.466163879715,-79.9290973880017,5.73000001907349,0.019683837890625,-0.969451904296875,0.266815185546875,-0.0131922347758165,-0.00841985010239452,0.025475798987698
1493479445.4,40.466163879715,-79.9290973880017,5.73000001907349,-0.055450439453125,-0.957168579101562,0.303985595703125,-0.0053676011770547,-0.0116665097873101,-0.00322349018343191
1493479445.6,40.466163879715,-79.9290973880017,5.73000001907349,-0.004974365234375,-0.946334838867188,0.285568237304688,0.0127674605819489,-0.00327435656025242,-0.000927046375456583
1493479445.8,40.466163879715,-79.9290973880017,5.73000001907349,0.038238525390625,-0.988311767578125,0.259246826171875,-0.0277855586011237,0.000181893902452412,0.00717855071830859
1493479446.0,40.466163879715,-79.9290973880017,5.73000001907349,-0.0629425048828125,-0.957870483398438,0.2457275390625,-0.020063989336548,-0.0434753058472165,0.0414891203062354
1493479446.2,40.466163879715,-79.9290973880017,5.73000001907349,0.0111083984375,-0.981857299804688,0.2279052734375,0.0105612979349272,0.065876219040309,-0.0352469370271987
1493479446.4,40.4661166283419,-79.9291263169016,5.82999992370605,0.0252532958984375,-0.927261352539062,0.238922119140625,0.0370232654742816,-0.00130175314083073,0.017441840927256
1493479446.6,40.4661166283419,-79.9291263169016,5.82999992370605,-0.0144805908203125,-0.922683715820312,0.231765747070312,-0.014821024098509,0.0075420722071044,-0.00230363434291854
1493479446.8,40.4661166283419,-79.9291263169016,5.82999992370605,-0.035064697265625,-0.962493896484375,0.193496704101562,-0.0284175267277995,0.00124476149350304,-0.0237508695496537
1493479447.0,40.4661166283419,-79.9291263169016,5.82999992370605,0.0205078125,-0.995285034179688,0.192840576171875,0.00355638531969181,0.0520994204052201,0.00203438875671153
1493479447.2,40.4661166283419,-79.9291263169016,5.82999992370605,0.0428466796875,-0.9893798828125,0.188140869140625,-0.00769547028589297,-0.0244147956094104,0.00424907351922142
1493479447.4,40.4660697077582,-79.9291550432809,5.44999980926514,-0.0164031982421875,-0.96417236328125,0.216705322265625,0.0312268953617241,-0.0427471976051889,0.0292178066353683
1493479447.6,40.4660697077582,-79.9291550432809,5.44999980926514,0.0491180419921875,-0.962783813476562,0.244491577148438,0.0206906311410436,0.0339020406767087,-0.0148026482869874
1493479447.8,40.4660697077582,-79.9291550432809,5.44999980926514,-0.0003509521484375,-0.973220825195312,0.28277587890625,0.0195180413130817,0.0019965718692324,-0.0243282428739828
1493479448.0,40.4660697077582,-79.9291550432809,5.44999980926514,-0.0464935302734375,-0.92901611328125,0.227462768554688,-0.0136156773891391,-0.0413903170297935,0.0383511175937951
1493479448.2,40.4660697077582,-79.9291550432809,5.44999980926514,0.003631591796875,-0.935684204101562,0.230758666992188,-0.00952399669034137,6.12527050718225e-05,-0.0043625241816588
1493479448.4,40.4660301176465,-79.9291792816956,4.90000009536743,0.0043182373046875,-0.91424560546875,0.261138916015625,-0.00803369174433303,-0.0265362697337675,0.0277077942972934
1493479448.6,40.4660301176465,-79.9291792816956,4.90000009536743,-0.0363922119140625,-0.951858520507812,0.155960083007812,-0.014452708919751,-0.0286217911834086,0.0287136702410163
1493479448.8,40.4660301176465,-79.9291792816956,4.90000009536743,-0.034942626953125,-0.961029052734375,0.220199584960938,-0.00777536511859534,-0.0350514610031869,0.00427570513012222
1493479449.0,40.4660301176465,-79.9291792816956,4.90000009536743,-0.015960693359375,-0.991439819335938,0.163406372070312,-0.00303706890712636,0.00533697482451879,-0.00857457976172812
1493479449.2,40.4660301176465,-79.9291792816956,4.90000009536743,-0.0010528564453125,-0.95648193359375,0.180419921875,-0.043357061494817,0.0300652244942315,-0.00585256281155813
1493479449.4,40.4659913245478,-79.9292030321519,4.59999990463257,-0.0465087890625,-0.963836669921875,0.185592651367188,-0.0302945226640874,-0.0327755235356052,0.0168338412503909
1493479449.6,40.4659913245478,-79.9292030321519,4.59999990463257,-0.0188446044921875,-0.959548950195312,0.105712890625,0.0287211270920686,0.00406877751342306,0.00454841282574633
1493479449.8,40.4659913245478,-79.9292030321519,4.59999990463257,-0.0164031982421875,-0.975143432617188,0.182769775390625,-0.00886007063058462,-0.0201508083880846,0.0138220723736203
1493479450.0,40.4659913245478,-79.9292030321519,4.59999990463257,-0.0138092041015625,-0.963409423828125,0.151657104492188,-0.00625922751001323,0.0191878093379119,0.000952612721921343
1493479450.2,40.4659913245478,-79.9292030321519,4.59999990463257,0.012420654296875,-0.973663330078125,0.143234252929688,-0.0201952831782889,0.00864142510508911,0.00190336123107963
1493479450.4,40.4659570491261,-79.9292240167323,3.79999995231628,-0.021728515625,-0.986526489257812,0.139678955078125,-0.0100473078445419,-0.00524829156021915,0.0308308833076293
1493479450.6,40.4659570491261,-79.9292240167323,3.79999995231628,0.0178070068359375,-0.946365356445312,0.15130615234375,-0.0262055051263797,0.0161227772393397,-0.0216341891152587
1493479450.8,40.4659570491261,-79.9292240167323,3.79999995231628,0.0320281982421875,-0.97601318359375,0.134017944335938,-0.0137895818083213,0.0128548122657035,0.00302428573389398
1493479451.0,40.4659570491261,-79.9292240167323,3.79999995231628,-0.0234222412109375,-0.96551513671875,0.141342163085938,0.0102971123547914,-0.00963718103666974,0.0203883623573196
1493479451.2,40.4659347816307,-79.9292376496514,2.61999988555908,-0.03656005859375,-0.976318359375,0.133026123046875,0.00290124769153232,-0.0117173761641306,0.0149869390344209
1493479451.4,40.4659347816307,-79.9292376496514,2.61999988555908,-0.017913818359375,-0.986297607421875,0.128036499023438,-0.0086243808741126,-0.0180274700509644,-0.00217420471394069
1493479451.6,40.4659347816307,-79.9292376496514,2.61999988555908,-0.0211334228515625,-0.980499267578125,0.156143188476562,-0.00638972240342712,-0.00208605408185907,-0.00112625082499451
1493479451.8,40.4659347816307,-79.9292376496514,2.61999988555908,-0.03717041015625,-0.955551147460938,0.163131713867188,-0.00774207560496935,-0.0169672656210038,0.0116928750821019
1493479452.0,40.4659347816307,-79.9292376496514,2.61999988555908,-0.02252197265625,-0.958602905273438,0.167144775390625,-0.00356836954459717,-0.0361420254695744,0.00752023428616575
1493479452.2,40.4659347816307,-79.9292376496514,2.61999988555908,-0.0051422119140625,-0.970977783203125,0.208084106445312,0.000125168571233724,0.00106153601050558,-0.00853117023595983
1493479452.4,40.4659185704438,-79.9292475746921,1.41999995708466,-0.01019287109375,-0.938491821289062,0.25048828125,-0.00309832161219819,0.00108284129922622,-0.00643180034865037
1493479452.6,40.4659185704438,-79.9292475746921,1.41999995708466,0.00494384765625,-0.954055786132812,0.237808227539062,-0.00924569635642809,0.0117581225288088,-0.018250642950313
1493479452.8,40.4659185704438,-79.9292475746921,1.41999995708466,-0.0116119384765625,-0.970413208007812,0.228851318359375,0.00309033212892795,-0.00214650783860387,0.00643446350974045
1493479453.0,40.4659185704438,-79.9292475746921,1.41999995708466,0.0016632080078125,-0.949737548828125,0.229202270507812,-0.00965981790593541,-0.00631914863454002,0.00204983509103399
1493479453.2,40.4659185704438,-79.9292475746921,1.41999995708466,-0.00628662109375,-0.951583862304688,0.24566650390625,-0.0147611029739822,0.00966860633753268,-0.00550715081817486
1493479453.4,40.4659092775515,-79.9292532641173,0.889999985694885,0.00494384765625,-0.942367553710938,0.27667236328125,-0.0145294079591453,0.0171110763198681,-0.01831855355811
1493479453.6,40.4659092775515,-79.9292532641173,0.889999985694885,-0.0219879150390625,-0.938018798828125,0.272247314453125,-0.013680392203628,8.70853676455911e-05,-0.0118686437140471
1493479453.8,40.4659092775515,-79.9292532641173,0.889999985694885,-0.019256591796875,-0.946273803710938,0.268875122070312,0.00401258481442239,-0.0191718303713714,0.00755405643200976
1493479454.0,40.4659092775515,-79.9292532641173,0.889999985694885,0.0101470947265625,-0.92620849609375,0.266983032226562,-0.0128020816761199,-0.00523550838698677,-0.00118377510454022
1493479454.2,40.4659092775515,-79.9292532641173,0.889999985694885,-0.006011962890625,-0.921401977539062,0.34088134765625,-0.000202400242846022,-0.00744300261455345,0.0106792759712177
1493479454.4,40.4659035475763,-79.9292567722033,0.810000002384186,-0.0091400146484375,-0.918441772460938,0.3536376953125,-0.0117027287781352,0.00326743234141822,0.000937965335925908
1493479454.6,40.4659035475763,-79.9292567722033,0.810000002384186,0.00054931640625,-0.905380249023438,0.4119873046875,0.0074344804990652,-0.00643100140032334,-0.00203971507889169
1493479454.8,40.4659035475763,-79.9292567722033,0.810000002384186,0.00640869140625,-0.89764404296875,0.429733276367188,-0.0244195892993726,-0.00622487273195121,-0.00876366419912375
1493479455.0,40.4659035475763,-79.9292567722033,0.810000002384186,0.0150146484375,-0.885818481445312,0.441421508789062,-0.00838602795655051,0.0234568565653089,0.00305224892533981
1493479455.2,40.4659035475763,-79.9292567722033,0.810000002384186,-0.033294677734375,-0.885284423828125,0.442886352539062,0.00251109459183571,-0.0383055775391547,0.0289123420583362
1493479455.4,40.4658922184531,-79.9292637082783,1.75999999046326,-0.0278472900390625,-0.932052612304688,0.428421020507812,0.00425013878365746,0.060597301127554,-0.043827642059434
1493479455.6,40.4658922184531,-79.9292637082783,1.75999999046326,0.069610595703125,-0.915115356445312,0.407119750976562,0.0068730861412765,0.0371830551396863,-0.0149525842563589
1493479455.8,40.4658922184531,-79.9292637082783,1.75999999046326,-0.018035888671875,-0.817001342773438,0.47442626953125,-0.0525606799060219,-0.0241213152572837,0.014451111023097
1493479456.0,40.4658922184531,-79.9292637082783,1.75999999046326,0.0858001708984375,-0.971633911132812,0.417877197265625,-0.0282348338770201,-0.101923435975077,0.0618143657457202
1493479456.2,40.4658656241657,-79.9292799902069,3.4300000667572,0.0430908203125,-0.872894287109375,0.434280395507812,-0.00142772066039148,0.0563831150186126,-0.0204181897615285
1493479456.4,40.4658656241657,-79.9292799902069,3.4300000667572,-0.0073089599609375,-0.92010498046875,0.459869384765625,0.00628985386254914,-0.0170607425752656,-0.00202400242846022
1493479456.6,40.4658656241657,-79.9292799902069,3.4300000667572,-0.0133056640625,-0.903091430664062,0.409912109375,-0.0586268282370044,-0.0240856288986766,-0.0090677971956108
1493479456.8,40.4658656241657,-79.9292799902069,3.4300000667572,0.0551605224609375,-0.865310668945312,0.409271240234375,-0.0102385228108096,0.00963611577223371,-0.0246526158947545
1493479457.0,40.4658656241657,-79.9292799902069,3.4300000667572,-0.0294952392578125,-0.921829223632812,0.476409912109375,0.00671143226310869,-0.0500341389798637,0.026853185903487
1493479457.2,40.4658656241657,-79.9292799902069,3.4300000667572,0.0189208984375,-0.857635498046875,0.446334838867188,-0.0389934720487222,-0.0295254017412725,0.0316633874643881
1493479457.4,40.465831164992,-79.9293010872866,4.96999979019165,-0.0196685791015625,-0.849655151367188,0.483657836914062,0.0429434725775277,0.0156737682795523,-0.0166602031473177
1493479457.6,40.465831164992,-79.9293010872866,4.96999979019165,0.0047607421875,-0.92266845703125,0.455535888671875,0.0226816103719869,0.0232525921096998,-0.0104899252177131
1493479457.8,40.465831164992,-79.9293010872866,4.96999979019165,-0.049835205078125,-0.887985229492188,0.428237915039062,-0.00875673998028954,-0.105245196802732,0.0374994386771877
1493479458.0,40.465831164992,-79.9293010872866,4.96999979019165,0.00970458984375,-0.9014892578125,0.411697387695312,-0.0123560021935316,0.0053944991040645,-0.027861991324409
1493479458.2,40.4657838654648,-79.929330045668,6.5,0.0366363525390625,-0.874740600585938,0.401382446289062,0.00600755878700075,-0.0234384807537874,0.0150489906878198
1493479458.4,40.4657838654648,-79.929330045668,6.5,-0.05279541015625,-0.908294677734375,0.5159912109375,-0.0562310485203691,0.00355478742303777,-0.0133794550004491
