timestamp,latitude,longitude,speed,accelerometerX,accelerometerY,accelerometerZ,gyroX,gyroY,gyroZ
1492618395.9,40.4780206967218,-79.9233784299742,0.0,0.0052032470703125,-0.960433959960938,0.215957641601562,-0.0272774274651366,-0.0232187699638558,0.0349657072160863
1492618396.1,40.4780206967218,-79.9233784299742,0.0,0.018157958984375,-0.975204467773438,0.230056762695312,-0.0127448237126832,-0.00736417304628711,-0.00650876570415366
1492618396.3,40.4780206695488,-79.9233783577511,0.0,0.016265869140625,-0.956634521484375,0.254501342773438,-0.00981161808806993,-0.0148268830529071,0.00846752068590694
1492618396.5,40.4780206695488,-79.9233783577511,0.0,0.0180511474609375,-0.944442749023438,0.2947998046875,-0.0107352023541094,-0.0116310897448121,-7.98948327023771e-05
1492618396.7,40.4780206695488,-79.9233783577511,0.0,0.0035552978515625,-0.92401123046875,0.320968627929688,0.0252486313467142,-0.0310111793134277,0.00566960364466969
1492618396.9,40.4780206695488,-79.9233783577511,0.0,-6.103515625e-05,-0.967742919921875,0.302810668945312,0.0368275231341607,-0.0449144781002954,0.00795646007272073
1492618397.1,40.4780206695488,-79.9233783577511,0.0,0.006622314453125,-0.958633422851562,0.272293090820312,-0.00309832161219819,-0.0340229481901983,-0.0255330569511347
1492618397.3,40.4780188665259,-79.9233735654952,0.620000004768372,0.0175323486328125,-0.948593139648438,0.280029296875,0.0158378190027012,-0.0373348553218208,-0.0104036387983945
1492618397.5,40.4780188665259,-79.9233735654952,0.620000004768372,0.0453338623046875,-0.952072143554688,0.285263061523438,-0.00325864390982096,-0.0840067534254595,0.0364347068733741
1492618397.7,40.4780188665259,-79.9233735654952,0.620000004768372,-0.02789306640625,-0.935165405273438,0.3701171875,0.0273056569726914,-0.0810104308830113,0.0612628250839648
1492618397.9,40.4780188665259,-79.9233735654952,0.620000004768372,-0.0685882568359375,-0.905914306640625,0.422744750976562,-0.00829255100228873,-0.140346991550522,0.0621176997938802
1492618398.1,40.4780188665259,-79.9233735654952,0.620000004768372,-0.08447265625,-0.9259033203125,0.402267456054688,-0.0147927945909541,-0.190302567278228,0.0429882136838411
1492618398.3,40.4780152697738,-79.9233640056852,1.23000001907349,-0.038299560546875,-0.928878784179688,0.414718627929688,0.0384065113444687,-0.215115771786714,0.0329347805687919
1492618398.5,40.4780152697738,-79.9233640056852,1.23000001907349,0.0111083984375,-0.846969604492188,0.486038208007812,-0.118107732235597,-0.188566452563605,0.0451246015103026
1492618398.7,40.4780152697738,-79.9233640056852,1.23000001907349,-0.104949951171875,-0.91412353515625,0.306320190429688,-0.0481536809341587,-0.229442513186905,0.0470125164070598
1492618398.9,40.4780152697738,-79.9233640056852,1.23000001907349,-0.07769775390625,-0.927963256835938,0.42132568359375,-0.00892425281285553,-0.358404491077338,0.0669388203152507
1492618399.1,40.4780152697738,-79.9233640056852,1.23000001907349,-0.179214477539062,-0.925674438476562,0.380142211914062,0.027693679543516,-0.485216232703641,0.123084115048519
1492618399.3,40.4780073604954,-79.9233429836085,3.17000007629395,-0.240432739257812,-0.899734497070312,0.369216918945312,-0.0302692226337316,-0.517811992865666,0.138567999942349
1492618399.5,40.4780073604954,-79.9233429836085,3.17000007629395,-0.190444946289062,-0.935348510742188,0.348587036132812,-0.0115748970458114,-0.51687669069083,0.0961084237348886
1492618399.7,40.4780073604954,-79.9233429836085,3.17000007629395,-0.0886383056640625,-0.930862426757812,0.375335693359375,-0.0211822506782722,-0.446614777967378,0.0585112470456949
1492618399.9,40.4780073604954,-79.9233429836085,3.17000007629395,-0.217987060546875,-0.90106201171875,0.42333984375,-0.038618765283348,-0.431603337850929,0.0956114778754798
1492618400.1,40.4780073604954,-79.9233429836085,3.17000007629395,-0.156234741210938,-0.944427490234375,0.501235961914062,0.0282082022661193,-0.395877830775843,0.0567535607262426
1492618400.3,40.4780155419794,-79.9233147485921,4.71999979019165,-0.0667266845703125,-0.931365966796875,0.49163818359375,-0.0466966655017764,-0.356037739816584,0.0270960661949022
1492618400.5,40.4780155419794,-79.9233147485921,4.71999979019165,-0.03607177734375,-0.92108154296875,0.477310180664062,-0.00327382392803441,-0.218034330025332,0.042111501052987
1492618400.7,40.4780155419794,-79.9233147485921,4.71999979019165,-0.140579223632812,-0.92962646484375,0.554718017578125,-0.0349824851309539,-0.275251813413467,0.148555919294582
1492618400.9,40.4780155419794,-79.9233147485921,4.71999979019165,-0.2330322265625,-0.906234741210938,0.461105346679688,-0.0220879917650082,-0.211520770631216,0.0973451957451213
1492618401.1,40.4780155419794,-79.9233147485921,4.71999979019165,-0.132293701171875,-0.980453491210938,0.516937255859375,0.00637800449463077,-0.224480777759978,0.0336972435888816
1492618401.3,40.4778958541878,-79.9233855569469,7.44000005722046,-0.0878448486328125,-0.858612060546875,0.509033203125,-0.00930135642321075,-0.179702120875277,0.0366197965691346
1492618401.5,40.4778958541878,-79.9233855569469,7.44000005722046,-0.015167236328125,-0.903030395507812,0.49273681640625,-0.0232187699638558,-0.148760183750191,0.0587879494829541
1492618401.7,40.4778958541878,-79.9233855569469,7.44000005722046,-0.103240966796875,-0.875015258789062,0.54766845703125,-0.0708254376101123,-0.138879856105997,0.0412156136622843
1492618401.9,40.4778958541878,-79.9233855569469,7.44000005722046,0.0086822509765625,-0.911666870117188,0.553939819335938,0.00352256317384781,-0.0883106880631365,0.00559503513414747
1492618402.1,40.4778958541878,-79.9233855569469,7.44000005722046,0.02587890625,-0.916213989257812,0.433059692382812,-0.0740630425473216,-0.0516381609044184,0.0143019740020525
1492618402.3,40.4778206573095,-79.9234298954748,10.039999961853,0.162521362304688,-0.901718139648438,0.4346923828125,-0.0339763428711219,0.0746742380174948,-0.0442553457305008
1492618402.5,40.4778206573095,-79.9234298954748,10.039999961853,0.128524780273438,-0.873779296875,0.431961059570312,-0.045844187636842,0.0364560121620947,-0.0538741509556489
1492618402.7,40.4778206573095,-79.9234298954748,10.039999961853,0.0189208984375,-0.903488159179688,0.452850341796875,-0.0171600784839256,-0.0509374832216186,0.0585975334650135
1492618402.9,40.4778206573095,-79.9234298954748,10.039999961853,0.00714111328125,-0.936172485351562,0.444366455078125,-0.0213199361066293,-0.00518011463631313,-0.00127112678829482
1492618403.1,40.4778206573095,-79.9234298954748,10.039999961853,0.124404907226562,-0.868988037109375,0.358367919921875,-0.0606420422338673,0.0971758186997923,-0.106426841378401
1492618403.3,40.4777220377169,-79.9234880447977,12.5200004577637,0.04241943359375,-0.962799072265625,0.410079956054688,-0.038719166456444,-0.000807470442512025,0.0273272285775211
1492618403.5,40.4777220377169,-79.9234880447977,12.5200004577637,-0.0183868408203125,-0.943679809570312,0.371673583984375,0.00681076817176864,-0.0830016764300636,0.079183768691326
1492618403.7,40.4777220377169,-79.9234880447977,12.5200004577637,-0.0289154052734375,-0.917678833007812,0.437164306640625,-0.0525612125382399,-0.123043368683841,0.0381630984208355
1492618403.9,40.4777220377169,-79.9234880447977,12.5200004577637,-0.0106964111328125,-0.8238525390625,0.41436767578125,-0.0498597019284635,-0.0794388995237556,0.0977862152216385
1492618404.1,40.4777220377169,-79.9234880447977,12.5200004577637,0.108627319335938,-0.990692138671875,0.244216918945312,0.0611938492117317,-0.0184762126946427,0.031594411592155
1492618404.3,40.4776124771857,-79.9235526452542,13.8900003433228,0.0400238037109375,-0.951995849609375,0.332443237304688,-0.0374919818261355,-0.0103916545734892,0.0103051018380616
1492618404.5,40.4776124771857,-79.9235526452542,13.8900003433228,0.110031127929688,-0.931350708007812,0.206634521484375,-0.069170282992628,-0.0218906515282333,-0.0155786934286365
1492618404.7,40.4776124771857,-79.9235526452542,13.8900003433228,0.0419769287109375,-0.939071655273438,0.245101928710938,-0.0350714347113625,-0.0412489031759103,0.0498594356123545
1492618404.9,40.4776124771857,-79.9235526452542,13.8900003433228,-0.065093994140625,-0.870697021484375,0.31805419921875,-0.0711325000837984,-0.0750579995305752,0.0207897007335946
1492618405.1,40.4776124771857,-79.9235526452542,13.8900003433228,0.159591674804688,-1.00889587402344,0.26251220703125,-0.0050647997611127,0.102143413081117,-0.0408315858330949
1492618405.3,40.477496242815,-79.9236211808238,14.3199996948242,0.0345306396484375,-0.89129638671875,0.371566772460938,0.0455299346282127,-0.0236845568385107,0.0836919677846121
1492618405.5,40.477496242815,-79.9236211808238,14.3199996948242,0.0128173828125,-0.92230224609375,0.300674438476562,-0.0442545467821737,-0.0231090477269446,0.0305267503111423
1492618405.7,40.477496242815,-79.9236211808238,14.3199996948242,-0.01983642578125,-1.05068969726562,0.257904052734375,0.0877935021794432,-0.03673377986379,0.0233841522675498
1492618405.9,40.477496242815,-79.9236211808238,14.3199996948242,-0.043731689453125,-0.984970092773438,0.395156860351562,-0.0344421297457768,-0.0699708292163059,0.0659332106876367
1492618406.1,40.477496242815,-79.9236211808238,14.3199996948242,0.0595550537109375,-1.06399536132812,0.144332885742188,-0.106474511961913,0.0570744716375972,0.0296827945616962
1492618406.3,40.4773761822699,-79.9236919724303,14.6300001144409,0.055023193359375,-0.825439453125,0.267715454101562,-0.139630334901181,0.0296327271332027,0.0251492954380543
1492618406.5,40.4773761822699,-79.9236919724303,14.6300001144409,0.114959716796875,-0.870025634765625,0.267227172851562,-0.0707958765220124,0.10895045282736,-0.058581554498473
1492618406.7,40.4773761822699,-79.9236919724303,14.6300001144409,-0.0675506591796875,-0.936492919921875,0.24371337890625,-0.0949909613414913,0.0825215084855223,-0.0171787206115561
1492618406.9,40.4773761822699,-79.9236919724303,14.6300001144409,0.207687377929688,-0.959884643554688,0.209609985351562,-0.0347995259640654,0.114025372600615,-0.117934094132524
1492618407.1,40.4773761822699,-79.9236919724303,14.6300001144409,0.0902862548828125,-0.913619995117188,0.240447998046875,0.038887744553446,0.019965452376215,0.0483262537727959
1492618407.3,40.4772514254188,-79.9237655331318,14.960000038147,0.10076904296875,-1.11715698242188,0.211700439453125,-0.249621551082544,0.0484117412437874,-0.0975736949666502
1492618407.5,40.4772514254188,-79.9237655331318,14.960000038147,0.0672607421875,-1.0716552734375,0.112808227539062,-0.111402158926887,0.074110446814725,-0.0674370977552045
1492618407.7,40.4772514254188,-79.9237655331318,14.960000038147,0.031280517578125,-1.08848571777344,0.164260864257812,0.0432020655193744,0.196479769426667,-0.169592761377336
1492618407.9,40.4772514254188,-79.9237655331318,14.960000038147,-0.04168701171875,-1.00569152832031,0.239837646484375,-0.199560514175671,0.101276554146296,-0.0694760138857692
1492618408.1,40.4772514254188,-79.9237655331318,14.960000038147,0.162887573242188,-0.953353881835938,0.15728759765625,-0.0859151746626103,0.037775874798338,-0.0820093826079001
1492618408.3,40.4772514254188,-79.9237655331318,14.960000038147,0.096923828125,-0.925079345703125,0.130401611328125,-0.0145560395700461,0.00966487791200656,-0.0204320381991969
1492618408.5,40.4771218238851,-79.9238247651604,15.4899997711182,0.126602172851562,-0.93328857421875,0.227005004882812,-0.0732947205728338,0.0408994964408919,0.00873996206542204
1492618408.7,40.4771218238851,-79.9238247651604,15.4899997711182,0.163299560546875,-0.999740600585938,0.193084716796875,0.0353265655437921,0.0231718983286704,-0.000764327232852741
1492618408.9,40.4771218238851,-79.9238247651604,15.4899997711182,0.108566284179688,-0.909255981445312,0.217193603515625,0.0179166825496171,0.0105237473635571,0.0193481316355347
1492618409.1,40.4771218238851,-79.9238247651604,15.4899997711182,0.0527191162109375,-0.975418090820312,0.217803955078125,-0.0156519303586137,-0.00946380924970558,0.0489100186837412
1492618409.3,40.4769835371769,-79.9238873608947,16.1700000762939,0.0581817626953125,-0.968215942382812,0.24267578125,0.00219071631269918,0.0159422149174323,0.00424614404202234
1492618409.5,40.4769835371769,-79.9238873608947,16.1700000762939,0.04638671875,-0.971542358398438,0.222702026367188,-0.0324186599495346,-0.0125493476886714,0.0274220371123279
1492618409.7,40.4769835371769,-79.9238873608947,16.1700000762939,0.106338500976562,-0.959121704101562,0.19891357421875,0.0404566127516117,-0.0800365128723694,0.0347396048395386
1492618409.9,40.4769835371769,-79.9238873608947,16.1700000762939,0.0385894775390625,-0.89129638671875,0.18310546875,0.0195446729239825,0.00944277027709396,-0.022214758232896
1492618410.1,40.4769835371769,-79.9238873608947,16.1700000762939,0.041229248046875,-0.939620971679688,0.164932250976562,-0.0217095565741079,0.0203460180959874,-0.0365260532987638
1492618410.3,40.4768435026306,-79.9239507477911,16.5599994659424,0.114990234375,-0.933303833007812,0.148681640625,-0.057235859199656,0.00568824577230025,-0.0165938904361747
1492618410.5,40.4768435026306,-79.9239507477911,16.5599994659424,0.069122314453125,-1.00180053710938,0.16656494140625,0.0274699740119493,0.0338658216858836,0.0343127001167989
1492618410.7,40.4768435026306,-79.9239507477911,16.5599994659424,0.0467071533203125,-0.948974609375,0.117919921875,-0.0619475238002242,-0.0272539916475439,-0.0016301209032375
1492618410.9,40.4768435026306,-79.9239507477911,16.5599994659424,0.0137939453125,-0.874420166015625,0.302978515625,-0.00263812737583249,-0.00529596214373157,0.0341055061839908
1492618411.1,40.4768435026306,-79.9239507477911,16.5599994659424,0.108612060546875,-1.03288269042969,0.241134643554688,-0.0264619675393543,0.0671779721811398,-0.0526887779544547
1492618411.3,40.4767032742212,-79.92401422244,16.4300003051758,0.0149383544921875,-0.97930908203125,0.211029052734375,-0.0183422556918117,0.0394707105160644,-0.0386733600856947
1492618411.5,40.4767032742212,-79.92401422244,16.4300003051758,0.112747192382812,-1.0048828125,0.115951538085938,0.0387207643530981,-0.0874640691526004,0.079521990149766
1492618411.7,40.4767032742212,-79.92401422244,16.4300003051758,0.0103302001953125,-0.901519775390625,0.167037963867188,-0.064630924914588,-0.0697825437272373,0.0155115817691665
1492618411.9,40.4767032742212,-79.92401422244,16.4300003051758,0.0549468994140625,-1.03675842285156,0.156829833984375,0.0399804395487056,-0.017275393359126,0.0260430522998849
1492618412.1,40.4767032742212,-79.92401422244,16.4300003051758,0.0247650146484375,-1.01292419433594,0.140792846679688,0.00619664322439637,0.00953624723135574,0.0192306862314622
1492618412.3,40.4765593461315,-79.924079371756,16.5599994659424,0.141586303710938,-1.00346374511719,0.193206787109375,0.0291685381552019,0.040230244058955,-0.00833489526362099
1492618412.5,40.4765593461315,-79.924079371756,16.5599994659424,0.121139526367188,-0.988037109375,0.211151123046875,-0.0898324183100078,0.0761070186839574,-0.00857963976779927
1492618412.7,40.4765593461315,-79.924079371756,16.5599994659424,0.07220458984375,-1.00865173339844,0.181320190429688,-0.0146385975638385,-0.00522698627149852,-0.0225268807126533
1492618412.9,40.4765593461315,-79.924079371756,16.5599994659424,-0.080169677734375,-1.02178955078125,0.15167236328125,0.0392747018598346,-0.0800274581246631,0.0432571929539391
1492618413.1,40.4765593461315,-79.924079371756,16.5599994659424,-0.0883331298828125,-0.891998291015625,0.242782592773438,-0.0078781631366724,-0.189264999717533,0.160339874485965
1492618413.3,40.4764184155352,-79.9241431642511,16.6100006103516,0.0466766357421875,-0.885696411132812,0.173446655273438,-0.0570627537288008,0.0599395003383044,0.000327302497970738
1492618413.5,40.4764184155352,-79.9241431642511,16.6100006103516,0.0724029541015625,-0.93896484375,0.143829345703125,-0.119904034390856,0.0879951034739622,-0.0611626902269778
1492618413.7,40.4764184155352,-79.9241431642511,16.6100006103516,0.08709716796875,-0.969802856445312,0.189712524414062,0.0366088776086652,0.0242123953665644,-0.0935145048331514
1492618413.9,40.4764184155352,-79.9241431642511,16.6100006103516,0.0696563720703125,-1.02723693847656,0.138778686523438,-0.0401567408128688,-0.0933453941039313,0.00409461017599683
1492618414.1,40.4764184155352,-79.9241431642511,16.6100006103516,0.0196380615234375,-0.977752685546875,0.145263671875,-0.0116361497508832,-0.0424776857028729,-0.0287972934992448
1492618414.3,40.4762779258924,-79.9242059370476,16.4599990844727,-0.0009918212890625,-0.954696655273438,0.183380126953125,-0.0205460214938523,-0.0764447075101795,0.0586286924497674
1492618414.5,40.4762779258924,-79.9242059370476,16.4599990844727,0.0878753662109375,-1.03340148925781,0.137069702148438,0.0342056410409777,0.15294001508107,-0.0810767435941543
1492618414.7,40.4762779258924,-79.9242059370476,16.4599990844727,0.210296630859375,-1.02433776855469,0.075775146484375,-0.0199430818230584,0.0416025709686728,-0.0760127427813686
1492618414.9,40.4762779258924,-79.9242059370476,16.4599990844727,-0.0597686767578125,-0.967300415039062,0.188552856445312,-0.0437530735489118,-0.103955427886807,0.0275418793613815
1492618415.1,40.4762779258924,-79.9242059370476,16.4599990844727,0.126876831054688,-1.03535461425781,0.13385009765625,-0.0162721805764932,0.0777427322254841,-0.0909954207580454
1492618415.3,40.4761412451877,-79.9242662386683,16.3799991607666,0.2174072265625,-1.01626586914062,0.0937347412109375,0.0109719573750175,0.164790815615814,-0.0888086991869814
1492618415.5,40.4761412451877,-79.9242662386683,16.3799991607666,0.103225708007812,-1.00048828125,0.171722412109375,-0.0350296230822483,0.030013292852975,0.00809361286885981
1492618415.7,40.4761412451877,-79.9242662386683,16.3799991607666,0.13397216796875,-0.935073852539062,0.136672973632812,-0.0730435844820393,-0.0303680259101736,0.0291845171217423
1492618415.9,40.4761412451877,-79.9242662386683,16.3799991607666,0.12750244140625,-0.990371704101562,0.0854644775390625,-0.0728779358622364,0.0632319663939694,-0.00943904185156784
1492618416.1,40.4761412451877,-79.9242662386683,16.3799991607666,0.101821899414062,-1.00286865234375,-0.023223876953125,0.087618266179716,0.0153837500368427,-0.0130034166545299
1492618416.3,40.4760060496143,-79.9243258850697,16.25,0.118820190429688,-1.02700805664062,-0.0391693115234375,-0.0419200197706103,0.0119791648992854,0.0347249574535432
1492618416.5,40.4760060496143,-79.9243258850697,16.25,0.147018432617188,-1.03274536132812,-0.0470428466796875,-0.0632149221629929,0.0908148584361381,-0.0776489889551133
1492618416.7,40.4760060496143,-79.9243258850697,16.25,0.039794921875,-1.05198669433594,-0.011383056640625,0.0683313872492531,-0.0546885456169952,0.0349595819455792
1492618416.9,40.4760060496143,-79.9243258850697,16.25,0.061614990234375,-1.01152038574219,-0.027801513671875,-0.00130841104355593,-0.0148820104874718,0.00962093575402026
1492618417.1,40.4760060496143,-79.9243258850697,16.25,0.0125274658203125,-1.02841186523438,0.023040771484375,0.00800785908175926,-0.0425985932163625,0.0140527021240211
1492618417.3,40.4758760084614,-79.9243832574127,14.3000001907349,-0.029083251953125,-1.04048156738281,-0.0431365966796875,-0.00737802148395552,0.0542890714534833,-0.0535263421172846
1492618417.5,40.4758760084614,-79.9243832574127,14.3000001907349,0.0876007080078125,-0.978897094726562,-0.0472869873046875,-0.0536808054605092,0.0205542772932316,-0.0347214953441261
1492618417.7,40.4758760084614,-79.9243832574127,14.3000001907349,0.020782470703125,-1.02366638183594,-0.113006591796875,0.0371247319118136,-0.128936145227859,0.0956058852371906
1492618417.9,40.4758760084614,-79.9243832574127,14.3000001907349,0.140396118164062,-1.10433959960938,-0.233993530273438,-0.00948351664177217,0.0691958493390928,-0.047189083987332
1492618418.1,40.4758760084614,-79.9243832574127,14.3000001907349,0.0899505615234375,-0.985488891601562,-0.167739868164062,-0.0562403695841843,-0.0113384083410124,-0.020804614435699
1492618418.3,40.4757645051087,-79.9244324511368,12.1300001144409,0.073577880859375,-1.04008483886719,-0.1531982421875,-0.0403399662958663,0.0162181184063645,-0.000454867914185534
1492618418.5,40.4757645051087,-79.9244324511368,12.1300001144409,0.170272827148438,-0.991226196289062,-0.140045166015625,0.0340642271870945,-0.0746758359141489,0.0378589654243484
1492618418.7,40.4757645051087,-79.9244324511368,12.1300001144409,-0.06597900390625,-0.969802856445312,-0.106170654296875,-0.0995633426170484,-0.0482815126664825,0.0118998026988011
1492618418.9,40.4757645051087,-79.9244324511368,12.1300001144409,0.131072998046875,-1.02098083496094,-0.1466064453125,0.00919696050847964,0.0318466129473855,-0.0319744446797093
1492618419.1,40.4757645051087,-79.9244324511368,12.1300001144409,0.160202026367188,-1.13018798828125,-0.193374633789062,-0.112738799477997,0.210265356493353,-0.12857635216459
1492618419.3,40.4756806914393,-79.9244694285588,9.92000007629395,0.279190063476562,-1.09042358398438,0.01446533203125,-0.0447054199547241,0.00986488130987151,0.00378168874791252
1492618419.5,40.4756806914393,-79.9244694285588,9.92000007629395,0.14923095703125,-1.02130126953125,-0.183761596679688,0.0643094813710154,-0.062111840839482,0.013613280544158
1492618419.7,40.4756806914393,-79.9244694285588,9.92000007629395,-0.0847930908203125,-1.04347229003906,-0.0774078369140625,0.0151070475995835,-0.113891149281675,0.15611583468099
1492618419.9,40.4756806914393,-79.9244694285588,9.92000007629395,-0.0230560302734375,-1.01393127441406,-0.0325469970703125,0.0113557188880979,0.0669380213669236,-0.0149834769250038
1492618420.1,40.4756806914393,-79.9244694285588,9.92000007629395,0.0541839599609375,-1.07363891601562,-0.127822875976562,-0.0316410169112314,0.0129679966120318,-0.0152844141281828
1492618420.3,40.4756236994599,-79.9244945726252,5.86999988555908,0.060302734375,-0.97442626953125,-0.0554656982421875,-0.08247916422419,0.0803156121546097,0.00108071077035415
1492618420.5,40.4756236994599,-79.9244945726252,5.86999988555908,0.0789642333984375,-1.00975036621094,-0.065277099609375,-0.0563362433834272,0.0344072423354967,0.0110627711681892
1492618420.7,40.4756236994599,-79.9244945726252,5.86999988555908,0.075958251953125,-0.991455078125,-0.02935791015625,-0.00144423225914997,-0.0329643416568918,0.0096662094925516
1492618420.9,40.4756236994599,-79.9244945726252,5.86999988555908,0.0646209716796875,-1.00909423828125,0.0554351806640625,-0.00512924825949261,-0.00528797266046134,-0.0170982931466357
1492618421.1,40.4756236994599,-79.9244945726252,5.86999988555908,0.0650177001953125,-0.943283081054688,0.214492797851562,0.0221023728348946,-0.0246084074206592,0.00562086779672124
1492618421.3,40.475590537012,-79.9245092034347,3.24000000953674,0.0032806396484375,-0.921157836914062,0.2796630859375,-0.0110880711985449,-0.0371561572126765,0.0117107182614054
1492618421.5,40.475590537012,-79.9245092034347,3.24000000953674,0.0402374267578125,-0.96575927734375,0.293243408203125,-0.0184413252843627,-0.0413647506833287,0.00205036772325201
1492618421.7,40.475590537012,-79.9245092034347,3.24000000953674,0.05999755859375,-0.953948974609375,0.356048583984375,-0.0137416449086999,0.0192368115019694,0.00300830676735351
1492618421.9,40.475590537012,-79.9245092034347,3.24000000953674,0.0357818603515625,-0.889053344726562,0.394210815429688,-0.0150380717273504,-0.0116025939211482,0.00307461947849648
1492618422.1,40.475590537012,-79.9245092034347,3.24000000953674,0.127853393554688,-0.922714233398438,0.368057250976562,0.0263141620988549,-0.0810048382447222,0.0559215892017019
1492618422.3,40.4755595797407,-79.9245228613511,3.89000010490417,0.0659027099609375,-0.915298461914062,0.384735107421875,-0.0107844708342759,0.00326317128367409,0.0116095181399824
1492618422.5,40.4755595797407,-79.9245228613511,3.89000010490417,0.0785980224609375,-0.886917114257812,0.42572021484375,-0.0521052793596183,0.0248057476574341,0.00793222530680101
1492618422.7,40.4755595797407,-79.9245228613511,3.89000010490417,0.0114288330078125,-0.940582275390625,0.449264526367188,-0.0293895805256784,-0.0423538487121842,0.0232651089668232
1492618422.9,40.4755595797407,-79.9245228613511,3.89000010490417,0.094635009765625,-0.92529296875,0.365402221679688,-0.0190059154354595,-0.0424182972105641,0.0425634394899734
1492618423.1,40.4755595797407,-79.9245228613511,3.89000010490417,0.0955047607421875,-0.9454345703125,0.384170532226562,0.00978312226440608,-0.0468612488571433,0.0375385871452119
1492618423.3,40.4755153362994,-79.9245423809403,5.96000003814697,0.100967407226562,-0.909622192382812,0.342788696289062,-0.016334498546001,-0.00733620985484128,0.0222421887921238
1492618423.5,40.4755153362994,-79.9245423809403,5.96000003814697,0.0498809814453125,-0.91357421875,0.363571166992188,0.00487358479484501,-0.0170474267698152,0.0235505998356797
1492618423.7,40.4755153362994,-79.9245423809403,5.96000003814697,0.0057525634765625,-0.90301513671875,0.392623901367188,0.0139586925375413,-0.0117940752035249,-0.01475364612293
1492618423.9,40.4755153362994,-79.9245423809403,5.96000003814697,0.0042877197265625,-0.888168334960938,0.440505981445312,-0.00656682261591739,-0.0159123875132234,0.00423868719097012
1492618424.1,40.4755153362994,-79.9245423809403,5.96000003814697,-0.0522613525390625,-0.913436889648438,0.4002685546875,-0.0363931615603688,-0.124214626931258,0.0234046586079434
1492618424.3,40.4754531543811,-79.9245698147354,7.80000019073486,0.014251708984375,-0.963180541992188,0.405136108398438,-0.0164769776643202,-0.047758467828391,0.0106166916856009
1492618424.5,40.4754531543811,-79.9245698147354,7.80000019073486,0.122482299804688,-0.912368774414062,0.363265991210938,-0.0314391493006034,0.00340245460868523,0.0423178960374681
1492618424.7,40.4754531543811,-79.9245698147354,7.80000019073486,0.0467987060546875,-0.97406005859375,0.357589721679688,-0.0820650426746827,0.0281813043391095,-0.0574222804759615
1492618424.9,40.4754531543811,-79.9245698147354,7.80000019073486,0.15716552734375,-0.920745849609375,0.336181640625,0.0148042461836415,0.0871250487458333,-0.0224637637948184
1492618425.1,40.4754531543811,-79.9245698147354,7.80000019073486,0.234817504882812,-0.949752807617188,0.303512573242188,-0.0662035215382798,0.178052026263864,-0.122685706149443
1492618425.3,40.4753756690935,-79.9246041023517,9.47999954223633,0.109207153320312,-0.923431396484375,0.317657470703125,0.0117767646564394,-0.0649574284642317,0.0376056988046819
1492618425.5,40.4753756690935,-79.9246041023517,9.47999954223633,-0.103103637695312,-0.917404174804688,0.333099365234375,-0.0577791440620321,-0.0549391490755716,-0.0100457099478879
1492618425.7,40.4753756690935,-79.9246041023517,9.47999954223633,0.175537109375,-0.898406982421875,0.354904174804688,0.0454492408471833,-0.0194402770092514,0.0143762761964657
1492618425.9,40.4753756690935,-79.9246041023517,9.47999954223633,0.278106689453125,-0.908523559570312,0.322006225585938,-0.0865412838348879,0.169675053055019,-0.119673670956564
1492618426.1,40.4753756690935,-79.9246041023517,9.47999954223633,0.175140380859375,-0.947479248046875,0.268875122070312,-0.0711460822053578,0.099382513979032,-0.0383023817458466
1492618426.3,40.4752867299982,-79.9246434640232,10.7600002288818,-0.00994873046875,-0.990707397460938,0.31634521484375,-0.0581927329793214,0.037607563017445,-0.00709013377011796
1492618426.5,40.4752867299982,-79.9246434640232,10.7600002288818,0.020172119140625,-0.987091064453125,0.36602783203125,0.049539856281545,-0.0705154456592271,0.0763903790239419
1492618426.7,40.4752867299982,-79.9246434640232,10.7600002288818,-0.078155517578125,-0.939804077148438,0.295257568359375,-0.0539830742442332,0.0524741271705943,0.00464295504444414
1492618426.9,40.4752867299982,-79.9246434640232,10.7600002288818,-0.041900634765625,-0.998123168945312,0.34661865234375,-0.0449895792430356,-0.0741586500304555,0.0562401032680753
1492618427.1,40.4752867299982,-79.9246434640232,10.7600002288818,-0.007080078125,-0.9354248046875,0.32818603515625,0.00160428824066373,-0.106373045524381,0.0578664957457867
1492618427.3,40.4751885417707,-79.9246869190723,12.0200004577637,0.161361694335938,-0.950881958007812,0.294418334960938,0.00719879074259319,-0.0202562695672517,0.00758947647450781
1492618427.5,40.4751885417707,-79.9246869190723,12.0200004577637,0.0365142822265625,-0.959014892578125,0.30224609375,0.0428076513619337,0.0209952967697487,-0.00388075834046347
1492618427.7,40.4751885417707,-79.9246869190723,12.0200004577637,0.147232055664062,-0.95526123046875,0.2840576171875,-0.0280260420475579,0.0416624920931996,-0.030248449977229
1492618427.9,40.4751885417707,-79.9246869190723,12.0200004577637,0.0456085205078125,-0.997756958007812,0.29254150390625,0.00292787930243311,-0.0159731075860773,0.0107333381413464
1492618428.1,40.4751885417707,-79.9246869190723,12.0200004577637,0.0121307373046875,-0.959426879882812,0.263412475585938,-0.118294419828012,-0.00986754447096159,0.000946753767523169
1492618428.3,40.475079976901,-79.9247349664998,12.9300003051758,0.0686492919921875,-0.958816528320312,0.268402099609375,-0.026820695338188,-0.0072698971436983,0.0104063019594846
1492618428.5,40.475079976901,-79.9247349664998,12.9300003051758,0.026763916015625,-0.916336059570312,0.248016357421875,0.0811782100316863,-0.111142500720604,0.0768191479594446
1492618428.7,40.475079976901,-79.9247349664998,12.9300003051758,0.0478363037109375,-0.965789794921875,0.207290649414062,-0.0559953587638971,0.0524858450793906,-0.00390738995136426
1492618428.9,40.475079976901,-79.9247349664998,12.9300003051758,0.114532470703125,-0.93218994140625,0.2889404296875,-0.0806873894427847,0.0600830447210597,-0.0628215732699882
1492618429.1,40.475079976901,-79.9247349664998,12.9300003051758,0.0655670166015625,-0.845367431640625,0.235031127929688,-0.0872321078216545,0.00482165315358846,-0.00410419755592111
1492618429.3,40.4749639094883,-79.9247863343189,13.5299997329712,0.05694580078125,-1.02676391601562,0.219223022460938,-0.0442782489158754,0.163021145071456,-0.0989657292684346
1492618429.5,40.4749639094883,-79.9247863343189,13.5299997329712,0.0952301025390625,-0.93408203125,0.269546508789062,-0.0380757467370809,0.221480194159786,-0.131039509856804
1492618429.7,40.4749639094883,-79.9247863343189,13.5299997329712,0.148147583007812,-0.914566040039062,0.198989868164062,-0.0860368811244269,0.0143866625247171,-0.00838150058269738
1492618429.9,40.4749639094883,-79.9247863343189,13.5299997329712,0.193740844726562,-1.04833984375,0.224624633789062,0.0587586547109633,0.000679372394079214,-0.0132609443319406
1492618430.1,40.4749639094883,-79.9247863343189,13.5299997329712,0.09942626953125,-0.929183959960938,0.235336303710938,-0.0710773726492338,0.0291821202767613,-0.00400166585395306
1492618430.3,40.4748495748574,-79.9248369352629,13.7200002670288,0.0130462646484375,-0.99151611328125,0.24212646484375,-0.0172474301676802,-0.0105234810474481,0.00944649870262007
1492618430.5,40.4748495748574,-79.9248369352629,13.7200002670288,-0.0538330078125,-1.02462768554688,0.224258422851562,-0.00802996331880692,0.0585437376109939,-0.0812655617154409
1492618430.7,40.4748495748574,-79.9248369352629,13.7200002670288,0.0816497802734375,-0.96588134765625,0.211944580078125,-0.0876102766964457,-0.0260220133272732,0.00663366795927837
1492618430.9,40.4748495748574,-79.9248369352629,13.7200002670288,0.055511474609375,-1.01712036132812,0.183563232421875,-0.0262340009500436,-0.0455653546707107,0.0243719187158601
1492618431.1,40.4748495748574,-79.9248369352629,13.7200002670288,-0.076263427734375,-0.971954345703125,0.304946899414062,0.0169936309157956,0.00732422562993592,-0.0702150410882661
1492618431.3,40.4747314072806,-79.9248892325492,13.9300003051758,-0.05682373046875,-0.989486694335938,0.186309814453125,-0.0169424982228661,0.00861958718415046,-0.00232813542494727
1492618431.5,40.4747314072806,-79.9248892325492,13.9300003051758,-0.02899169921875,-0.91241455078125,0.181533813476562,-0.162109012398104,0.0308316822559563,-0.043321641452319
1492618431.7,40.4747314072806,-79.9248892325492,13.9300003051758,-0.022247314453125,-1.05107116699219,0.167404174804688,0.0209076787698851,0.0413447769751532,-0.0265479876425639
1492618431.9,40.4747314072806,-79.9248892325492,13.9300003051758,0.0726165771484375,-0.935104370117188,0.23699951171875,-0.00637773817852176,-0.0180434490175049,-0.0106808738678718
1492618432.1,40.4747314072806,-79.9248892325492,13.9300003051758,-0.0356903076171875,-0.952880859375,0.23724365234375,-0.0439994159497441,-0.0879937718934171,0.0541535165539983
1492618432.3,40.4746135433283,-79.9249413954608,13.8699998855591,-0.10638427734375,-0.981552124023438,0.199691772460938,-0.0372144804405493,0.0863977394521326,-0.0347228269246711
1492618432.5,40.4746135433283,-79.9249413954608,13.8699998855591,0.003204345703125,-0.970458984375,0.204605102539062,-0.0408401079485831,0.0172785891524341,-0.0409788586413763
1492618432.7,40.4746135433283,-79.9249413954608,13.8699998855591,0.0178680419921875,-0.9869384765625,0.195953369140625,-0.0569415798992022,0.0195124486747926,-0.0304873355270091
1492618432.9,40.4746135433283,-79.9249413954608,13.8699998855591,-0.014923095703125,-1.03901672363281,0.195938110351562,-0.00725791291879295,-0.043558929105445,0.0394880210631499
1492618433.1,40.4746135433283,-79.9249413954608,13.8699998855591,-0.045379638671875,-0.967483520507812,0.215744018554688,0.0296801314006061,-0.0874116048791258,0.0399793742842695
1492618433.3,40.4744910765137,-79.9249955954558,13.9399995803833,-0.0093231201171875,-0.9913330078125,0.158737182617188,-0.0147903977459731,-0.0137347206898657,-0.0161091951177803
1492618433.5,40.4744910765137,-79.9249955954558,13.9399995803833,0.0912933349609375,-1.0167236328125,0.196090698242188,0.034584608864096,0.0869892275302392,-0.0670418846494367
1492618433.7,40.4744910765137,-79.9249955954558,13.9399995803833,0.050079345703125,-0.967483520507812,0.14654541015625,-0.0386986601160504,0.0481150650983526,-0.0250433016266691
1492618433.9,40.4744910765137,-79.9249955954558,13.9399995803833,-0.0311279296875,-0.939697265625,0.181381225585938,0.02443370405315,-0.0926974470107151,0.0314095882125035
1492618434.1,40.4744910765137,-79.9249955954558,13.9399995803833,0.074615478515625,-1.03138732910156,0.174423217773438,0.0402076071896893,-0.103435845158133,0.040128511305314
1492618434.3,40.4743757852518,-79.9250466197749,13.8699998855591,-0.115432739257812,-0.927169799804688,0.207427978515625,0.0335403834006759,-0.178907433605997,0.0967643603113751
1492618434.5,40.4743757852518,-79.9250466197749,13.8699998855591,-0.0127716064453125,-0.96881103515625,0.147415161132812,0.0329675374501999,-0.0672216480230171,0.0442257846424009
1492618434.7,40.4743757852518,-79.9250466197749,13.8699998855591,0.0186004638671875,-0.89501953125,0.211166381835938,-0.0718523525264469,-0.0154838848938297,0.0280920884425918
1492618434.9,40.4743757852518,-79.9250466197749,13.8699998855591,-0.0252227783203125,-1.01324462890625,0.155303955078125,0.0293565573281615,-0.0661294856599756,0.0751062027463057
1492618435.1,40.4743757852518,-79.9250466197749,13.8699998855591,0.01300048828125,-1.0526123046875,0.216461181640625,-0.00733993828036739,0.028769330307799,0.00731410561779362
1492618435.3,40.474257117627,-79.9250991383668,14.0,-0.03509521484375,-1.03665161132812,0.177536010742188,0.0214011625198768,-0.0288633398942788,-0.0231631098970732
1492618435.5,40.474257117627,-79.9250991383668,14.0,0.0750885009765625,-1.02993774414062,0.154647827148438,0.0255141485073951,0.0349278903286072,-0.0552720442118315
1492618435.7,40.474257117627,-79.9250991383668,14.0,0.05706787109375,-1.00654602050781,0.229934692382812,-0.0332463704163312,-0.031695345397469,-0.000258592941846694
1492618435.9,40.474257117627,-79.9250991383668,14.0,0.03350830078125,-0.888046264648438,0.132400512695312,-0.0018418422098988,0.0266039140254556,-0.00648479725434294
1492618436.1,40.474257117627,-79.9250991383668,14.0,0.107879638671875,-1.0797119140625,0.101043701171875,-0.0560864388731778,-0.0272859495806249,0.0368136746964923
1492618436.3,40.4741376030509,-79.9251522898493,13.9099998474121,-0.045379638671875,-0.933837890625,0.23333740234375,-0.0114204337025868,0.0330490301795563,-0.00340085671203119
1492618436.5,40.4741376030509,-79.9251522898493,13.9099998474121,0.01300048828125,-0.920623779296875,0.136703491210938,-0.0192386757147324,0.0905251065095374,-0.100654706031763
1492618436.7,40.4741376030509,-79.9251522898493,13.9099998474121,0.115737915039062,-0.932540893554688,0.177169799804688,-0.0914971603074164,0.0580276169917365,-0.0522648027089141
1492618436.9,40.4741376030509,-79.9251522898493,13.9099998474121,0.0394439697265625,-1.08685302734375,0.097137451171875,0.1283105686878,-0.0625294244984065,0.00573991109744778
1492618437.1,40.4741376030509,-79.9251522898493,13.9099998474121,0.025543212890625,-0.999359130859375,0.24664306640625,0.127359553862532,0.03001462443352,-0.0296937135221655
1492618437.3,40.4741376030509,-79.9251522898493,13.9099998474121,0.02984619140625,-0.726425170898438,0.31182861328125,0.0919930409023891,0.0834379022166186,0.0156535282552677
1492618437.5,40.4740509433131,-79.9251909072243,13.6700000762939,0.01300048828125,-0.998092651367188,0.129058837890625,-0.121161312741482,0.135864625119809,-0.0986165888495252
1492618437.7,40.4740509433131,-79.9251909072243,13.6700000762939,0.16510009765625,-0.942352294921875,0.201004028320312,-0.0207148659069633,0.111815747844176,-0.0591424162240437
1492618437.9,40.4740509433131,-79.9251909072243,13.6700000762939,0.107376098632812,-1.0042724609375,0.229705810546875,-0.0155888134407788,0.0256283981181595,-0.0140865242698651
1492618438.1,40.4740509433131,-79.9251909072243,13.6700000762939,0.06512451171875,-1.07716369628906,0.189834594726562,-0.0726694103488832,-0.0176090874437129,0.00889735488584573
1492618438.3,40.47390303925,-79.9252565096599,13.9099998474121,0.139633178710938,-0.910781860351562,0.255996704101562,-0.0450311245560408,0.032198416527385,-0.0378616285854385
1492618438.5,40.47390303925,-79.9252565096599,13.9099998474121,0.0135498046875,-0.934219360351562,0.242752075195312,-0.0124457507222673,-0.0371439066716622,0.0330210669881105
1492618438.7,40.47390303925,-79.9252565096599,13.9099998474121,0.0419464111328125,-1.0084228515625,0.141738891601562,0.0190945986997591,-0.0192719652283584,-0.00508583873372432
1492618438.9,40.47390303925,-79.9252565096599,13.9099998474121,0.0102996826171875,-0.9727783203125,0.169281005859375,0.00330604817722437,0.0265724887245926,0.00636255816030831
1492618439.1,40.47390303925,-79.9252565096599,13.9099998474121,-0.02520751953125,-1.06439208984375,0.156463623046875,-0.0433738394096845,0.101328485787553,-0.0433541320176179
1492618439.3,40.4737817268177,-79.9253103004238,14.3900003433228,0.025115966796875,-0.963302612304688,0.147613525390625,-0.0600870394626948,-0.0240715141448992,0.0197049952216053
1492618439.5,40.4737817268177,-79.9253103004238,14.3900003433228,0.04461669921875,-0.981155395507812,0.231002807617188,-0.0502189623595152,0.0386134389611679,-0.0443285826604779
1492618439.7,40.4737817268177,-79.9253103004238,14.3900003433228,0.0023040771484375,-0.946578979492188,0.258193969726562,0.0146599028525592,-0.0192410725597135,0.00766324603670301
1492618439.9,40.4737817268177,-79.9253103004238,14.3900003433228,-0.0462799072265625,-1.05870056152344,0.178314208984375,-0.0911219209098242,-0.128108967393281,0.0516421556460535
1492618440.1,40.4737817268177,-79.9253103004238,14.3900003433228,-0.146011352539062,-0.9495849609375,0.281387329101562,0.0145328700685624,-0.109650331561832,0.0452127521423842
1492618440.3,40.4736581820891,-79.9253650810033,14.5500001907349,0.01239013671875,-0.944473266601562,0.2183837890625,-0.0707564617378793,0.0270486619274988,-0.0285157973720234
1492618440.5,40.4736581820891,-79.9253650810033,14.5500001907349,0.120361328125,-0.90020751953125,0.220947265625,-0.0234808250151196,0.0309914719213611,-0.0568297271334189
1492618440.7,40.4736581820891,-79.9253650810033,14.5500001907349,0.0861968994140625,-0.986190795898438,0.104812622070312,-0.1006824029071,0.124026607758298,-0.122899291668868
1492618440.9,40.4736581820891,-79.9253650810033,14.5500001907349,0.026702880859375,-0.85284423828125,0.277053833007812,-0.0761506945258347,-0.0154679059272892,-0.0465869432648651
1492618441.1,40.4736581820891,-79.9253650810033,14.5500001907349,0.159912109375,-0.949874877929688,0.137863159179688,-0.0734979197640068,0.0951451583686069,-0.0244547430257616
1492618441.3,40.473531405207,-79.9254212947417,14.6599998474121,0.05987548828125,-0.859878540039062,0.29107666015625,0.0121693146011171,0.0445831808606895,-0.0863537972941463
1492618441.5,40.473531405207,-79.9254212947417,14.6599998474121,0.01373291015625,-0.855682373046875,0.167877197265625,-0.0205635983570468,0.0565072183254103,-0.0227468578186938
1492618441.7,40.473531405207,-79.9254212947417,14.6599998474121,0.16949462890625,-0.969100952148438,0.175704956054688,0.0159411496529963,-0.075621524417236,0.0387420696418187
1492618441.9,40.473531405207,-79.9254212947417,14.6599998474121,0.158493041992188,-1.00096130371094,0.233016967773438,0.0239319645037791,0.0785480721391241,-0.0713940225028442
1492618442.1,40.473531405207,-79.9254212947417,14.6599998474121,0.336700439453125,-0.91925048828125,0.132171630859375,-0.0745237694159053,0.299365938135807,-0.148673098382546
1492618442.3,40.4734063448134,-79.9254767473774,14.7799997329712,-0.0301666259765625,-0.84161376953125,0.236221313476562,-0.0793052088370336,-0.129238414011583,0.121069966316092
1492618442.5,40.4734063448134,-79.9254767473774,14.7799997329712,0.164505004882812,-1.19987487792969,0.128952026367188,0.0717695282165454,0.149500808849342,-0.10413998495035
1492618442.7,40.4734063448134,-79.9254767473774,14.7799997329712,0.0251922607421875,-1.01155090332031,0.227508544921875,-0.101490938614048,-0.0461312764023526,0.0758473604776747
1492618442.9,40.4734063448134,-79.9254767473774,14.7799997329712,-0.122314453125,-0.899948120117188,0.138397216796875,-0.00414600918503536,0.142551556300889,-0.0857074480975841
1492618443.1,40.4734063448134,-79.9254767473774,14.7799997329712,-0.0448760986328125,-0.964324951171875,0.222702026367188,-0.0046783750869422,-0.0499638315270856,0.00327968288243258
1492618443.3,40.473280091518,-79.9255327289539,14.8999996185303,0.0113677978515625,-0.8951416015625,0.22491455078125,-0.0562092105994304,0.0312010626991503,-0.0774234192107836
1492618443.5,40.473280091518,-79.9255327289539,14.8999996185303,0.0713348388671875,-0.9593505859375,0.113449096679688,-0.122669460866794,0.0826890213180883,-0.0952961596024144
1492618443.7,40.473280091518,-79.9255327289539,14.8999996185303,0.03466796875,-1.00779724121094,0.154403686523438,0.00981827599079513,-0.021342839292004,-0.0286321775116599
1492618443.9,40.473280091518,-79.9255327289539,14.8999996185303,0.0196533203125,-0.972137451171875,0.132766723632812,-0.000617853372898383,-0.0276478731727666,0.0299190169503862
1492618444.1,40.473280091518,-79.9255327289539,14.8999996185303,-0.0513458251953125,-1.01640319824219,0.19354248046875,0.00577186903052873,-0.0606676085803321,0.0119440111728964
1492618444.3,40.473280091518,-79.9255327289539,14.8999996185303,-0.041351318359375,-0.989395141601562,0.221328735351562,-0.0395362242788803,-0.0146346028222034,0.00176540948661353
1492618444.5,40.4731520875834,-79.9255902283374,14.7700004577637,0.0112457275390625,-0.922531127929688,0.1993408203125,0.0434537342423869,-0.06728796073416,0.05606167147504
1492618444.7,40.4731520875834,-79.9255902283374,14.7700004577637,-0.016265869140625,-0.987014770507812,0.151092529296875,-0.0746350895494707,-0.013342969693515,-0.000729706138681711
1492618444.9,40.4731520875834,-79.9255902283374,14.7700004577637,0.0147552490234375,-0.950485229492188,0.1336669921875,-0.0280819684304495,0.0342168263175561,-0.0302298078495984
1492618445.1,40.4731520875834,-79.9255902283374,14.7700004577637,0.0081024169921875,-0.9840087890625,0.169418334960938,-0.0106939233572132,-0.0158870874828677,-0.00539955911013566
1492618445.3,40.473029073058,-79.9256446318214,14.5200004577637,0.095306396484375,-0.998947143554688,0.143997192382812,0.0831801082230989,0.0728481084580275,-0.0462497870708611
1492618445.5,40.473029073058,-79.9256446318214,14.5200004577637,0.0241241455078125,-1.02244567871094,0.134735107421875,-0.0311169068087038,-0.0434111236649456,-0.00660384055506949
1492618445.7,40.473029073058,-79.9256446318214,14.5200004577637,0.1363525390625,-0.958419799804688,0.187454223632812,0.00054008906906807,-0.0542517871982222,0.00867524725093312
1492618445.9,40.473029073058,-79.9256446318214,14.5200004577637,0.12542724609375,-0.984771728515625,0.161300659179688,0.0164314376096799,-0.178795314524105,0.101919973865659
1492618446.1,40.473029073058,-79.9256446318214,14.5200004577637,-0.0540771484375,-0.962982177734375,0.194488525390625,-0.0728073620933493,0.0589754360236957,-0.0168908328977186
1492618446.3,40.4729052693907,-79.9256993843053,14.3199996948242,0.0432586669921875,-1.02040100097656,0.14056396484375,0.0136404447872768,0.00629651176527434,0.018249045053659
1492618446.5,40.4729052693907,-79.9256993843053,14.3199996948242,0.062957763671875,-0.939224243164062,0.162322998046875,-0.00330338501613429,0.0127884995545605,0.0148601725665331
1492618446.7,40.4729052693907,-79.9256993843053,14.3199996948242,0.0164642333984375,-0.983306884765625,0.128768920898438,-0.0286572112259066,0.00444055480159812,-0.00456971811446696
1492618446.9,40.4729052693907,-79.9256993843053,14.3199996948242,-0.0026092529296875,-1.00999450683594,0.131805419921875,-0.0322775124117604,0.0140433810602058,0.0316197116225108
1492618447.1,40.4729052693907,-79.9256993843053,14.3199996948242,-0.063568115234375,-1.0888671875,0.143234252929688,0.021847508318574,-0.108632471393204,0.0559471555481666
1492618447.3,40.4727844228925,-79.925753202154,14.039999961853,-0.122100830078125,-0.938369750976562,0.114410400390625,-0.0217239376439944,0.221369406658438,-0.158593373443091
1492618447.5,40.4727844228925,-79.925753202154,14.039999961853,0.0082855224609375,-1.01626586914062,-0.086151123046875,-0.0298492421298261,0.0863508678169472,-0.0282500138952335
1492618447.7,40.4727844228925,-79.925753202154,14.039999961853,-0.0041961669921875,-1.038818359375,-0.0462799072265625,0.00728001715584061,0.00420992505119726,0.014990667459947
1492618447.9,40.4727844228925,-79.925753202154,14.039999961853,0.160110473632812,-1.02427673339844,-0.0797576904296875,-0.0128843733538034,-0.157334230879701,0.0770415219104662
1492618448.1,40.4727844228925,-79.925753202154,14.039999961853,0.0138702392578125,-0.984527587890625,0.070648193359375,-0.00178591582700714,-0.0127581395181336,-0.0319717815186193
1492618448.3,40.4726742523321,-79.9258029053938,12.2200002670288,0.087677001953125,-1.01864624023438,0.155105590820312,0.0373313932124037,0.0391050584983965,-0.0604929052128229
1492618448.5,40.4726742523321,-79.9258029053938,12.2200002670288,0.134811401367188,-0.910919189453125,0.2340087890625,-0.0408787237843893,0.072597504999451,-0.00806937810294009
1492618448.7,40.4726742523321,-79.9258029053938,12.2200002670288,0.04730224609375,-0.927627563476562,0.284576416015625,-0.0376725441480429,0.080023197066919,-0.00485707319608652
1492618448.9,40.4726742523321,-79.9258029053938,12.2200002670288,0.107376098632812,-0.927963256835938,0.29461669921875,-0.0316143853003306,0.0438180546795097,-0.000436758418772995
1492618449.1,40.4726742523321,-79.9258029053938,12.2200002670288,0.094818115234375,-0.897369384765625,0.296920776367188,-0.149343682345027,0.122224180332533,-0.0700821493498712
1492618449.3,40.472567956619,-79.9258508605035,11.8900003433228,-0.064788818359375,-0.890625,0.315505981445312,0.0192176367421208,0.123264144738209,-0.013982128355134
1492618449.5,40.472567956619,-79.9258508605035,11.8900003433228,-0.0302581787109375,-0.984771728515625,0.277114868164062,-0.0509619843036473,0.00990402977789568,-0.0058783954741319
1492618449.7,40.472567956619,-79.9258508605035,11.8900003433228,-0.07830810546875,-0.92340087890625,0.253372192382812,0.0415887225310044,-0.128967570528722,0.0807246736980458
1492618449.9,40.472567956619,-79.9258508605035,11.8900003433228,-0.137908935546875,-0.931076049804688,0.21685791015625,-0.0619360722075368,-0.118729580350131,0.0252614145199466
1492618450.1,40.472567956619,-79.9258508605035,11.8900003433228,-0.19073486328125,-0.927932739257812,0.273239135742188,-0.0164388944607321,-0.131787858123116,0.0396217117498719
1492618450.3,40.4724823654126,-79.9258894748143,12.5500001907349,-0.136505126953125,-1.0240478515625,0.268692016601562,0.00233878806930759,-0.142543566817619,0.0622322157207536
1492618450.5,40.4724823654126,-79.9258894748143,12.5500001907349,-0.1204833984375,-0.932037353515625,0.294830322265625,-0.00114116452709895,-0.103168996416907,0.0269099112347057
1492618450.7,40.4724823654126,-79.9258894748143,12.5500001907349,0.0082244873046875,-1.06893920898438,0.291397094726562,0.0230371423775124,-0.0522845101009806,-0.0774628339949168
1492618450.9,40.4724823654126,-79.9258894748143,12.5500001907349,0.086181640625,-0.973785400390625,0.30450439453125,0.0326743234141822,0.0348847471189479,-0.0338743438013719
1492618451.1,40.4724823654126,-79.9258894748143,12.5500001907349,0.0212249755859375,-0.99896240234375,0.207260131835938,0.00499795441775171,0.0340008439531506,-0.035221636996843
1492618451.3,40.4723516807222,-79.925948441742,13.2700004577637,0.0996551513671875,-0.894073486328125,0.195205688476562,-0.0542568472042933,0.0407647404897339,-0.0593024722055575
1492618451.5,40.4723516807222,-79.925948441742,13.2700004577637,0.0841064453125,-0.918701171875,0.258255004882812,-0.00664005954589457,-0.0276129857624866,0.00320191857860227
1492618451.7,40.4723516807222,-79.925948441742,13.2700004577637,0.02978515625,-1.06106567382812,0.16900634765625,0.0381425920804419,-0.0310964004683102,-0.00272787590456816
1492618451.9,40.4723516807222,-79.925948441742,13.2700004577637,0.14923095703125,-1.05630493164062,0.175048828125,-0.0529873183126526,0.213066735644007,-0.135435323552089
1492618452.1,40.4723516807222,-79.925948441742,13.2700004577637,0.10614013671875,-0.953933715820312,0.0719757080078125,0.0570166810419424,0.0347281532468513,-0.0229625738669902
1492618452.3,40.4722309763707,-79.9260029054422,13.3100004196167,-0.078277587890625,-1.05740356445312,0.114212036132812,-0.00953917670855482,-0.122264394064993,0.00768135553211555
1492618452.5,40.4722309763707,-79.9260029054422,13.3100004196167,-0.0137176513671875,-0.996002197265625,0.0721435546875,-0.0328050846237051,0.0459424582810659,-0.0676259158764911
1492618452.7,40.4722309763707,-79.9260029054422,13.3100004196167,-0.036895751953125,-0.990493774414062,0.091796875,-0.0406507571950785,-0.075251611341824,0.0498900619648904
1492618452.9,40.4722309763707,-79.9260029054422,13.3100004196167,0.04913330078125,-1.07106018066406,0.05999755859375,0.0503854099276451,-0.0418079006887179,0.0304777481470848
1492618453.1,40.4722309763707,-79.9260029054422,13.3100004196167,-0.0287628173828125,-1.03245544433594,0.057586669921875,0.0388065181401986,-0.0513084615614666,0.0154567206507109
1492618453.3,40.4721282289163,-79.9260492667082,12.2799997329712,-0.017730712890625,-1.18218994140625,0.0736846923828125,0.0531947785615697,-0.0482045473109792,0.0550459418352838
1492618453.5,40.4721282289163,-79.9260492667082,12.2799997329712,0.1102294921875,-0.975860595703125,-0.0803680419921875,-0.0250235942346025,-0.0306939968275993,-0.0556201193663049
1492618453.7,40.4721282289163,-79.9260492667082,12.2799997329712,-0.0230255126953125,-1.09515380859375,-0.07696533203125,0.0994482940579569,-0.0463832114414741,0.0224621658981643
1492618453.9,40.4721282289163,-79.9260492667082,12.2799997329712,-0.06402587890625,-1.06674194335938,-0.0297088623046875,0.0213779930183931,-0.0703391443950638,0.0334530317169213
1492618454.1,40.4721282289163,-79.9260492667082,12.2799997329712,0.139373779296875,-0.978500366210938,-0.063201904296875,-0.0389316867114324,0.050246925550961,-0.00692555041475106
1492618454.3,40.472033313411,-79.9260921558957,10.5299997329712,-0.035675048828125,-1.00132751464844,-0.0760040283203125,0.0157272978174629,-0.0149927979888191,0.00979563912152945
1492618454.5,40.472033313411,-79.9260921558957,10.5299997329712,-0.079437255859375,-1.02084350585938,-0.063812255859375,-0.0113139072589836,0.0511318939811944,-0.0013140036818451
1492618454.7,40.472033313411,-79.9260921558957,10.5299997329712,0.002197265625,-1.00761413574219,-0.015777587890625,-0.0338855290779502,-0.0348751597390237,0.0445240586844897
1492618454.9,40.472033313411,-79.9260921558957,10.5299997329712,-0.0363922119140625,-1.01951599121094,-0.0218505859375,-0.0268712953988995,-0.0179070951696928,0.00830080680166798
1492618455.1,40.472033313411,-79.9260921558957,10.5299997329712,0.0262451171875,-1.02044677734375,-0.057525634765625,-0.0266776835876508,0.0384589756179433,-0.0526168726050225
1492618455.3,40.4719667092128,-79.9261219121102,7.75,0.065032958984375,-0.987228393554688,-0.07183837890625,0.0056600162647454,-0.063857010301811,0.0183483809623189
1492618455.5,40.4719667092128,-79.9261219121102,7.75,0.0125579833984375,-1.05076599121094,-0.078704833984375,-0.00467571192585212,-0.0340067029075488,0.0117682425409511
1492618455.7,40.4719667092128,-79.9261219121102,7.75,-0.022216796875,-1.02934265136719,-0.0402069091796875,0.0012871057548353,0.0159462096590675,-0.0074914721463929
1492618455.9,40.4719667092128,-79.9261219121102,7.75,0.0584564208984375,-1.00862121582031,-0.02386474609375,-0.0294974385498267,-0.0391604522490702,0.0328516899427815
1492618456.1,40.4719667092128,-79.9261219121102,7.75,0.027374267578125,-1.05697631835938,-0.08282470703125,-0.0287104744477082,0.00125008781568319,-0.00242960186247929
1492618456.3,40.4719117423024,-79.926146203755,5.48000001907349,0.003387451171875,-1.01953125,-0.064483642578125,-0.015863119033057,0.00861239664920725,-0.00338327984883666
1492618456.5,40.4719117423024,-79.926146203755,5.48000001907349,0.02490234375,-1.02357482910156,-0.0814208984375,-0.0075117121706775,-0.0116523950335327,-0.00217926472001184
1492618456.7,40.4719117423024,-79.926146203755,5.48000001907349,0.0196990966796875,-1.02763366699219,-0.0700531005859375,-0.00836072792619476,0.00537159591868982,-0.00862917456407475
1492618456.9,40.4719117423024,-79.926146203755,5.48000001907349,0.0369415283203125,-1.02566528320312,-0.055755615234375,-0.00754500168430349,-0.00633273075609942,0.00313773639633136
1492618457.1,40.4719117423024,-79.926146203755,5.48000001907349,0.0184478759765625,-1.02790832519531,-0.0365753173828125,-0.00453989071025808,-0.0159243717381288,0.0117229688024198
1492618457.3,40.4718813876408,-79.9261596184558,3.00999999046326,0.030242919921875,-1.00807189941406,0.0334320068359375,-0.00542352755994637,-0.0191121755629537,-0.00320484805580136
1492618457.5,40.4718813876408,-79.9261596184558,3.00999999046326,0.0431365966796875,-1.00956726074219,0.0357513427734375,-0.016973124575402,-0.005209409408304,-0.00762383125256984
1492618457.7,40.4718813876408,-79.9261596184558,3.00999999046326,0.0317535400390625,-1.00364685058594,0.0351715087890625,-0.0255841896440642,-0.00196088551062534,0.00080933465527508
1492618457.9,40.4718813876408,-79.9261596184558,3.00999999046326,0.024017333984375,-0.998565673828125,0.050628662109375,-0.0182615619107823,-0.0115812886324276,0.00517398936580594
1492618458.1,40.4718813876408,-79.9261596184558,3.00999999046326,0.038818359375,-1.00296020507812,0.070404052734375,-0.0203564044242387,-0.0147595050773281,0.000895887390702656
1492618458.3,40.4718658656791,-79.9261664781097,1.04999995231628,0.0297088623046875,-0.991592407226562,0.086273193359375,-0.0213598835229805,-0.0104984473332014,-0.00125781098284442
1492618458.5,40.4718658656791,-79.9261664781097,1.04999995231628,0.0406494140625,-0.984649658203125,0.12786865234375,-0.0214783941914891,-0.0126239161991936,0.00620995902984677
1492618458.7,40.4718658656791,-79.9261664781097,1.04999995231628,0.0261993408203125,-0.984848022460938,0.11981201171875,-0.0160055981513762,-0.00840600166472611,-0.00227460588703668
1492618458.9,40.4718658656791,-79.9261664781097,1.04999995231628,0.03045654296875,-0.982650756835938,0.1221923828125,-0.0171009563077258,-0.0105261442085382,-0.00121413514096712
1492618459.1,40.4718658656791,-79.9261664781097,1.04999995231628,0.0482330322265625,-0.970504760742188,0.207015991210938,-0.0214783941914891,-0.0126239161991936,0.00620995902984677
1492618459.3,40.4718667963526,-79.9261660668152,0.0,0.046356201171875,-0.954864501953125,0.210159301757812,-0.0148023819708784,0.00222267424578013,-0.00655457207490302
1492618459.5,40.4718667963526,-79.9261660668152,0.0,0.0394439697265625,-0.965682983398438,0.23583984375,-0.0107937918980912,-0.011630024480376,0.0041843587047325
1492618459.7,40.4718667963526,-79.9261660668152,0.0,0.035003662109375,-0.96148681640625,0.206741333007812,-0.019259714687344,-0.0105117631386518,0.000896153706811664
1492618459.9,40.4718667963526,-79.9261660668152,0.0,0.0283966064453125,-0.959030151367188,0.225357055664062,-0.0150074453748145,-0.00947552715850193,0.0020032297719576
1492618460.1,40.4718667963526,-79.9261660668152,0.0,0.0258636474609375,-0.962295532226562,0.2386474609375,-0.0170969615660907,-0.00414334602394528,0.00196807604556856
1492618460.3,40.4718625081793,-79.9261679618968,0.239999994635582,0.029632568359375,-0.961624145507812,0.240158081054688,-0.020400346582225,-0.0147587061290011,0.00409407754377881
1492618460.5,40.4718625081793,-79.9261679618968,0.239999994635582,0.0381927490234375,-0.955596923828125,0.235580444335938,-0.0212972992373637,-0.00411671441304449,-0.00233985333374362
1492618460.7,40.4718625081793,-79.9261679618968,0.239999994635582,0.0345916748046875,-0.959945678710938,0.240768432617188,-0.0245048104542551,-0.00196807604556856,-0.000245809768614314
1492618460.9,40.4718625081793,-79.9261679618968,0.239999994635582,0.027435302734375,-0.977767944335938,0.163482666015625,-0.0192530567846188,-0.0115756959941384,-0.000167246516456976
1492618461.1,40.4718625081793,-79.9261679618968,0.239999994635582,0.02154541015625,-0.967971801757812,0.156784057617188,-0.0203311043938829,-0.0094409060643309,0.00194863496961098
1492618461.3,40.4718583288169,-79.9261698088914,0.469999998807907,0.021148681640625,-0.970291137695312,0.209075927734375,-0.00965449158375525,-0.00951068088489098,-7.43021944132107e-05
1492618461.5,40.4718583288169,-79.9261698088914,0.469999998807907,0.0312652587890625,-0.96368408203125,0.21990966796875,-0.0148729557397655,-0.00522272521375439,-0.00546986656291375
1492618461.7,40.4718583288169,-79.9261698088914,0.469999998807907,0.0394439697265625,-0.97705078125,0.186904907226562,-0.0213731993284309,-0.00837058162222805,0.000868989463692855
1492618461.9,40.4718583288169,-79.9261698088914,0.469999998807907,0.0202789306640625,-0.97186279296875,0.1712646484375,-0.0150074453748145,-0.00947552715850193,0.0020032297719576
1492618462.1,40.4718583288169,-79.9261698088914,0.469999998807907,0.033935546875,-0.985305786132812,0.133987426757812,-0.0182016407862556,-0.00945475450199931,0.00197047289054963
1492618462.3,40.4718540873453,-79.9261716833341,0.540000021457672,0.0253448486328125,-0.9844970703125,0.12579345703125,-0.016064187695358,-0.00840493640029008,0.0019896476503982
1492618462.5,40.4718540873453,-79.9261716833341,0.540000021457672,0.0265350341796875,-0.984588623046875,0.126113891601562,-0.0202392253362752,-0.00305970577639204,-0.00126553415000565
1492618462.7,40.4718540873453,-79.9261716833341,0.540000021457672,0.0279388427734375,-0.988800048828125,0.11444091796875,-0.0181110933091929,-0.00520115360892475,-0.00230443329124556
1492618462.9,40.4718540873453,-79.9261716833341,0.540000021457672,0.0292510986328125,-0.951690673828125,0.233261108398438,-0.010687265454488,-0.00524909050854618,-9.58737992428526e-05
1492618463.1,40.4718540873453,-79.9261716833341,0.540000021457672,0.0300445556640625,-0.985870361328125,0.1680908203125,-0.0170543509886494,-0.00627174436713661,-0.00229085116968616
1492618463.3,40.4718540005066,-79.9261717217109,0.0,0.0310821533203125,-0.960067749023438,0.190643310546875,-0.0224073047797087,-0.00623659064074756,-0.000213319203315347
1492618463.5,40.4718540005066,-79.9261717217109,0.0,0.0304412841796875,-0.9671630859375,0.200515747070312,-0.0192131093682677,-0.00625736329725018,-0.000180562321907372
1492618463.7,40.4718540005066,-79.9261717217109,0.0,0.0307769775390625,-0.976181030273438,0.172348022460938,-0.0139040977351947,-0.0062917180753122,0.000940095864797971
1492618463.9,40.4718540005066,-79.9261717217109,0.0,0.0274200439453125,-0.966110229492188,0.194412231445312,-0.0160175823762816,-0.00415053655888849,0.000912931621679163
1492618464.1,40.4718540005066,-79.9261717217109,0.0,0.0303955078125,-0.966522216796875,0.17926025390625,-0.0138734713826588,-0.00416465131266591,-0.000131293841740906
1492618464.3,40.4718540798451,-79.9261716866486,0.0,0.0283050537109375,-0.973007202148438,0.189682006835938,-0.0160109244735564,-0.00521446941437515,-0.000150468601589477
1492618464.5,40.4718540798451,-79.9261716866486,0.0,0.0313873291015625,-0.96844482421875,0.192962646484375,-0.0202938201386218,-0.00837777215717127,-0.000186154960196539
1492618464.7,40.4718540798451,-79.9261716866486,0.0,0.0283203125,-0.97271728515625,0.189102172851562,-0.0160202455373717,-0.0084057353486171,-0.00120854250267796
1492618464.9,40.4718540798451,-79.9261716866486,0.0,0.02899169921875,-0.9671630859375,0.18731689453125,-0.0160575297926328,-0.00946886925577673,0.000926247427129559
1492618465.1,40.4718540798451,-79.9261716866486,0.0,0.030242919921875,-0.968368530273438,0.193603515625,-0.0192131093682677,-0.00625736329725018,-0.000180562321907372
1492618465.3,40.4718543616721,-79.9261715621002,0.0,0.0288848876953125,-0.970352172851562,0.187423706054688,-0.0128327080286558,-0.00736257514963306,-0.000112385398001344
1492618465.5,40.4718543616721,-79.9261715621002,0.0,0.028533935546875,-0.96759033203125,0.189010620117188,-0.0213359150731698,-0.00730744771506842,-0.00126580046611466
1492618465.7,40.4718543616721,-79.9261715621002,0.0,0.02923583984375,-0.9678955078125,0.191696166992188,-0.0149608400557381,-0.00522112731710035,0.000926513743238567
1492618465.9,40.4718543616721,-79.9261715621002,0.0,0.0278778076171875,-0.969696044921875,0.185287475585938,-0.0192051198849974,-0.00519369675787253,-0.000183225482997452
1492618466.1,40.4718543616721,-79.9261715621002,0.0,0.0283203125,-0.969375610351562,0.195343017578125,-0.0170836457606403,-0.00627121173491859,-0.000158724400968723
1492618466.3,40.4718557675967,-79.9261709407769,0.0,0.0297698974609375,-0.97052001953125,0.186386108398438,-0.0213585519424355,-0.00837084793833706,-0.000197073920665864
1492618466.5,40.4718557675967,-79.9261709407769,0.0,0.02972412109375,-0.967315673828125,0.1832275390625,-0.0192051198849974,-0.00519369675787253,-0.000183225482997452
1492618466.7,40.4718557675967,-79.9261709407769,0.0,0.029876708984375,-0.96673583984375,0.1903076171875,-0.0192131093682677,-0.00625736329725018,-0.000180562321907372
1492618466.9,40.4718557675967,-79.9261709407769,0.0,0.0304107666015625,-0.9661865234375,0.184005737304688,-0.0192051198849974,-0.00519369675787253,-0.000183225482997452
1492618467.1,40.4718557675967,-79.9261709407769,0.0,0.028778076171875,-0.968521118164062,0.188919067382812,-0.018148377564454,-0.00626428751608438,-0.000169643361438047
1492618467.3,40.4718537570421,-79.9261718293056,0.0,0.030792236328125,-0.967910766601562,0.186355590820312,-0.0149621716362832,-0.00734872671196465,-0.000134223318939994
1492618467.5,40.4718537570421,-79.9261718293056,0.0,0.030670166015625,-0.96856689453125,0.18853759765625,-0.0192051198849974,-0.00519369675787253,-0.000183225482997452
1492618467.7,40.4718537570421,-79.9261718293056,0.0,0.029815673828125,-0.969085693359375,0.188644409179688,-0.0160109244735564,-0.00521446941437515,-0.000150468601589477
1492618467.9,40.4718537570421,-79.9261718293056,0.0,0.0289764404296875,-0.97186279296875,0.191070556640625,-0.0160042665708312,-0.0062784022698618,-0.00121386882485812
1492618468.1,40.4718537570421,-79.9261718293056,0.0,0.02862548828125,-0.974395751953125,0.190261840820312,-0.0234653786807972,-0.00729359927740001,-0.00128763838705331
1492618468.3,40.4718546529424,-79.9261714333785,0.0,0.03106689453125,-0.970443725585938,0.18975830078125,-0.0170916352439105,-0.00733487827429624,-0.000156061239878643
1492618468.5,40.4718546529424,-79.9261714333785,0.0,0.03009033203125,-0.96966552734375,0.188674926757812,-0.0192277567542631,-0.00625709698114117,0.000885501062451347
1492618468.7,40.4718546529424,-79.9261714333785,0.0,0.0293121337890625,-0.96966552734375,0.191055297851562,-0.0128020816761199,-0.00523550838698677,-0.00118377510454022
1492618468.9,40.4718546529424,-79.9261714333785,0.0,0.0318450927734375,-0.970016479492188,0.187774658203125,-0.0181563670477242,-0.00732795405546203,-0.000166980200347968
1492618469.1,40.4718546529424,-79.9261714333785,0.0,0.029754638671875,-0.969573974609375,0.191162109375,-0.017106282629906,-0.00733461195818723,0.000910002144480076
1492618469.3,40.4718546291263,-79.9261714439036,0.0,0.0301513671875,-0.968490600585938,0.185653686523438,-0.0170756562773701,-0.00520754519554094,-0.000161387562058802
1492618469.5,40.4718546291263,-79.9261714439036,0.0,0.0281524658203125,-0.97088623046875,0.193008422851562,-0.0192210988515379,-0.00732102983662783,-0.000177899160817293
1492618469.7,40.4718546291263,-79.9261714439036,0.0,0.0311279296875,-0.971389770507812,0.192230224609375,-0.0160189139568266,-0.0062781359537528,-0.000147805440499398
1492618469.9,40.4718546291263,-79.9261714439036,0.0,0.0291748046875,-0.968917846679688,0.186660766601562,-0.0192197672709929,-0.00519343044176352,0.000882837901361267
1492618470.1,40.4718546291263,-79.9261714439036,0.0,0.0304718017578125,-0.970062255859375,0.184585571289062,-0.0160189139568266,-0.0062781359537528,-0.000147805440499398
1492618470.3,40.4718546052781,-79.9261714544429,0.0,0.0290679931640625,-0.969314575195312,0.1866455078125,-0.020300478041347,-0.00731383930168461,0.000877245263072101
1492618470.5,40.4718546052781,-79.9261714544429,0.0,0.0312042236328125,-0.969955444335938,0.189605712890625,-0.0170836457606403,-0.00627121173491859,-0.000158724400968723
1492618470.7,40.4718546052781,-79.9261714544429,0.0,0.02862548828125,-0.970626831054688,0.190780639648438,-0.0192357462375333,-0.00732076352051882,0.000888164223541426
1492618470.9,40.4718546052781,-79.9261714544429,0.0,0.0303955078125,-0.970504760742188,0.188980102539062,-0.0181337301784585,-0.00626455383219339,-0.00123570674579677
1492618471.1,40.4718546052781,-79.9261714544429,0.0,0.0265960693359375,-0.969406127929688,0.18768310546875,-0.018148377564454,-0.00626428751608438,-0.000169643361438047
1492618471.3,40.4718545814228,-79.9261714649853,0.0,0.0305023193359375,-0.970855712890625,0.189407348632812,-0.0160189139568266,-0.0062781359537528,-0.000147805440499398
1492618471.5,40.4718545814228,-79.9261714649853,0.0,0.029815673828125,-0.972900390625,0.186676025390625,-0.0170982931466357,-0.00627094541880958,0.000907338983389996
1492618471.7,40.4718545814228,-79.9261714649853,0.0,0.0324249267578125,-0.969894409179688,0.191665649414062,-0.018148377564454,-0.00626428751608438,-0.000169643361438047
1492618471.9,40.4718545814228,-79.9261714649853,0.0,0.0287933349609375,-0.970458984375,0.188858032226562,-0.0181710144337196,-0.00732768773935302,0.000899083184010751
1492618472.1,40.4718545814228,-79.9261714649853,0.0,0.0302886962890625,-0.97015380859375,0.191329956054688,-0.0170836457606403,-0.00627121173491859,-0.000158724400968723
1492618472.3,40.4718545575554,-79.9261714755331,0.0,0.029388427734375,-0.969268798828125,0.191726684570312,-0.0202778411720813,-0.00625043907841597,-0.000191481282376697
1492618472.5,40.4718545575554,-79.9261714755331,0.0,0.0298309326171875,-0.9705810546875,0.192855834960938,-0.0160042665708312,-0.0062784022698618,-0.00121386882485812
1492618472.7,40.4718545575554,-79.9261714755331,0.0,0.030670166015625,-0.97283935546875,0.188827514648438,-0.0192357462375333,-0.00732076352051882,0.000888164223541426
1492618472.9,40.4718545575554,-79.9261714755331,0.0,0.0275421142578125,-0.969345092773438,0.194076538085938,-0.0170689983746449,-0.0062714780510276,-0.00122478778532744
1492618473.1,40.4718545575554,-79.9261714755331,0.0,0.029571533203125,-0.9718017578125,0.1907958984375,-0.0192131093682677,-0.00625736329725018,-0.000180562321907372
1492618473.3,40.4718545336914,-79.9261714860794,0.0,0.0314178466796875,-0.973785400390625,0.181228637695312,-0.0214704047082188,-0.011560249659816,0.00620729586875669
1492618473.5,40.4718545336914,-79.9261714860794,0.0,0.021392822265625,-0.968414306640625,0.18798828125,-0.0160814982424435,-0.0126598688739097,0.000934236910399797
1492618473.7,40.4718545336914,-79.9261714860794,0.0,0.025543212890625,-0.968734741210938,0.186874389648438,-0.0160561982120877,-0.00734126986091243,0.00198698448930812
1492618473.9,40.4718545336914,-79.9261714860794,0.0,0.030517578125,-0.967178344726562,0.186767578125,-0.019190472499002,-0.00519396307398154,-0.00124928886735617
1492618474.1,40.4718545336914,-79.9261714860794,0.0,0.029541015625,-0.97125244140625,0.191513061523438,-0.0159962770875609,-0.00521473573048416,-0.0012165319859482
1492618474.3,40.4718545097673,-79.9261714966522,0.0,0.032928466796875,-0.969268798828125,0.188674926757812,-0.0171129405326312,-0.00627067910270057,0.00197340236774872
1492618474.5,40.4718545097673,-79.9261714966522,0.0,0.0274505615234375,-0.972412109375,0.188751220703125,-0.0170996247271808,-0.00839854481367389,-0.000153398078788564
1492618474.7,40.4718545097673,-79.9261714966522,0.0,0.0249176025390625,-0.9647216796875,0.183425903320312,-0.0162639247771139,-0.0232946700549231,0.00842331221181162
1492618474.9,40.4718545097673,-79.9261714966522,0.0,0.0316619873046875,-0.973556518554688,0.190750122070312,-0.0138601555772084,-0.00629251702363922,-0.00225809428827819
1492618475.1,40.4718545097673,-79.9261714966522,0.0,0.0249176025390625,-0.970932006835938,0.18231201171875,-0.00628852228200411,-0.00421551768948643,-0.0096494315776841
1492618475.3,40.4718544858421,-79.9261715072255,0.0,0.02935791015625,-0.973785400390625,0.180877685546875,-0.011798602577378,-0.00949656613111356,0.000969923269006859
1492618475.5,40.4718544858421,-79.9261715072255,0.0,0.0331268310546875,-0.970230102539062,0.188186645507812,-0.0191891409184569,-0.00306636367911724,-0.00018855180517761
1492618475.7,40.4718544858421,-79.9261715072255,0.0,0.031463623046875,-0.96826171875,0.185440063476562,-0.0191744935324615,-0.00306662999522624,-0.00125461518953633
1492618475.9,40.4718544858421,-79.9261715072255,0.0,0.0292205810546875,-0.9737548828125,0.186141967773438,-0.0160508718899076,-0.0105328021112634,-0.000137152796139081
1492618476.1,40.4718544858421,-79.9261715072255,0.0,0.0289154052734375,-0.969528198242188,0.189651489257812,-0.0149768190222786,-0.00734846039585564,0.000931840065418725
1492618476.3,40.4718542905075,-79.9261715935502,0.0,0.02838134765625,-0.970108032226562,0.189285278320312,-0.0181417196617288,-0.00732822037157104,-0.00123304358470669
1492618476.5,40.4718542905075,-79.9261715935502,0.0,0.0283966064453125,-0.972503662109375,0.188751220703125,-0.0160269034400969,-0.00734180249313044,-0.000145142279409318
1492618476.7,40.4718542905075,-79.9261715935502,0.0,0.0306243896484375,-0.974014282226562,0.188385009765625,-0.0160335613428221,-0.00627786963764379,0.000918257943859321
1492618476.9,40.4718542905075,-79.9261715935502,0.0,0.028228759765625,-0.968521118164062,0.18951416015625,-0.0138974398324695,-0.00735565093079886,-0.000123304358470669
1492618477.1,40.4718542905075,-79.9261715935502,0.0,0.0288543701171875,-0.971206665039062,0.187286376953125,-0.0181563670477242,-0.00732795405546203,-0.000166980200347968
1492618477.3,40.471854266589,-79.9261716041205,0.0,0.0283050537109375,-0.967330932617188,0.185943603515625,-0.0149621716362832,-0.00734872671196465,-0.000134223318939994
1492618477.5,40.471854266589,-79.9261716041205,0.0,0.030303955078125,-0.967620849609375,0.189895629882812,-0.0149608400557381,-0.00522112731710035,0.000926513743238567
1492618477.7,40.471854266589,-79.9261716041205,0.0,0.027618408203125,-0.970504760742188,0.185089111328125,-0.0160255718595518,-0.00521420309826614,0.000915594782769242
1492618477.9,40.471854266589,-79.9261716041205,0.0,0.0303802490234375,-0.968429565429688,0.186508178710938,-0.0170769878579151,-0.00733514459040525,-0.00122212462423736
1492618478.1,40.471854266589,-79.9261716041205,0.0,0.0291595458984375,-0.969039916992188,0.190643310546875,-0.0149754874417336,-0.00522086100099134,0.00199257712759729
1492618478.3,40.4718543148353,-79.9261715827989,0.0,0.029266357421875,-0.968215942382812,0.187637329101562,-0.0224219521657041,-0.00623632432463855,0.000852744181043372
1492618478.5,40.4718543148353,-79.9261715827989,0.0,0.0281829833984375,-0.972076416015625,0.193572998046875,-0.018148377564454,-0.00626428751608438,-0.000169643361438047
1492618478.7,40.4718543148353,-79.9261715827989,0.0,0.0289154052734375,-0.970932006835938,0.187362670898438,-0.0181417196617288,-0.00732822037157104,-0.00123304358470669
1492618478.9,40.4718543148353,-79.9261715827989,0.0,0.027069091796875,-0.967941284179688,0.189071655273438,-0.0170916352439105,-0.00733487827429624,-0.000156061239878643
1492618479.1,40.4718543148353,-79.9261715827989,0.0,0.0276031494140625,-0.971572875976562,0.1900634765625,-0.018149709144999,-0.00839188691094869,-0.00123038042361661
1492618479.3,40.4718549278165,-79.9261713119028,0.0,0.029510498046875,-0.969009399414062,0.184585571289062,-0.0181337301784585,-0.00626455383219339,-0.00123570674579677
1492618479.5,40.4718549278165,-79.9261713119028,0.0,0.0301513671875,-0.966110229492188,0.191696166992188,-0.0202778411720813,-0.00625043907841597,-0.000191481282376697
1492618479.7,40.4718549278165,-79.9261713119028,0.0,0.0295257568359375,-0.96881103515625,0.1888427734375,-0.0202765095915363,-0.00412283968355167,0.000869255779801863
1492618479.9,40.4718549278165,-79.9261713119028,0.0,0.028533935546875,-0.968048095703125,0.190078735351562,-0.0202778411720813,-0.00625043907841597,-0.000191481282376697
1492618480.1,40.4718549278165,-79.9261713119028,0.0,0.031494140625,-0.969833374023438,0.19293212890625,-0.0160042665708312,-0.0062784022698618,-0.00121386882485812
1492618480.3,40.4718549039298,-79.9261713224591,0.0,0.028961181640625,-0.97027587890625,0.188812255859375,-0.0192064514655425,-0.00732129615273683,-0.00124396254517601
1492618480.5,40.4718549039298,-79.9261713224591,0.0,0.029632568359375,-0.969970703125,0.19000244140625,-0.0202552043028157,-0.00518703885514733,-0.0012602078278255
1492618480.7,40.4718549039298,-79.9261713224591,0.0,0.0289459228515625,-0.971115112304688,0.191497802734375,-0.0202858306553516,-0.00731410561779362,-0.000188818121286618
1492618480.9,40.4718549039298,-79.9261713224591,0.0,0.0302734375,-0.970443725585938,0.190948486328125,-0.0170903036633655,-0.00520727887943193,0.000904675822299917
1492618481.1,40.4718549039298,-79.9261713224591,0.0,0.0303497314453125,-0.970382690429688,0.188766479492188,-0.0192051198849974,-0.00519369675787253,-0.000183225482997452
1492618481.3,40.471854880022,-79.9261713330247,0.0,0.0318450927734375,-0.966873168945312,0.189163208007812,-0.0192210988515379,-0.00732102983662783,-0.000177899160817293
1492618481.5,40.471854880022,-79.9261713330247,0.0,0.028167724609375,-0.9583740234375,0.232162475585938,-0.0128247185453856,-0.00629890861025541,-0.000115048559091423
1492618481.7,40.471854880022,-79.9261713330247,0.0,0.0347747802734375,-0.96710205078125,0.242324829101562,-0.0128007500955749,-0.00310790899212247,-0.000123038042361661
1492618481.9,40.471854880022,-79.9261713330247,0.0,0.034698486328125,-0.94451904296875,0.265106201171875,-0.0180711458928417,0.000117179087963486,-0.00231774909669596
1492618482.1,40.471854880022,-79.9261713330247,0.0,0.0363006591796875,-0.9569091796875,0.261581420898438,-0.011897139537711,-0.0148138335635658,0.00524749261189213
1492618482.3,40.4718553486394,-79.9261711259276,0.259999990463257,0.0209197998046875,-0.959793090820312,0.2701416015625,-0.0180338616375806,0.00118031299512312,-0.00445253902650348
1492618482.5,40.4718553486394,-79.9261711259276,0.259999990463257,0.0251922607421875,-0.949737548828125,0.270431518554688,-0.0096225336506743,-0.00525601472738038,-8.49548387735277e-05
1492618482.7,40.4718553486394,-79.9261711259276,0.259999990463257,0.0253448486328125,-0.954193115234375,0.26055908203125,-0.0202858306553516,-0.00731410561779362,-0.000188818121286618
1492618482.9,40.4718553486394,-79.9261711259276,0.259999990463257,0.0245208740234375,-0.962066650390625,0.263259887695312,-0.0192836831371548,-0.0137027627567847,0.000904143190081901
1492618483.1,40.4718553486394,-79.9261711259276,0.259999990463257,0.027587890625,-0.946075439453125,0.267364501953125,-0.0267621057942063,-0.00727096240813434,0.00614204842204975
1492618483.3,40.4718492149897,-79.9261738365846,1.00999999046326,0.0286712646484375,-0.955612182617188,0.26806640625,-0.0138348555468526,-0.000973918010641977,-0.00120534670936986
1492618483.5,40.4718492149897,-79.9261738365846,1.00999999046326,0.0368194580078125,-0.958724975585938,0.269668579101562,-0.0139919820511673,-0.00629012017865815,0.00733647617095029
1492618483.7,40.4718492149897,-79.9261738365846,1.00999999046326,0.0294647216796875,-0.9422607421875,0.255477905273438,-0.021477062610944,-0.0104963168043293,0.00727069609202533
1492618483.9,40.4718492149897,-79.9261738365846,1.00999999046326,0.0301055908203125,-0.961090087890625,0.252883911132812,-0.0233841522675498,-0.0062312643185674,-0.00662061846993699
1492618484.1,40.4718492149897,-79.9261738365846,1.00999999046326,0.05059814453125,-0.98101806640625,0.2432861328125,-0.0211468306357742,0.00226342061045834,-0.00981827599079513
1492618484.3,40.4718372582502,-79.9261791206522,1.62999999523163,0.0093536376953125,-0.950790405273438,0.260971069335938,-0.010655307521407,-0.000994424351035588,-0.00010652644360317
1492618484.5,40.4718372582502,-79.9261791206522,1.62999999523163,0.0178375244140625,-0.97186279296875,0.248580932617188,-0.0201100620234063,0.00438462841870646,-0.0066144931994298
1492618484.7,40.4718372582502,-79.9261791206522,1.62999999523163,0.018096923828125,-0.944549560546875,0.25103759765625,-0.0178913825192613,0.0064967814792483,-0.0119282985224649
1492618484.9,40.4718372582502,-79.9261791206522,1.62999999523163,0.037384033203125,-0.951385498046875,0.2384033203125,-0.0255655475164337,-0.00728028347194961,-0.0034416030767094
1492618485.1,40.4718372582502,-79.9261791206522,1.62999999523163,0.039215087890625,-0.950302124023438,0.241317749023438,-0.0242558048923327,0.0214312562401947,-0.00563471623438965
1492618485.3,40.4718196037231,-79.9261869227553,2.1800000667572,0.0158843994140625,-0.98284912109375,0.236923217773438,-0.0106459864575918,-0.00950508824660181,-0.00541553807667613
1492618485.5,40.4718196037231,-79.9261869227553,2.1800000667572,0.04779052734375,-0.96044921875,0.257492065429688,-0.0290939696446796,-0.0147001165850194,0.0167994864723288
1492618485.7,40.4718196037231,-79.9261869227553,2.1800000667572,0.00238037109375,-0.937164306640625,0.237503051757812,-0.0179899194795943,-0.0105224157830121,-0.0140178147137411
1492618485.9,40.4718196037231,-79.9261869227553,2.1800000667572,0.0514068603515625,-0.959426879882812,0.229324340820312,-0.0233615153982841,-0.00516786409529876,-0.00768934501538578
1492618486.1,40.4718196037231,-79.9261869227553,2.1800000667572,0.0254669189453125,-0.955322265625,0.228530883789062,-0.00522911680037058,-0.00103090965796967,-0.00751437533176758
1492618486.3,40.4717988077058,-79.9261961131839,2.65000009536743,0.0765228271484375,-0.94091796875,0.254226684570312,-0.00866166512937371,-0.00738867412831584,0.00632767075002827
1492618486.5,40.4717988077058,-79.9261961131839,2.65000009536743,0.05133056640625,-0.948089599609375,0.282241821289062,-0.0168985560648798,0.0203207180656316,0.000840759956138016
1492618486.7,40.4717988077058,-79.9261961131839,2.65000009536743,0.0019073486328125,-0.944610595703125,0.268463134765625,-0.0156766977567514,0.0139280661850054,-0.0140572294978743
1492618486.9,40.4717988077058,-79.9261961131839,2.65000009536743,0.04107666015625,-0.950393676757812,0.288543701171875,0.00579903327364754,0.0222967835944704,-0.0223886626520781
1492618487.1,40.4717988077058,-79.9261961131839,2.65000009536743,0.0421905517578125,-0.950042724609375,0.283767700195312,-0.012537097147657,0.00858922714772356,-0.0129450934266572
1492618487.3,40.4717728981538,-79.9262075634479,3.29999995231628,0.0584869384765625,-0.931655883789062,0.281539916992188,-0.00825686464368167,0.0309011907604074,-0.00229671012408434
1492618487.5,40.4717728981538,-79.9262075634479,3.29999995231628,-0.01373291015625,-0.927093505859375,0.316329956054688,-0.000556068035608545,0.0287205944598505,-0.0214040919970758
1492618487.7,40.4717728981538,-79.9262075634479,3.29999995231628,0.04461669921875,-0.959152221679688,0.29168701171875,-0.0261069681660468,0.0331419745016001,-0.0195446729239825
1492618487.9,40.4717728981538,-79.9262075634479,3.29999995231628,0.0688018798828125,-0.923721313476562,0.309234619140625,-0.0118505342186346,0.00114249610764399,0.0105378621173345
1492618488.1,40.4717728981538,-79.9262075634479,3.29999995231628,0.0711822509765625,-0.933334350585938,0.306381225585938,-0.00205888983874026,0.00745924789720294,-0.00110654343292792
1492618488.3,40.4717402903566,-79.9262219738818,4.32999992370605,0.0323638916015625,-0.957077026367188,0.316268920898438,-0.0229939991678531,0.0203569370564567,-0.0205460214938523
1492618488.5,40.4717402903566,-79.9262219738818,4.32999992370605,0.0491485595703125,-0.919540405273438,0.248825073242188,-0.0412129505011942,0.00664725008083778,-0.0196309593433011
1492618488.7,40.4717402903566,-79.9262219738818,4.32999992370605,0.0449066162109375,-0.962539672851562,0.257492065429688,0.0131496241983752,0.022250178275394,-0.0148497862382818
1492618488.9,40.4717402903566,-79.9262219738818,4.32999992370605,0.101333618164062,-0.956497192382812,0.273284912109375,-0.0295661481059507,0.0076360817935842,-0.014183197017435
1492618489.1,40.4717402903566,-79.9262219738818,4.32999992370605,0.0384368896484375,-0.982162475585938,0.260971069335938,-0.00937406072096991,-0.0690768060383663,0.0246052116273511
1492618489.3,40.4716972355337,-79.9262410011922,5.1100001335144,0.0445709228515625,-0.942474365234375,0.239273071289062,-0.0350469336293338,-0.00934742911006912,-0.0120630544736229
1492618489.5,40.4716972355337,-79.9262410011922,5.1100001335144,0.0993499755859375,-0.967971801757812,0.249542236328125,-0.056364206574873,0.00142958487315454,-0.00484562160339917
1492618489.7,40.4716972355337,-79.9262410011922,5.1100001335144,0.00775146484375,-1.00352478027344,0.22412109375,0.000131826473958922,-0.0117043266747892,-0.0159616559933899
1492618489.9,40.4716972355337,-79.9262410011922,5.1100001335144,0.06298828125,-0.939743041992188,0.268630981445312,0.0740670372889567,-0.00048869006002954,-0.0429551904863241
1492618490.1,40.4716972355337,-79.9262410011922,5.1100001335144,0.069610595703125,-1.00038146972656,0.225189208984375,0.0436793039867166,0.0284385657004111,0.0142345960264735
1492618490.3,40.4716522294333,-79.9262608908348,5.67000007629395,0.0454559326171875,-1.02079772949219,0.235076904296875,-0.00537559066032494,-0.00102824649687959,0.00314625851181961
1492618490.5,40.4716522294333,-79.9262608908348,5.67000007629395,-0.0101165771484375,-0.912979125976562,0.216842651367188,-0.0702350147964417,0.00152013235021723,-0.00285544132078296
1492618490.7,40.4716522294333,-79.9262608908348,5.67000007629395,0.0022430419921875,-1.06782531738281,0.210494995117188,-0.00447064852191602,-0.0106065716734586,0.00957752622825196
1492618490.9,40.4716522294333,-79.9262608908348,5.67000007629395,-0.0442352294921875,-0.947219848632812,0.24212646484375,0.0433970089111682,-0.0130449619675351,0.0122063325402692
1492618491.1,40.4716522294333,-79.9262608908348,5.67000007629395,0.0528411865234375,-0.981277465820312,0.26898193359375,0.0335872550358613,0.0146681586519384,-0.033812824780191
1492618491.3,40.4716015890961,-79.9262832704278,5.96000003814697,0.0377655029296875,-0.936386108398438,0.267440795898438,-0.0853822761284854,-0.00901666450268128,0.00874502207149319
1492618491.5,40.4716015890961,-79.9262832704278,5.96000003814697,0.0348358154296875,-0.952484130859375,0.202682495117188,-0.0105714179470695,-0.0190807502620907,-0.0160522034704526
1492618491.7,40.4716015890961,-79.9262832704278,5.96000003814697,0.051483154296875,-0.992507934570312,0.207061767578125,0.0273354843769003,-0.0523004890675211,-0.00278380228745983
1492618491.9,40.4716015890961,-79.9262832704278,5.96000003814697,0.0489959716796875,-0.882064819335938,0.2774658203125,-0.0268939322681652,-0.0306724252227696,0.00300244781295533
1492618492.1,40.4716015890961,-79.9262832704278,5.96000003814697,0.0536651611328125,-1.01577758789062,0.232574462890625,-0.0302026436064796,-0.0497981829072827,0.000885501062451347
1492618492.3,40.4715500879511,-79.9263060304394,6.3899998664856,0.0795135498046875,-0.90936279296875,0.285964965820312,0.0613243441051456,-0.079115858083529,-0.0108963236000592
1492618492.5,40.4715500879511,-79.9263060304394,6.3899998664856,0.0520477294921875,-0.898666381835938,0.31939697265625,-0.0274113844679676,-0.0104630272907033,-0.0258427825859109
1492618492.7,40.4715500879511,-79.9263060304394,6.3899998664856,0.050933837890625,-0.90570068359375,0.299163818359375,-0.0436380249898204,0.0141131558807659,0.00591408183273896
1492618492.9,40.4715500879511,-79.9263060304394,6.3899998664856,0.111953735351562,-0.877044677734375,0.260025024414062,0.078445274121047,-0.0600795826116426,-0.00650530359473655
1492618493.1,40.4715500879511,-79.9263060304394,6.3899998664856,0.103775024414062,-0.961746215820312,0.274337768554688,-0.00169590098216246,-0.0489169429025754,0.0193007273681313
1492618493.3,40.4715483283824,-79.9263068080494,7.21000003814697,0.0545501708984375,-0.922775268554688,0.258224487304688,-0.0782660433796847,-0.0207609385938217,0.0269738271008676
1492618493.5,40.4715483283824,-79.9263068080494,7.21000003814697,0.0791015625,-0.970748901367188,0.31915283203125,0.0459379309072128,0.0358690514578412,0.00890747489798803
1492618493.7,40.4715483283824,-79.9263068080494,7.21000003814697,0.0370025634765625,-0.904464721679688,0.368682861328125,-0.0727226735706848,-0.00909762459981969,0.0174045566719948
1492618493.9,40.4715483283824,-79.9263068080494,7.21000003814697,0.0708465576171875,-0.950958251953125,0.3372802734375,-0.0413679464766368,-0.0465280874047744,0.0402126671957605
1492618494.1,40.4715483283824,-79.9263068080494,7.21000003814697,0.0665740966796875,-0.952468872070312,0.220428466796875,-0.054313306219403,0.00460860026638212,0.00263067052478027
1492618494.3,40.4714240673478,-79.9263617315726,7.98999977111816,0.13238525390625,-0.961563110351562,0.325164794921875,-0.0896332138604699,0.00377662874184137,0.0150657686026873
1492618494.5,40.4714240673478,-79.9263617315726,7.98999977111816,0.06451416015625,-0.961685180664062,0.287765502929688,0.0456902569258354,0.0145973185669423,0.0153571184259419
1492618494.7,40.4714240673478,-79.9263617315726,7.98999977111816,-0.0480804443359375,-0.916671752929688,0.34661865234375,0.050920172674533,-0.0577623661471646,0.0603783892859495
1492618494.9,40.4714240673478,-79.9263617315726,7.98999977111816,0.032470703125,-0.9263916015625,0.257308959960938,0.0309331486934884,-0.027860926059973,-0.0188032488765045
1492618495.1,40.4714240673478,-79.9263617315726,7.98999977111816,0.0547943115234375,-0.915969848632812,0.294769287109375,-0.0282516117918876,-0.0423621045115634,0.0179457110054989
1492618495.3,40.4713501140387,-79.9263944190398,8.61999988555908,0.051300048828125,-0.935989379882812,0.34722900390625,-0.029309153060758,0.0203971507889169,-0.0259418521784619
1492618495.5,40.4713501140387,-79.9263944190398,8.61999988555908,0.0802001953125,-0.920516967773438,0.2740478515625,-0.126306273651406,0.0146463207309998,-0.0226552450771951
1492618495.7,40.4713501140387,-79.9263944190398,8.61999988555908,0.07000732421875,-0.99267578125,0.287872314453125,-0.0661119087967811,0.00681396396507674,0.00996767932794857
1492618495.9,40.4713501140387,-79.9263944190398,8.61999988555908,0.0717926025390625,-0.945816040039062,0.224563598632812,-0.0367241924838657,-0.00507412082492797,0.0348221628333311
1492618496.1,40.4713501140387,-79.9263944190398,8.61999988555908,0.0760955810546875,-0.910293579101562,0.319091796875,-0.0378688191203817,-0.0391077216594866,0.0221037044154397
1492618496.3,40.4712748300648,-79.9264276946627,9.18000030517578,0.0999298095703125,-0.96209716796875,0.249801635742188,-0.0570414484400802,0.0237695116772842,-0.0209034177121409
1492618496.5,40.4712748300648,-79.9264276946627,9.18000030517578,0.11090087890625,-0.955520629882812,0.200149536132812,-0.0477970836641971,0.0215857195834193,0.00265357371015495
1492618496.7,40.4712748300648,-79.9264276946627,9.18000030517578,0.109375,-0.960037231445312,0.222152709960938,-0.0157406136229133,0.0288225935296006,-0.00130175314083073
1492618496.9,40.4712748300648,-79.9264276946627,9.18000030517578,0.0037841796875,-1.00175476074219,0.189666748046875,0.0217548303126393,-0.0182192176494501,0.0343886002078662
1492618497.1,40.4712748300648,-79.9264276946627,9.18000030517578,0.0753631591796875,-0.967605590820312,0.203475952148438,-0.0416816668530482,-0.00504615763348214,0.00811598342201648
1492618497.3,40.4711935357802,-79.9264636268514,9.4399995803833,0.039520263671875,-1.01638793945312,0.198196411132812,0.015863651665275,0.0552038672879255,-0.0394299641513862
1492618497.5,40.4711935357802,-79.9264636268514,9.4399995803833,0.0859527587890625,-0.980178833007812,0.129196166992188,0.0199324291786981,-0.0820272257872036,0.0547926752156173
1492618497.7,40.4711935357802,-79.9264636268514,9.4399995803833,0.006866455078125,-1.00331115722656,0.206436157226562,-0.06496861374081,-0.00808775391446164,-0.00384294145298434
1492618497.9,40.4711935357802,-79.9264636268514,9.4399995803833,0.0477294921875,-0.985382080078125,0.2010498046875,0.0101711448352306,0.0158841580056686,-0.0340557050716063
1492618498.1,40.4711935357802,-79.9264636268514,9.4399995803833,0.0486602783203125,-0.919662475585938,0.209823608398438,-0.0383942608034544,-0.00826006043698977,-0.000371777288175062
1492618498.3,40.4711137945408,-79.9264988725919,9.17000007629395,0.0518341064453125,-0.998336791992188,0.19134521484375,-0.00735991198854298,-0.00314466061516556,-0.00859695031488479
1492618498.5,40.4711137945408,-79.9264988725919,9.17000007629395,0.06463623046875,-0.938644409179688,0.17864990234375,-0.0262686220442146,-0.0306713599583336,0.0349952683041862
1492618498.7,40.4711137945408,-79.9264988725919,9.17000007629395,0.0278472900390625,-0.994430541992188,0.228469848632812,0.0462756197334349,-0.0375276681847426,0.0218949125859774
1492618498.9,40.4711137945408,-79.9264988725919,9.17000007629395,0.00537109375,-0.9532470703125,0.239837646484375,-0.0472689788200344,-0.0284106025089653,0.0145163584698039
1492618499.1,40.4711137945408,-79.9264988725919,9.17000007629395,0.06707763671875,-1.02268981933594,0.186691284179688,0.00551008029537394,0.0169829782714353,-0.00425226931252952
1492618499.3,40.4710360157661,-79.9265329828353,9.07999992370605,0.076934814453125,-0.9049072265625,0.208221435546875,-0.00618998532167117,0.012803679572774,-0.00755991538640793
1492618499.5,40.4710360157661,-79.9265329828353,9.07999992370605,0.0770721435546875,-0.981170654296875,0.210662841796875,-0.0841710704647174,0.00267567794720261,0.00446239272253677
1492618499.7,40.4710360157661,-79.9265329828353,9.07999992370605,0.1187744140625,-0.988906860351562,0.216888427734375,0.0101711448352306,0.0275860878354768,-0.0276886195374448
1492618499.9,40.4710360157661,-79.9265329828353,9.07999992370605,0.107986450195312,-0.972625732421875,0.1968994140625,-0.00056059540946168,-0.0414784676618751,0.0182269408166113
1492618500.1,40.4710360157661,-79.9265329828353,9.07999992370605,0.130172729492188,-0.9591064453125,0.17779541015625,0.00519103359678245,0.0499545104632703,-0.0405919013349877
1492618500.3,40.4709541976076,-79.9265686544042,9.02000045776367,0.0175933837890625,-0.941787719726562,0.170791625976562,0.0145999817280324,-0.0447714663497581,-0.00186740855636356
1492618500.5,40.4709541976076,-79.9265686544042,9.02000045776367,-0.0009765625,-1.00639343261719,0.192153930664062,0.0355031331240643,-0.0385199620069061,0.030316893217244
1492618500.7,40.4709541976076,-79.9265686544042,9.02000045776367,-0.013336181640625,-0.927566528320312,0.207855224609375,-0.00326556812865516,0.0542640377392365,-0.0428220324318201
1492618500.9,40.4709541976076,-79.9265686544042,9.02000045776367,0.0268096923828125,-1.00244140625,0.231658935546875,0.00160801666618984,0.013812751309805,-0.0320056036644633
1492618501.1,40.4709541976076,-79.9265686544042,9.02000045776367,-0.0003204345703125,-0.946746826171875,0.201751708984375,-0.0337065646526969,0.0214911773647214,-0.015327557337842
1492618501.3,40.4708779701992,-79.9266018884846,8.93000030517578,-0.0217437744140625,-0.981903076171875,0.18133544921875,-0.0204229834514907,-0.00412017652246159,0.0115298896233891
1492618501.5,40.4708779701992,-79.9266018884846,8.93000030517578,0.0675048828125,-0.921844482421875,0.199905395507812,-0.0621805503956061,-0.0251221311949355,0.0164876303086806
1492618501.7,40.4708779701992,-79.9266018884846,8.93000030517578,0.0642547607421875,-0.944656372070312,0.209915161132812,0.015828497938886,0.0062815980631699,0.0140066294371627
1492618501.9,40.4708779701992,-79.9266018884846,8.93000030517578,0.0402984619140625,-0.962265014648438,0.213027954101562,0.0101932490722783,-0.011762916218771,0.0267900689856521
1492618502.1,40.4708779701992,-79.9266018884846,8.93000030517578,0.01141357421875,-0.955947875976562,0.175506591796875,-0.0513862258652969,0.0386222273927651,-0.0368770579304362
1492618502.3,40.4708020324665,-79.9266349962705,8.85999965667725,0.034881591796875,-0.972183227539062,0.2396240234375,-0.0509686422063725,0.0109679626333823,-0.00481499525086326
1492618502.5,40.4708020324665,-79.9266349962705,8.85999965667725,0.0715484619140625,-0.95904541015625,0.233474731445312,0.00150548496422179,0.0255165453523762,-0.0181760744397908
1492618502.7,40.4708020324665,-79.9266349962705,8.85999965667725,0.065338134765625,-0.90802001953125,0.1822509765625,-0.0471278312822602,-0.00181787376008809,0.0187140329799868
1492618502.9,40.4708020324665,-79.9266349962705,8.85999965667725,0.04083251953125,-0.97723388671875,0.21978759765625,-0.00555135929227017,-0.0010250507035715,0.0159390191241242
1492618503.1,40.4708020324665,-79.9266349962705,8.85999965667725,0.077880859375,-0.960372924804688,0.207672119140625,5.06000607115055e-05,0.0340410576856108,0.0148396662261395
1492618503.3,40.4707275835985,-79.9266674549322,8.76000022888184,0.0337371826171875,-0.9976806640625,0.188629150390625,-0.00553751085460176,0.0606633475225879,-0.0290010253226359
1492618503.5,40.4707275835985,-79.9266674549322,8.76000022888184,-0.030853271484375,-0.94244384765625,0.199691772460938,0.000849015755517261,-0.00532206112241435,0.0128169953782243
1492618503.7,40.4707275835985,-79.9266674549322,8.76000022888184,0.038055419921875,-0.897750854492188,0.209976196289062,-0.0733586364389957,0.0206882342960625,0.00239418181998124
1492618503.9,40.4707275835985,-79.9266674549322,8.76000022888184,0.035888671875,-1.02058410644531,0.21142578125,-0.0367268556449558,-0.0327331792742729,0.0199665176406511
1492618504.1,40.4707275835985,-79.9266674549322,8.76000022888184,0.0089874267578125,-0.934097290039062,0.21868896484375,-0.0074411384017904,-0.0276108552336145,-0.015998141300324
1492618504.3,40.4706751037884,-79.926690335393,8.63000011444092,0.0626068115234375,-0.994674682617188,0.210220336914062,-0.00323813756942735,-0.0116803582249785,-0.00320165226249326
1492618504.5,40.4706751037884,-79.926690335393,8.63000011444092,0.0206756591796875,-0.953811645507812,0.2041015625,-0.00319819015307616,-0.0180639553578985,-0.0095820536021051
1492618504.7,40.4706751037884,-79.926690335393,8.63000011444092,0.048583984375,-0.965057373046875,0.205429077148438,0.00152226287908929,-0.0340447861111369,0.0256925803004304
1492618504.9,40.4706751037884,-79.926690335393,8.63000011444092,0.0150604248046875,-0.936569213867188,0.206451416015625,-0.0874704607392165,-0.0132588138030685,0.00340351987312127
1492618505.1,40.4706751037884,-79.926690335393,8.63000011444092,0.076812744140625,-1.05149841308594,0.211227416992188,-0.0674570714633801,0.0312812238479617,-0.0338240100567694
1492618505.3,40.4705807591468,-79.9267318934728,8.4399995803833,0.103012084960938,-0.952926635742188,0.213531494140625,-0.0530283309934398,0.0918178049026619,-0.0434284342120311
1492618505.5,40.4705807591468,-79.9267318934728,8.4399995803833,-0.0178680419921875,-0.983245849609375,0.195602416992188,0.000521446941437515,-0.0489323892368979,0.0129261849829176
1492618505.7,40.4705807591468,-79.9267318934728,8.4399995803833,0.0933685302734375,-0.979141235351562,0.166641235351562,-0.0224871996124111,-0.0285751858643322,-0.006553773126576
1492618505.9,40.4705807591468,-79.9267318934728,8.4399995803833,0.0351715087890625,-0.9254150390625,0.239425659179688,0.00615536422750014,-0.00961161469020498,0.0118161794405726
1492618506.1,40.4705807591468,-79.9267318934728,8.4399995803833,0.0706634521484375,-1.00076293945312,0.184494018554688,0.0531513690358014,0.00391058574467235,0.00906380245397568
1492618506.3,40.4705068250669,-79.9267644743938,8.38000011444092,0.0210418701171875,-0.949737548828125,0.27960205078125,-0.00867364935427907,-0.0148351388522864,0.00314812272458267
1492618506.5,40.4705068250669,-79.9267644743938,8.38000011444092,0.007568359375,-0.957015991210938,0.250717163085938,-0.0208743892562591,-0.0349625114227783,0.0275980720603821
1492618506.7,40.4705068250669,-79.9267644743938,8.38000011444092,0.05670166015625,-1.00447082519531,0.257431030273438,0.0168546139068935,-0.00861798928749642,0.00872451573109958
1492618506.9,40.4705068250669,-79.9267644743938,8.38000011444092,0.084930419921875,-0.941497802734375,0.20050048828125,-0.0226158302930619,0.0512006035373184,-0.0312838870090518
1492618507.1,40.4705068250669,-79.9267644743938,8.38000011444092,0.0179901123046875,-0.95050048828125,0.256256103515625,-0.0254270631397495,-0.0200485430022255,-0.020466659293368
1492618507.3,40.4704343532226,-79.9267964109436,8.56999969482422,-0.0021514892578125,-0.992996215820312,0.277816772460938,-0.0764335222336012,-0.0271522588939029,0.0451347215224449
1492618507.5,40.4704343532226,-79.9267964109436,8.56999969482422,0.083221435546875,-1.03277587890625,0.175064086914062,0.0667939443519504,-0.0961616869566901,0.0467792234955688
1492618507.7,40.4704343532226,-79.9267964109436,8.56999969482422,0.07427978515625,-0.9808349609375,0.241378784179688,0.0268947312164922,-0.0544200989791152,0.0281373621811232
1492618507.9,40.4704343532226,-79.9267964109436,8.56999969482422,0.0392608642578125,-0.914443969726562,0.212997436523438,0.0230520560796169,-0.0607704065984091,0.0718291830249632
1492618508.1,40.4704343532226,-79.9267964109436,8.56999969482422,0.067169189453125,-0.958602905273438,0.17755126953125,-0.0228967937880653,0.0235466050940446,-0.0258843278989161
1492618508.3,40.4703584734168,-79.9268298492979,8.97999954223633,-0.0009307861328125,-0.986328125,0.185989379882812,-0.0227109051439777,-0.0232520594774818,0.0126220519864305
1492618508.5,40.4703584734168,-79.9268298492979,8.97999954223633,0.020751953125,-0.987335205078125,0.09014892578125,-0.0344908655937252,-0.0380680235699197,0.00934103752345293
1492618508.7,40.4703584734168,-79.9268298492979,8.97999954223633,0.061309814453125,-1.01423645019531,0.124420166015625,-0.0119791648992854,0.0341105661900619,-0.039660593901787
1492618508.9,40.4703584734168,-79.9268298492979,8.97999954223633,0.0217742919921875,-0.974853515625,0.09552001953125,-0.0171262563380816,-0.0158447432215354,-0.00226688271987545
1492618509.1,40.4703584734168,-79.9268298492979,8.97999954223633,0.0376739501953125,-0.998275756835938,0.0671234130859375,-0.0165715198830181,-0.0466929370762503,0.0180764722150218
1492618509.3,40.4702845846022,-79.9268624102715,8.42000007629395,-0.031585693359375,-0.994598388671875,0.0959320068359375,0.010115218452339,0.0318423518896414,-0.0213028918756528
1492618509.5,40.4702845846022,-79.9268624102715,8.42000007629395,0.0383148193359375,-0.993972778320312,0.097381591796875,-0.0100361225679636,0.0404829780464035,-0.0225977207976494
1492618509.7,40.4702845846022,-79.9268624102715,8.42000007629395,0.0954132080078125,-0.996444702148438,0.0918121337890625,-0.0333683431942568,0.0353145813188867,-0.0324191925817526
1492618509.9,40.4702845846022,-79.9268624102715,8.42000007629395,0.122222900390625,-0.976593017578125,0.153579711914062,-0.00373295289996407,0.0329962995899728,-0.0203814381384854
1492618510.1,40.4702845846022,-79.9268624102715,8.42000007629395,0.067840576171875,-0.952621459960938,0.240676879882812,-0.0177489034009421,0.0352171096229898,-0.00666988695010345
1492618510.3,40.4702239412619,-79.9268891342921,7.15000009536743,0.126022338867188,-0.945343017578125,0.247955322265625,-0.0277650522607301,0.0725082891029334,-0.0324578084175587
1492618510.5,40.4702239412619,-79.9268891342921,7.15000009536743,0.0484619140625,-0.937423706054688,0.308685302734375,0.00118856879450236,0.0340328018862316,0.00952026826481526
1492618510.7,40.4702239412619,-79.9268891342921,7.15000009536743,0.07757568359375,-0.955429077148438,0.358123779296875,-0.012168249336681,0.0362416276943433,-0.0247410328429451
1492618510.9,40.4702239412619,-79.9268891342921,7.15000009536743,0.101394653320312,-0.897811889648438,0.379959106445312,-0.00116326876414661,0.0180935164459983,0.0170008214507388
1492618511.1,40.4702239412619,-79.9268891342921,7.15000009536743,0.0683746337890625,-0.924270629882812,0.403594970703125,-0.0238589938899109,0.0352535949299239,-0.0269906050157351
1492618511.3,40.4701593985122,-79.926917576686,7.90999984741211,0.120025634765625,-0.914474487304688,0.387603759765625,-0.0657923294659715,0.0376586957103745,0.00349406735018396
1492618511.5,40.4701593985122,-79.926917576686,7.90999984741211,0.108230590820312,-0.9105224609375,0.387100219726562,-0.00173265260520555,0.0606439064466304,0.00409061543436171
1492618511.7,40.4701593985122,-79.926917576686,7.90999984741211,0.0457305908203125,-0.89093017578125,0.345901489257812,-0.0529950414798138,0.109902000284845,-0.0360112642600515
1492618511.9,40.4701593985122,-79.926917576686,7.90999984741211,0.03802490234375,-0.939407348632812,0.362411499023438,-0.010889133065116,0.13303767962269,0.0123397569108821
1492618512.1,40.4701593985122,-79.926917576686,7.90999984741211,0.0938568115234375,-0.89739990234375,0.284637451171875,-0.0286244543444987,0.0172181353956893,0.0774961235085428
1492618512.3,40.470083610993,-79.9269509743718,9.47000026702881,0.0560455322265625,-0.917800903320312,0.28619384765625,-0.0435496080416298,0.113033611410669,-0.0241942858711519
1492618512.5,40.470083610993,-79.9269509743718,9.47000026702881,0.0293121337890625,-0.92437744140625,0.337646484375,-0.0184439884454528,0.00118776984617534,0.0253972357355407
1492618512.7,40.470083610993,-79.9269509743718,9.47000026702881,0.0632476806640625,-0.906387329101562,0.28546142578125,0.015055648590545,-0.109647402084633,0.0846680163241262
1492618512.9,40.470083610993,-79.9269509743718,9.47000026702881,-0.2041015625,-0.902877807617188,0.4091796875,-0.0404443622105974,-0.0497238807128695,0.0487600827143698
1492618513.1,40.470083610993,-79.9269509743718,9.47000026702881,-0.194961547851562,-0.893569946289062,0.376785278320312,-0.057942129520745,-0.0740723636111369,0.0689018363547481
1492618513.3,40.4699949523411,-79.9269900440475,10.8599996566772,-0.173843383789062,-0.916580200195312,0.297012329101562,-0.0749978120899394,-0.0824717073731378,0.0655502481228833
1492618513.5,40.4699949523411,-79.9269900440475,10.8599996566772,-0.053924560546875,-0.923004150390625,0.315048217773438,-0.111953166956424,-0.0428739640730766,0.0640034841617653
1492618513.7,40.4699949523411,-79.9269900440475,10.8599996566772,-0.0806732177734375,-0.92877197265625,0.3414306640625,-0.0791989487095394,-0.0441602708795849,0.00463416661284688
1492618513.9,40.4699949523411,-79.9269900440475,10.8599996566772,-0.029937744140625,-1.05992126464844,0.310714721679688,-0.0225005154178615,-0.0615531096427834,-0.023528229282523
1492618514.1,40.4699949523411,-79.9269900440475,10.8599996566772,-0.352035522460938,-1.08251953125,0.242782592773438,-0.229369009940819,0.0727474409688225,-0.0857007901948589
1492618514.3,40.4698953887398,-79.9270339192647,12.0,-0.347381591796875,-0.890884399414062,0.381561279296875,-0.0195907456108409,-0.358322465715763,0.145729240113572
1492618514.5,40.4698953887398,-79.9270339192647,12.0,0.1123046875,-1.04216003417969,0.32867431640625,0.0452630858869867,-0.2204724540033,0.0735349377031589
1492618514.7,40.4698953887398,-79.9270339192647,12.0,-0.0186004638671875,-1.05906677246094,0.337203979492188,0.0963473092846687,-0.119767147910825,-0.0242936217798118
1492618514.9,40.4698953887398,-79.9270339192647,12.0,0.138671875,-0.924407958984375,0.24273681640625,-0.0922676128107763,0.0835606739428712,-0.0598020812260563
1492618515.1,40.4698953887398,-79.9270339192647,12.0,-0.0235443115234375,-0.802505493164062,0.30218505859375,0.0346687647545425,-0.0683039566900253,-0.00266742214782337
1492618515.3,40.4697870484915,-79.9270816621334,13.1999998092651,-0.0167999267578125,-1.00270080566406,0.230682373046875,-0.137387953263335,0.0551234398230051,-0.124163494238328
1492618515.5,40.4697870484915,-79.9270816621334,13.1999998092651,-0.0069427490234375,-0.835403442382812,0.3089599609375,-0.0255263990484095,0.0246209242777826,-0.0664301565470455
1492618515.7,40.4697870484915,-79.9270816621334,13.1999998092651,0.0874786376953125,-0.919952392578125,0.238113403320312,-0.00201015399079181,-0.0946551367280323,0.0172831165262872
1492618515.9,40.4697870484915,-79.9270816621334,13.1999998092651,0.023956298828125,-0.999603271484375,0.228973388671875,-0.0812985849129579,-0.0271384104562345,-0.0658013842136778
1492618516.1,40.4697870484915,-79.9270816621334,13.1999998092651,0.090728759765625,-0.863937377929688,0.217849731445312,-0.0757671993288633,0.0355880879628379,-0.0467147749971889
1492618516.3,40.4696715881328,-79.9271350979401,13.6300001144409,0.11181640625,-0.989288330078125,0.119064331054688,0.0136058236931058,-0.013915283011773,0.00977113803950072
1492618516.5,40.4696715881328,-79.9271350979401,13.6300001144409,0.124740600585938,-0.94659423828125,0.29168701171875,-0.0564560856324808,-0.0166535452445925,-0.00799853801794398
1492618516.7,40.4696715881328,-79.9271350979401,13.6300001144409,0.0424041748046875,-0.990509033203125,0.222854614257812,0.0164303723452439,0.0201002083273731,-0.0222741467252047
1492618516.9,40.4696715881328,-79.9271350979401,13.6300001144409,0.143707275390625,-0.995086669921875,0.202072143554688,-0.0841178072429158,0.0175680747629257,0.00868936200471054
1492618517.1,40.4696715881328,-79.9271350979401,13.6300001144409,0.0375518798828125,-0.999343872070312,0.14910888671875,0.0662610458178255,0.0325443611529863,0.000594417555305686
1492618517.3,40.469556148402,-79.9271886997339,13.6700000762939,0.02606201171875,-0.936843872070312,0.163070678710938,-0.0329054857968011,0.0214890468358494,0.00387250254108422
1492618517.5,40.469556148402,-79.9271886997339,13.6700000762939,0.0319061279296875,-0.934249877929688,0.16796875,0.0146132975334828,-0.0234954724011151,0.00873996206542204
1492618517.7,40.469556148402,-79.9271886997339,13.6700000762939,0.0654449462890625,-1.0194091796875,0.141006469726562,-0.0452425795465931,-0.0805369208411953,0.0711809696156379
1492618517.9,40.469556148402,-79.9271886997339,13.6700000762939,-0.03338623046875,-0.993392944335938,0.231887817382812,0.00762090177537075,-0.0128172616943334,-0.0190807502620907
1492618518.1,40.469556148402,-79.9271886997339,13.6700000762939,0.0727081298828125,-0.940170288085938,0.1993408203125,-0.049338787619244,0.110936638368341,-0.0690291354548539
1492618518.3,40.4694421185533,-79.9272416468813,13.3000001907349,-0.007965087890625,-1.03022766113281,0.216705322265625,-0.0365545491224276,0.0481009503445752,-0.0260875270900892
1492618518.5,40.4694421185533,-79.9272416468813,13.3000001907349,0.122573852539062,-0.969711303710938,0.157546997070312,-0.00330551554500635,0.0606476348721565,-0.0364416310922083
1492618518.7,40.4694421185533,-79.9272416468813,13.3000001907349,0.033294677734375,-1.03129577636719,0.139923095703125,0.00448529590791145,0.0223082351871577,-0.00427650407844924
1492618518.9,40.4694421185533,-79.9272416468813,13.3000001907349,0.11651611328125,-0.959548950195312,0.138839721679688,-0.0445424344960113,0.0758058151646695,-0.0496975154180777
1492618519.1,40.4694421185533,-79.9272416468813,13.3000001907349,0.0634613037109375,-1.02055358886719,0.12860107421875,-0.0103783387680388,0.00857484607783713,-0.0150553822744359
1492618519.3,40.4693320401943,-79.927292759245,12.9499998092651,0.154403686523438,-0.909805297851562,0.103713989257812,-0.0372517646958104,0.085334605544973,-0.0325880369948636
1492618519.5,40.4693320401943,-79.927292759245,12.9499998092651,0.120941162109375,-1.05056762695312,0.105453491210938,-6.57800789249572e-05,-0.0627512658172101,0.0481408977609264
1492618519.7,40.4693320401943,-79.927292759245,12.9499998092651,0.166275024414062,-0.856369018554688,0.0729522705078125,-0.0860677737930718,0.126062594411664,-0.100364421472944
1492618519.9,40.4693320401943,-79.927292759245,12.9499998092651,0.0531768798828125,-0.993759155273438,0.04345703125,-0.125889488940809,0.0486807205138854,-0.0344671634600235
1492618520.1,40.4693320401943,-79.927292759245,12.9499998092651,0.086151123046875,-0.961776733398438,0.170272827148438,-0.136419095258764,0.0540544469614473,-0.117753531810617
1492618520.3,40.4692257923496,-79.9273420929972,12.1000003814697,0.0313262939453125,-1.01158142089844,0.12255859375,-0.0387117096053918,-0.0752619976700753,0.0637707238824924
1492618520.5,40.4692257923496,-79.9273420929972,12.1000003814697,0.0694732666015625,-0.98193359375,0.102874755859375,-0.0360730495973413,0.0172540880704054,-0.000413855233398314
1492618520.7,40.4692257923496,-79.9273420929972,12.1000003814697,-0.044708251953125,-1.01411437988281,0.104660034179688,0.0209617409400137,-0.0405572802408167,0.00245170609952695
1492618520.9,40.4692257923496,-79.9273420929972,12.1000003814697,0.0112762451171875,-1.01438903808594,0.04315185546875,-0.0652415877525432,-0.046380015648166,-0.00481313103810021
1492618521.1,40.4692257923496,-79.9273420929972,12.1000003814697,0.0286102294921875,-1.00212097167969,0.0202484130859375,0.0494557003910985,0.0145661595821884,-0.0261865966826401
1492618521.3,40.4691309444224,-79.9273861334588,10.6499996185303,0.055145263671875,-1.0191650390625,-0.076629638671875,-0.00948884296395233,0.0489835219298274,-0.0577991177702077
1492618521.5,40.4691309444224,-79.9273861334588,10.6499996185303,0.0339202880859375,-1.03091430664062,0.028289794921875,0.00303706890712636,-0.017038904654327,0.00220749422756668
1492618521.7,40.4691309444224,-79.9273861334588,10.6499996185303,-0.01751708984375,-0.989120483398438,0.0306549072265625,0.0282276433420769,0.0274691750636223,-0.0243048070563902
1492618521.9,40.4691309444224,-79.9273861334588,10.6499996185303,0.049530029296875,-1.00334167480469,-0.0226593017578125,0.0158511348081516,-0.00435693154336963,0.0065708173575525
1492618522.1,40.4691309444224,-79.9273861334588,10.6499996185303,0.016845703125,-0.991119384765625,-0.0424041748046875,0.0354410814706655,0.0306164988398779,-0.00504722289791817
1492618522.3,40.4690501177763,-79.9274236634599,8.73999977111816,0.0086517333984375,-0.97265625,-0.0430450439453125,-0.0423461255450229,-0.0486503604774585,0.0327446308669603
1492618522.5,40.4690501177763,-79.9274236634599,8.73999977111816,0.065765380859375,-1.05654907226562,-0.0475311279296875,-0.0270678366873474,0.0352746339025355,-0.0259572985127843
1492618522.7,40.4690501177763,-79.9274236634599,8.73999977111816,0.0784912109375,-1.02778625488281,-0.0679473876953125,-0.0164271765519358,0.0479712543994883,-0.018417623150661
1492618522.9,40.4690501177763,-79.9274236634599,8.73999977111816,0.0616455078125,-1.02436828613281,-0.05291748046875,-0.026852653271269,-0.0232264931310171,0.0040498690696835
1492618523.1,40.4690501177763,-79.9274236634599,8.73999977111816,0.0821533203125,-1.00819396972656,-0.134063720703125,-0.023761788510123,0.05014519279732,-0.0259618258866375
1492618523.3,40.4689940350947,-79.927449704168,6.1399998664856,0.101425170898438,-1.04144287109375,-0.120574951171875,-0.028667863870267,-0.000878310527508133,-0.00668852907773401
1492618523.5,40.4689940350947,-79.927449704168,6.1399998664856,0.0699310302734375,-1.00982666015625,-0.1199951171875,-0.0428808882919109,-0.00929203535939547,0.0155781607964185
1492618523.7,40.4689940350947,-79.927449704168,6.1399998664856,0.040191650390625,-1.04109191894531,-0.103408813476562,-0.012806076417755,8.36232582284881e-05,0.00200109924308554
1492618523.9,40.4689940350947,-79.927449704168,6.1399998664856,0.0420989990234375,-1.03529357910156,-0.111175537109375,-0.0151459297514986,-0.0084091974580342,0.0126612004544547
1492618524.1,40.4689940350947,-79.927449704168,6.1399998664856,0.02783203125,-1.021728515625,-0.0880584716796875,-0.0213585519424355,-0.00837084793833706,-0.000197073920665864
1492618524.3,40.4689651154849,-79.9274631323262,2.69000005722046,0.03204345703125,-1.02737426757812,-0.0486602783203125,-0.00735059092472771,4.66053190763867e-05,-0.00753887641379631
1492618524.5,40.4689651154849,-79.9274631323262,2.69000005722046,0.023162841796875,-1.02281188964844,-0.04595947265625,-0.0242917575670488,0.0107937918980912,-0.00880627477656502
1492618524.7,40.4689651154849,-79.9274631323262,2.69000005722046,-0.006256103515625,-1.01502990722656,0.007781982421875,-0.00578305430710707,-0.0318713803455233,0.0160162507957365
1492618524.9,40.4689651154849,-79.9274631323262,2.69000005722046,0.0677947998046875,-1.01438903808594,0.0075531005859375,-0.0180005721239546,0.00756257854749801,-0.00340245460868523
1492618525.1,40.4689651154849,-79.9274631323262,2.69000005722046,0.031463623046875,-1.00869750976562,-0.00323486328125,-0.00876286525079673,-0.0169611403504967,0.00848376596855642
1492618525.3,40.4689531798618,-79.9274686743593,0.189999997615814,0.0492095947265625,-0.9495849609375,0.299728393554688,0.00102877912909761,-0.0106443885609377,-0.00316063958170604
1492618525.5,40.4689531798618,-79.9274686743593,0.189999997615814,0.0296783447265625,-0.947525024414062,0.170562744140625,-0.0182482461053319,-0.0137091543434009,0.00304718891926866
1492618525.7,40.4689531798618,-79.9274686743593,0.189999997615814,0.03826904296875,-0.964813232421875,0.221099853515625,-0.0181643565309945,-0.00839162059483968,-0.000164317039257889
1492618525.9,40.4689531798618,-79.9274686743593,0.189999997615814,0.0377655029296875,-0.967376708984375,0.22589111328125,-0.0159802981210205,-0.00308740265172886,-0.00122185830812835
1492618526.1,40.4689531798618,-79.9274686743593,0.189999997615814,0.0395965576171875,-0.966400146484375,0.214599609375,-0.0192277567542631,-0.00625709698114117,0.000885501062451347
1492618526.3,40.4689543495755,-79.9274681312295,0.0,0.0272216796875,-0.96282958984375,0.213821411132812,-0.018148377564454,-0.00626428751608438,-0.000169643361438047
1492618526.5,40.4689543495755,-79.9274681312295,0.0,0.04278564453125,-0.966842651367188,0.210678100585938,-0.0170769878579151,-0.00733514459040525,-0.00122212462423736
1492618526.7,40.4689543495755,-79.9274681312295,0.0,0.041259765625,-0.961090087890625,0.210281372070312,-0.0170530194081044,-0.0041441449722723,-0.0012301141075076
1492618526.9,40.4689543495755,-79.9274681312295,0.0,0.0283203125,-0.973846435546875,0.210678100585938,-0.0149009189312114,-0.00309459318667207,-0.00227700273201775
1492618527.1,40.4689543495755,-79.9274681312295,0.0,0.0493927001953125,-0.964019775390625,0.215927124023438,-0.0150886717880619,-0.0105378621173345,0.00733620985484128
1492618527.3,40.4689543114105,-79.9274681489505,0.0,0.0289459228515625,-0.963134765625,0.215133666992188,-0.017107614210451,-0.00946221135305153,-0.000150734917698485
1492618527.5,40.4689543114105,-79.9274681489505,0.0,0.04119873046875,-0.966644287109375,0.21826171875,-0.0170982931466357,-0.00627094541880958,0.000907338983389996
1492618527.7,40.4689543114105,-79.9274681489505,0.0,0.035186767578125,-0.970626831054688,0.223739624023438,-0.0170157351528433,-0.00308101106511267,-0.00336490403731512
1492618527.9,40.4689543114105,-79.9274681489505,0.0,0.03271484375,-0.97052001953125,0.209579467773438,-0.0181270722757333,-0.00732848668768005,-0.00229910696906541
1492618528.1,40.4689543114105,-79.9274681489505,0.0,0.037994384765625,-0.955947875976562,0.2225341796875,-0.0160775035008084,-0.00627707068931676,0.00411644809693548
1492618528.3,40.4689542732519,-79.9274681666686,0.0,0.0391693115234375,-0.965255737304688,0.209823608398438,-0.0169864403808524,-0.00308154369733069,-0.00549703080603256
1492618528.5,40.4689542732519,-79.9274681666686,0.0,0.0366973876953125,-0.968368530273438,0.209457397460938,-0.0192064514655425,-0.00732129615273683,-0.00124396254517601
1492618528.7,40.4689542732519,-79.9274681666686,0.0,0.041656494140625,-0.959503173828125,0.224746704101562,-0.0170929668244556,-0.00946247766916054,-0.0012167983020572
1492618528.9,40.4689542732519,-79.9274681666686,0.0,0.027862548828125,-0.981369018554688,0.205322265625,-0.0170916352439105,-0.00733487827429624,-0.000156061239878643
1492618529.1,40.4689542732519,-79.9274681666686,0.0,0.051849365234375,-0.96148681640625,0.217193603515625,-0.0191824830157317,-0.00413029653460389,-0.00125195202844625
1492618529.3,40.4689531322678,-79.9274686964584,0.0,0.0242462158203125,-0.956512451171875,0.2177734375,-0.0160415508260923,-0.00734153617702144,0.000920921104949401
1492618529.5,40.4689531322678,-79.9274686964584,0.0,0.0465850830078125,-0.969467163085938,0.2081298828125,-0.0160335613428221,-0.00627786963764379,0.000918257943859321
1492618529.7,40.4689531322678,-79.9274686964584,0.0,0.031402587890625,-0.963714599609375,0.220672607421875,-0.0159962770875609,-0.00521473573048416,-0.0012165319859482
1492618529.9,40.4689531322678,-79.9274686964584,0.0,0.0445709228515625,-0.961929321289062,0.213882446289062,-0.0159802981210205,-0.00308740265172886,-0.00122185830812835
1492618530.1,40.4689531322678,-79.9274686964584,0.0,0.03118896484375,-0.964279174804688,0.21038818359375,-0.0149688295390084,-0.00628479385647799,0.000929176904328646
1492618530.3,40.4689530940556,-79.9274687142014,0.0,0.0410003662109375,-0.961456298828125,0.21759033203125,-0.0149621716362832,-0.00734872671196465,-0.000134223318939994
1492618530.5,40.4689530940556,-79.9274687142014,0.0,0.0331573486328125,-0.966232299804688,0.213180541992188,-0.0160415508260923,-0.00734153617702144,0.000920921104949401
1492618530.7,40.4689530940556,-79.9274687142014,0.0,0.038970947265625,-0.966506958007812,0.21697998046875,-0.0160269034400969,-0.00734180249313044,-0.000145142279409318
1492618530.9,40.4689530940556,-79.9274687142014,0.0,0.0389251708984375,-0.962661743164062,0.215560913085938,-0.014991466408274,-0.00734819407974663,0.00199790344977744
1492618531.1,40.4689530940556,-79.9274687142014,0.0,0.0374908447265625,-0.96380615234375,0.215194702148438,-0.0160282350206419,-0.00946940188799475,-0.00120587934158788
1492618531.3,40.4689530558036,-79.9274687319628,0.0,0.0360870361328125,-0.963592529296875,0.21820068359375,-0.019190472499002,-0.00519396307398154,-0.00124928886735617
