timestamp,latitude,longitude,speed,accelerometerX,accelerometerY,accelerometerZ,gyroX,gyroY,gyroZ
1493001885.2,40.4498925582603,-79.9447882795487,10.25,0.04327392578125,-1.04115295410156,0.20880126953125,0.0717386355479005,-0.0419474503298381,0.0264318738190364
1493001885.4,40.4499801995228,-79.9448250253204,10.0900001525879,0.084808349609375,-0.990585327148438,0.176025390625,0.0141118243002209,0.0105431884395147,-0.0137435091214629
1493001885.6,40.4499801995228,-79.9448250253204,10.0900001525879,-0.017669677734375,-0.982131958007812,0.154495239257812,0.010553574767766,-0.072394305808278,0.0450758656623542
1493001885.8,40.4499801995228,-79.9448250253204,10.0900001525879,0.0172119140625,-0.969085693359375,0.189865112304688,0.0234081207173605,-0.0256835255527242,-0.0124886276158176
1493001886.0,40.4499801995228,-79.9448250253204,10.0900001525879,0.0206298828125,-0.9888916015625,0.22088623046875,0.0129751871469751,-0.0224267458556663,-0.0264646307004444
1493001886.2,40.4500684511387,-79.9448620269978,9.60000038146973,-0.044586181640625,-0.931228637695312,0.261184692382812,-0.0379961182204875,-0.00401205218220437,-0.0270340145415034
1493001886.4,40.4500684511387,-79.9448620269978,9.60000038146973,0.118789672851562,-0.948745727539062,0.178573608398438,-0.0880054898022135,0.116498650304971,-0.119551431862529
1493001886.6,40.4500684511387,-79.9448620269978,9.60000038146973,0.132553100585938,-0.945892333984375,0.21044921875,-0.0596092683631346,0.0812122984936393,-0.112772355307732
1493001886.8,40.4500684511387,-79.9448620269978,9.60000038146973,-0.0145721435546875,-0.997344970703125,0.188995361328125,0.0189696964446344,-0.134136499888457,0.0964996420990212
1493001887.0,40.4500684511387,-79.9448620269978,9.60000038146973,0.132049560546875,-0.932159423828125,0.189926147460938,-0.0587296262550814,0.101421163793488,-0.088292578567724
1493001887.2,40.4501431841803,-79.944893360678,8.94999980926514,0.16534423828125,-0.89324951171875,0.1591796875,-0.0396768391844365,0.0459927920256684,-0.0325113379554693
1493001887.4,40.4501431841803,-79.944893360678,8.94999980926514,0.00250244140625,-0.920196533203125,0.222381591796875,0.0385889378791392,-0.0991636021374275,0.0827494750748331
1493001887.6,40.4501431841803,-79.944893360678,8.94999980926514,0.02557373046875,-1.00028991699219,0.175186157226562,-0.00540302121955276,0.0415122898077191,-0.0492082927258301
1493001887.8,40.4501431841803,-79.944893360678,8.94999980926514,0.095977783203125,-0.988174438476562,0.103240966796875,-0.0301754793633608,0.0565700689271362,-0.0207130016942003
1493001888.0,40.4501431841803,-79.944893360678,8.94999980926514,0.0739288330078125,-1.00395202636719,0.0467376708984375,-0.0145786764393118,0.00860147768873792,-0.0193633116537481
1493001888.2,40.4501431841803,-79.944893360678,8.94999980926514,0.10797119140625,-0.964279174804688,0.020416259765625,-0.0596356336579264,-0.00493110907439072,-0.00273027274954923
1493001888.4,40.4502104734441,-79.9449215733697,7.65999984741211,0.0147247314453125,-0.941818237304688,0.0256805419921875,-0.0444343101557541,-0.0411905799480376,0.0337702142027498
1493001888.6,40.4502104734441,-79.9449215733697,7.65999984741211,0.072662353515625,-1.03887939453125,0.0860595703125,-0.0199396197136413,0.00757296487574932,-0.0172831165262872
1493001888.8,40.4502104734441,-79.9449215733697,7.65999984741211,0.0615081787109375,-0.981979370117188,0.049530029296875,-0.0169638035115867,-0.00201814347406205,-0.00656575735148135
1493001889.0,40.4502104734441,-79.9449215733697,7.65999984741211,0.0843353271484375,-1.01199340820312,0.020721435546875,-0.0271264262313291,0.0352756991669716,-0.0216930449753494
1493001889.2,40.4502104734441,-79.9449215733697,7.65999984741211,0.0332794189453125,-1.03678894042969,0.0150299072265625,-0.026786873192344,0.039524772686193,-0.0440910286912429
1493001889.4,40.4502706146526,-79.9449467890621,5.73000001907349,0.0421295166015625,-0.999923706054688,0.0736083984375,-0.0238741739081243,-0.0285624026910998,0.0168887023688465
1493001889.6,40.4502706146526,-79.9449467890621,5.73000001907349,0.0077972412109375,-1.0008544921875,0.026397705078125,0.011965849093835,-0.0436846303088968,0.0354203088141629
1493001889.8,40.4502706146526,-79.9449467890621,5.73000001907349,0.0442962646484375,-0.987640380859375,0.0538330078125,-0.0363127340954484,-0.00295397828111589,0.00603312513346551
1493001890.0,40.4502706146526,-79.9449467890621,5.73000001907349,0.0645294189453125,-1.01792907714844,0.0345611572265625,-0.00724672764221462,-0.00952958932863054,-0.0203076685762902
1493001890.2,40.4503180254182,-79.9449666672007,4.32999992370605,0.01800537109375,-0.976837158203125,0.149932861328125,-0.0166767147460762,-0.0392443418234077,0.0297845273153372
1493001890.4,40.4503180254182,-79.9449666672007,4.32999992370605,0.04876708984375,-0.928024291992188,0.23187255859375,-0.0096491652615751,-0.0127022131352419,-0.00219843947986041
1493001890.6,40.4503180254182,-79.9449666672007,4.32999992370605,0.070465087890625,-0.942138671875,0.274826049804688,0.00115527928087637,-0.00745525315556782,-0.0106310727554873
1493001890.8,40.4503180254182,-79.9449666672007,4.32999992370605,0.0597991943359375,-0.973388671875,0.298416137695312,-0.00926966480623881,0.0085671229106759,-0.0182426534670428
1493001891.0,40.4503180254182,-79.9449666672007,4.32999992370605,0.106002807617188,-0.921859741210938,0.329635620117188,-0.00856978607176598,-0.00100747384037698,0.00311350163041164
1493001891.2,40.4503180254182,-79.9449666672007,4.32999992370605,0.11083984375,-0.88714599609375,0.362503051757812,-0.0236491367960126,-0.00835407002346956,0.0115077853863414
1493001891.4,40.4503642008966,-79.9449860274146,3.82999992370605,0.0981597900390625,-0.956512451171875,0.3817138671875,-0.043354930965945,-0.0177939108233644,0.0454492408471833
1493001891.6,40.4503642008966,-79.9449860274146,3.82999992370605,0.147079467773438,-0.823623657226562,0.415481567382812,-0.0259783374853959,0.0235777640787985,0.0433879541634619
1493001891.8,40.4503642008966,-79.9449860274146,3.82999992370605,0.130584716796875,-0.930694580078125,0.330490112304688,0.121950407372472,-0.178419009862077,0.0955358441005215
1493001892.0,40.4503642008966,-79.9449860274146,3.82999992370605,0.020660400390625,-0.89520263671875,0.531417846679688,0.0731604972538938,-0.100445647886192,0.123622872537042
1493001892.2,40.4503642008966,-79.9449860274146,3.82999992370605,0.117218017578125,-0.853363037109375,0.538787841796875,0.041170339923753,-0.00451885173764645,0.0238898865585558
1493001892.4,40.4504178450504,-79.9450085190558,5.51999998092651,0.196670532226562,-0.900741577148438,0.399673461914062,-0.113834690266565,0.109223160522984,-0.103803894020782
1493001892.6,40.4504178450504,-79.9450085190558,5.51999998092651,0.147750854492188,-0.876937866210938,0.430191040039062,-0.0181457144033639,0.0213947709332606,0.014686001831242
1493001892.8,40.4504178450504,-79.9450085190558,5.51999998092651,0.039215087890625,-0.948883056640625,0.477981567382812,0.00822171091729262,-0.0681215301553549,0.0621003892467947
1493001893.0,40.4504178450504,-79.9450085190558,5.51999998092651,0.0313720703125,-0.9134521484375,0.411483764648438,-0.107015133663199,0.000702275579453895,0.0383524491743401
1493001893.2,40.4504415024269,-79.9450184379972,7.1399998664856,0.023712158203125,-0.83343505859375,0.415069580078125,-0.0758929005323151,-0.00588585232518412,0.0173638103073166
1493001893.4,40.4504415024269,-79.9450184379972,7.1399998664856,0.0582427978515625,-1.04327392578125,0.390548706054688,0.00220696159534866,0.172284950923297,-0.144360907945489
1493001893.6,40.4504415024269,-79.9450184379972,7.1399998664856,0.2071533203125,-0.856277465820312,0.37542724609375,-0.0415506393274163,0.0683420398936134,-0.038985482565452
1493001893.8,40.4504415024269,-79.9450184379972,7.1399998664856,0.160110473632812,-1.14030456542969,0.31890869140625,0.0553119916281827,0.0581381381769748,-0.0411660788660088
1493001894.0,40.4504415024269,-79.9450184379972,7.1399998664856,0.238067626953125,-0.85198974609375,0.464096069335938,0.0174202693224263,0.0849622956245799,-0.136516300638552
1493001894.2,40.4504415024269,-79.9450184379972,7.1399998664856,0.0904388427734375,-0.971939086914062,0.445770263671875,-0.00923637529261281,0.0617571077822835,0.00827577308742123
1493001894.4,40.4504393921393,-79.9450175532069,8.8100004196167,0.0538330078125,-0.909774780273438,0.379638671875,0.0244760483144822,0.100890662104344,-0.0213340508604068
1493001894.6,40.4504393921393,-79.9450175532069,8.8100004196167,0.107315063476562,-0.982269287109375,0.420425415039062,0.0643813867204476,-0.0759427016446996,0.000855141026024443
1493001894.8,40.4504393921393,-79.9450175532069,8.8100004196167,0.074493408203125,-0.885589599609375,0.4141845703125,-0.00751623954453063,-0.0818514571552584,0.0374517680936753
1493001895.0,40.4504393921393,-79.9450175532069,8.8100004196167,0.0447540283203125,-0.894195556640625,0.381332397460938,-0.0240685846677001,-0.0115378791066593,0.040299486247297
1493001895.2,40.4504393921393,-79.9450175532069,8.8100004196167,0.076202392578125,-0.89459228515625,0.361297607421875,-0.0507595840608013,-0.00605682726716721,-0.0292918425136725
1493001895.4,40.4506303148449,-79.9450996900431,10.1800003051758,-0.0845489501953125,-0.944793701171875,0.437530517578125,0.00890427910467993,-0.117056848869452,0.0632998770017664
1493001895.6,40.4506303148449,-79.9450996900431,10.1800003051758,-0.07220458984375,-0.9146728515625,0.440261840820312,0.0279061997985043,-0.0225117006944398,0.0493896539960645
1493001895.8,40.4506303148449,-79.9450996900431,10.1800003051758,-0.0377655029296875,-0.93572998046875,0.383193969726562,-0.0619943954354095,0.12910232647988,-0.0681393733346584
1493001896.0,40.4506303148449,-79.9450996900431,10.1800003051758,-0.0005340576171875,-0.966995239257812,0.4486083984375,0.00412257336744266,-0.175541730620355,-0.00803449069266005
1493001896.2,40.4507165947004,-79.9451368262299,11.0900001525879,-0.0237579345703125,-0.955154418945312,0.33245849609375,-0.00486825847266485,0.0372597541790806,-0.012940566052804
1493001896.4,40.4507165947004,-79.9451368262299,11.0900001525879,0.0812225341796875,-0.946380615234375,0.375503540039062,-0.0374768018079221,-0.051893025420739,-0.0908779753539729
1493001896.6,40.4507165947004,-79.9451368262299,11.0900001525879,0.137847900390625,-0.9666748046875,0.318130493164062,0.0165107998101643,0.0243415586794332,-0.103316535541297
1493001896.8,40.4507165947004,-79.9451368262299,11.0900001525879,-0.0618133544921875,-0.922866821289062,0.27978515625,0.0180612921968084,-0.125634358108379,0.0122374915250231
1493001897.0,40.4507165947004,-79.9451368262299,11.0900001525879,-0.079132080078125,-0.966888427734375,0.378570556640625,-0.00493297328715377,0.0787371565765197,-0.0631603273606462
1493001897.2,40.4507165947004,-79.9451368262299,11.0900001525879,0.0028839111328125,-0.956100463867188,0.396316528320312,0.0101897869628612,-0.00113716978546383,-0.0446737283377522
1493001897.4,40.4508148720323,-79.9451791263165,11.960000038147,0.155914306640625,-0.881561279296875,0.337249755859375,-0.0538174256244303,0.0758625404958882,-0.0721831171338347
1493001897.6,40.4508148720323,-79.9451791263165,11.960000038147,-0.046234130859375,-0.9169921875,0.33245849609375,0.0193617137570941,-0.0650082948410522,0.0280875610687387
1493001897.8,40.4508148720323,-79.9451791263165,11.960000038147,0.127685546875,-0.859390258789062,0.2728271484375,-0.0231159719457788,0.0873668637728125,-0.0527066211337582
1493001898.0,40.4508148720323,-79.9451791263165,11.960000038147,0.0413665771484375,-0.953948974609375,0.290237426757812,0.0364845079857585,-0.0151339455265933,-0.0283751824664673
1493001898.2,40.4508148720323,-79.9451791263165,11.960000038147,0.0490875244140625,-0.976272583007812,0.263046264648438,0.00481233208977318,-0.00959963046529962,0.0320604647829189
1493001898.4,40.4509194655174,-79.9452241449734,12.4899997711182,0.071807861328125,-0.977432250976562,0.19427490234375,-0.0137243343616143,0.0117898141457808,-0.00230336802680953
1493001898.6,40.4509194655174,-79.9452241449734,12.4899997711182,0.090911865234375,-0.906982421875,0.1988525390625,-0.047992826004318,-0.0103250755462372,-0.000464721610218827
1493001898.8,40.4509194655174,-79.9452241449734,12.4899997711182,0.103103637695312,-0.951370239257812,0.2030029296875,-0.0855508542254874,-0.0281746464363843,-0.0669084602788238
1493001899.0,40.4509194655174,-79.9452241449734,12.4899997711182,0.0294189453125,-0.932327270507812,0.172409057617188,-0.0414845929323823,-0.0178154824281941,-0.013173326332077
1493001899.2,40.4509194655174,-79.9452241449734,12.4899997711182,0.160675048828125,-0.979248046875,0.132675170898438,-0.0510946097259332,0.0832970209949534,-0.0337907205431434
1493001899.4,40.4510248384266,-79.9452694991064,12.1199998855591,0.043548583984375,-0.969482421875,0.1688232421875,-0.0189947301588812,-0.0083889574337496,-0.0172322501494667
1493001899.6,40.4510248384266,-79.9452694991064,12.1199998855591,0.12030029296875,-0.991928100585938,0.085968017578125,0.0616505813386803,-0.0259311995341015,-0.00569916473276957
1493001899.8,40.4510248384266,-79.9452694991064,12.1199998855591,0.0153350830078125,-0.968505859375,0.0406951904296875,-0.0204975519620129,-0.017948374166589,0.00943238394884265
1493001900.0,40.4510248384266,-79.9452694991064,12.1199998855591,-0.0116729736328125,-1.04841613769531,0.0516510009765625,0.0164756460837752,0.0339289386037185,-0.0180445142819409
1493001900.2,40.4510248384266,-79.9452694991064,12.1199998855591,0.0927734375,-1.00437927246094,0.0198822021484375,-0.0233942722796921,0.0873719237788836,-0.0324514168309425
1493001900.4,40.4511185722397,-79.9453098435921,10.5900001525879,0.153717041015625,-1.00804138183594,0.0053253173828125,-0.0450798604039893,0.110908941493004,-0.0689854596129766
1493001900.6,40.4511185722397,-79.9453098435921,10.5900001525879,0.0223846435546875,-1.02653503417969,0.000213623046875,-0.000624511275623581,-0.0148820104874718,0.0373495027078163
1493001900.8,40.4511185722397,-79.9453098435921,10.5900001525879,0.01171875,-0.987380981445312,-0.0053253173828125,-0.0124896928802536,-0.0488450375531433,0.0298521716070252
1493001901.0,40.4511185722397,-79.9453098435921,10.5900001525879,-0.0226287841796875,-1.01048278808594,0.01666259765625,-0.0332357177719709,-0.0263764800683628,0.00186021802142035
1493001901.2,40.4511185722397,-79.9453098435921,10.5900001525879,0.049591064453125,-1.02241516113281,-0.0090789794921875,-0.0223407257524567,0.00652794046400223,0.00188684963232114
1493001901.4,40.4511965592859,-79.9453434104254,8.42000007629395,0.093475341796875,-1.00979614257812,-0.0019989013671875,-0.0427804871188149,0.0385652357454375,-0.0431860865528339
1493001901.6,40.4511965592859,-79.9453434104254,8.42000007629395,0.114791870117188,-1.01742553710938,0.0205230712890625,-0.0130857083322133,-0.00203891613056466,0.0211955664837226
1493001901.8,40.4511965592859,-79.9453434104254,8.42000007629395,0.050262451171875,-1.02149963378906,0.0603790283203125,0.0223593678800873,-0.000145408595518326,0.000229298169855822
1493001902.0,40.4511965592859,-79.9453434104254,8.42000007629395,0.0240631103515625,-0.990020751953125,0.0389251708984375,-0.0194567886080099,0.00225756165606017,0.0221854634609051
1493001902.2,40.4511965592859,-79.9453434104254,8.42000007629395,0.06085205078125,-0.98297119140625,0.08050537109375,-0.0107751497704606,0.00645443721791604,0.0126675920410709
1493001902.4,40.451252434476,-79.945367459973,6.3899998664856,0.001922607421875,-1.01103210449219,0.0534210205078125,0.0041271007412958,-2.53000303557528e-05,0.00963824630110577
1493001902.6,40.451252434476,-79.945367459973,6.3899998664856,0.053558349609375,-0.992477416992188,0.0536956787109375,-0.00461579080132534,-0.0084763091175042,0.0212988971340177
1493001902.8,40.451252434476,-79.945367459973,6.3899998664856,0.0595703125,-0.9937744140625,0.0520477294921875,-0.013781592325051,0.00221654897527295,-0.00334546296135754
1493001903.0,40.451252434476,-79.945367459973,6.3899998664856,0.0466156005859375,-1.00227355957031,0.0556488037109375,0.00660810161281361,0.0116563897751678,-0.00955835146840339
1493001903.2,40.451252434476,-79.945367459973,6.3899998664856,0.0329742431640625,-0.999267578125,0.0742645263671875,-0.0139014345741046,-0.00203651928558359,0.00306156998915509
1493001903.4,40.451289180595,-79.9453832760721,3.60999989509583,0.035552978515625,-1.02287292480469,0.0654144287109375,-0.00197500026440276,0.00107485181595598,-0.0106851349256159
1493001903.6,40.451289180595,-79.9453832760721,3.60999989509583,0.0126495361328125,-0.975418090820312,0.099334716796875,-0.0203564044242387,-0.0147595050773281,0.000895887390702656
1493001903.8,40.451289180595,-79.9453832760721,3.60999989509583,0.0267333984375,-1.01400756835938,0.0850830078125,-0.0150287506635352,-0.0318151876465226,-0.00860147768873792
1493001904.0,40.451289180595,-79.9453832760721,3.60999989509583,0.0663299560546875,-0.960189819335938,0.103607177734375,-0.0110281500740181,-0.0233276932524401,0.0148742873203106
1493001904.2,40.451289180595,-79.9453832760721,3.60999989509583,0.04736328125,-0.988021850585938,0.178451538085938,-0.0116880813921398,0.00326716602530921,-0.000128098048432811
1493001904.4,40.4513025866341,-79.9453890462391,1.30999994277954,0.06695556640625,-0.941925048828125,0.230499267578125,-0.0138068923554068,-0.0031020500377243,-0.00439821054026586
1493001904.6,40.4513025866341,-79.9453890462391,1.30999994277954,0.0477447509765625,-0.968109130859375,0.247024536132812,-0.0116867498115947,-0.00630716440963466,-0.00543444652041569
1493001904.8,40.4513025866341,-79.9453890462391,1.30999994277954,0.0734405517578125,-0.943695068359375,0.2591552734375,-0.0105847337525199,-0.00525095472130923,-0.00755831748975389
1493001905.0,40.4513025866341,-79.9453890462391,1.30999994277954,0.0766448974609375,-0.931350708007812,0.354278564453125,-0.00442936952501979,-0.00316063958170604,0.0106249474849801
1493001905.2,40.4513025866341,-79.9453890462391,1.30999994277954,0.0781097412109375,-0.919540405273438,0.434295654296875,0.00734526460254755,0.00314492693127457,0.00966301369924351
1493001905.4,40.4513106832128,-79.945392531132,0.600000023841858,0.0603790283203125,-0.843597412109375,0.490814208984375,-0.0106779443906727,-0.00205782457430423,0.000962200101845629
1493001905.6,40.4513106832128,-79.945392531132,0.600000023841858,0.093597412109375,-0.88714599609375,0.508880615234375,-0.0467896098238202,0.000303600364269033,-0.00474468779808517
1493001905.8,40.4513106832128,-79.945392531132,0.600000023841858,0.0264434814453125,-0.90185546875,0.537734985351562,-0.00683393767325233,0.0181220122696622,-0.0353017981456544
1493001906.0,40.4513106832128,-79.945392531132,0.600000023841858,0.118179321289062,-0.85919189453125,0.473648071289062,-0.0619350069431008,0.00890294752413489,-0.0603650734804991
1493001906.2,40.4513106832128,-79.945392531132,0.600000023841858,0.176101684570312,-0.9130859375,0.417739868164062,-0.100479736348145,0.0176666117232586,-0.0405242570432997
1493001906.4,40.4513291500301,-79.9454004795363,2.25999999046326,0.120498657226562,-0.914337158203125,0.531112670898438,-0.0443805143017345,0.0375180808048183,-0.00481606051529929
1493001906.6,40.4513291500301,-79.9454004795363,2.25999999046326,-0.060577392578125,-0.883209228515625,0.544387817382812,0.0886366589805622,-0.0792767130133697,0.093872699999767
1493001906.8,40.4513291500301,-79.9454004795363,2.25999999046326,0.0561065673828125,-0.87451171875,0.48345947265625,-0.0139541651636882,0.0702912074954424,-0.0312444722249186
1493001907.0,40.4513291500301,-79.9454004795363,2.25999999046326,0.128524780273438,-0.916030883789062,0.497161865234375,-0.0875498229397009,0.051622714570096,-0.0330160069820393
1493001907.2,40.4513291500301,-79.9454004795363,2.25999999046326,0.083892822265625,-0.843795776367188,0.4366455078125,-0.0452481721848823,0.0598614697183651,-0.00701503262737772
1493001907.4,40.451360385448,-79.9454139237443,4.53999996185303,0.11077880859375,-0.887893676757812,0.464706420898438,-0.0659121717150251,0.0568094871091343,0.0226352713690195
1493001907.6,40.451360385448,-79.9454139237443,4.53999996185303,0.0529632568359375,-0.899810791015625,0.467086791992188,-0.101192930888068,0.134686442653558,-0.00244984188676389
1493001907.8,40.451360385448,-79.9454139237443,4.53999996185303,0.136245727539062,-0.84393310546875,0.4639892578125,-0.0993652034319464,0.113389409732304,-0.0695476529190923
1493001908.0,40.451360385448,-79.9454139237443,4.53999996185303,0.214813232421875,-0.922088623046875,0.394363403320312,-0.0281607979987159,0.127808829138429,-0.128563835307466
1493001908.2,40.4513788343901,-79.9454218644548,6.23000001907349,0.0983734130859375,-0.83880615234375,0.382186889648438,0.00377023715522518,-0.0670389551722376,-0.000854608393806428
1493001908.4,40.4513788343901,-79.9454218644548,6.23000001907349,-0.0460662841796875,-0.884490966796875,0.453567504882812,0.0283751824664673,-0.136323221459521,0.108329936293371
1493001908.6,40.4513788343901,-79.9454218644548,6.23000001907349,0.141159057617188,-0.948974609375,0.415115356445312,0.128953189458836,0.0236400820483064,0.0833577410678072
1493001908.8,40.4513788343901,-79.9454218644548,6.23000001907349,-0.322265625,-0.8253173828125,0.629959106445312,-0.0751272417189173,0.303607288487867,-0.257444054152434
1493001909.0,40.4513788343901,-79.9454218644548,6.23000001907349,0.22161865234375,-0.892776489257812,0.42864990234375,-0.0699617744685996,0.205729726840839,-0.144119891866837
1493001909.2,40.4513788343901,-79.9454218644548,6.23000001907349,0.182037353515625,-0.87725830078125,0.390243530273438,-0.0214139456931091,0.0479997502231522,-0.0429916757932582
1493001909.4,40.4513788710599,-79.9454218802381,8.22999954223633,0.0296783447265625,-0.862289428710938,0.493331909179688,-0.0137360522704107,-0.109459649227783,0.0875713945445306
1493001909.6,40.4513788710599,-79.9454218802381,8.22999954223633,0.0215606689453125,-0.88885498046875,0.445327758789062,-0.0797283851342472,0.00370845181793534,-0.00828935520898064
1493001909.8,40.4513788710599,-79.9454218802381,8.22999954223633,0.169281005859375,-0.931488037109375,0.398834228515625,-0.00353454739875316,0.0340565040199333,-0.0342429252962388
1493001910.0,40.4513788710599,-79.9454218802381,8.22999954223633,0.054473876953125,-0.901657104492188,0.429916381835938,-0.0460172931076972,0.017310547085515,-0.0516940872873101
1493001910.2,40.4513788710599,-79.9454218802381,8.22999954223633,0.16339111328125,-0.893783569335938,0.418746948242188,-0.0743083196837179,0.0568502334738125,-0.0638141334082607
1493001910.4,40.4515726941443,-79.9455062261676,10.2299995422363,0.138839721679688,-0.911346435546875,0.373733520507812,-0.0475387570384594,0.0130705283139999,-0.0207785154570162
1493001910.6,40.4515726941443,-79.9455062261676,10.2299995422363,0.212646484375,-0.909133911132812,0.32586669921875,-0.0498397282202879,-0.0826306980902155,0.0945960145518326
1493001910.8,40.4515726941443,-79.9455062261676,10.2299995422363,0.03289794921875,-0.9154052734375,0.343032836914062,-0.00582886067785643,-0.12121830438881,0.0482327768185341
1493001911.0,40.4515726941443,-79.9455062261676,10.2299995422363,0.0473175048828125,-0.859237670898438,0.441238403320312,0.0130971599249007,-0.0426289532527894,0.0311643110761072
1493001911.2,40.4516759796723,-79.9455511780848,11.8500003814697,0.07611083984375,-0.90081787109375,0.36859130859375,-0.0207486880528073,0.0416172183546683,-0.0173792566416391
1493001911.4,40.4516759796723,-79.9455511780848,11.8500003814697,0.100234985351562,-0.88861083984375,0.435287475585938,-0.0919845187869009,0.0399516774089327,-0.0266340077457735
1493001911.6,40.4516759796723,-79.9455511780848,11.8500003814697,0.129165649414062,-0.92724609375,0.31549072265625,-0.0120121880968024,-0.0626708383522897,0.0650778033455033
1493001911.8,40.4516759796723,-79.9455511780848,11.8500003814697,0.0831451416015625,-0.94598388671875,0.35284423828125,0.0034147051496996,-0.0149057126211735,0.0533841293150744
1493001912.0,40.4516759796723,-79.9455511780848,11.8500003814697,0.169281005859375,-0.930038452148438,0.333145141601562,-0.0455176840871983,-0.0241623279380709,0.0443773185084264
1493001912.2,40.4516759796723,-79.9455511780848,11.8500003814697,0.105316162109375,-0.939224243164062,0.349197387695312,0.00391271627354442,0.00848909229073658,0.0298721453152008
1493001912.4,40.4517906957811,-79.9456011048183,13.6400003433228,-0.04791259765625,-0.903793334960938,0.386932373046875,0.0113005914535332,-0.0256001686106047,0.0161749751967053
1493001912.6,40.4517906957811,-79.9456011048183,13.6400003433228,0.144851684570312,-0.937347412109375,0.301116943359375,0.0227101061956507,0.0381330047005176,-0.0819643751854777
1493001912.8,40.4517906957811,-79.9456011048183,13.6400003433228,0.121994018554688,-0.9210205078125,0.337478637695312,-0.102050468759073,-0.018486865339003,-0.0233876143769669
1493001913.0,40.4517906957811,-79.9456011048183,13.6400003433228,0.074554443359375,-0.876632690429688,0.36297607421875,0.0117935425713069,-0.0777110406085122,0.106942695681549
1493001913.2,40.4517906957811,-79.9456011048183,13.6400003433228,-0.0202789306640625,-0.937255859375,0.337661743164062,-0.0171214626481194,-0.0360448200897865,0.063890566131546
1493001913.4,40.4519124336809,-79.9456540875749,14.7399997711182,0.0008392333984375,-0.969863891601562,0.30413818359375,0.0273011295988383,-0.151209493004737,0.100893857897652
1493001913.6,40.4519124336809,-79.9456540875749,14.7399997711182,-0.0255279541015625,-0.945297241210938,0.294113159179688,0.0332820567749383,-0.123584523017345,0.145664791615192
1493001913.8,40.4519124336809,-79.9456540875749,14.7399997711182,0.120651245117188,-0.929916381835938,0.278610229492188,-0.0309986624563043,0.119325063169872,-0.0816575790279006
1493001914.0,40.4519124336809,-79.9456540875749,14.7399997711182,0.0793304443359375,-0.916641235351562,0.288055419921875,-0.00584377437996087,0.00428689040670055,-0.0373883848597314
1493001914.2,40.4519124336809,-79.9456540875749,14.7399997711182,0.0623016357421875,-0.976776123046875,0.294723510742188,-0.0140886547987372,0.0543364757208867,-0.0301384614242087
1493001914.4,40.4520409946851,-79.9457100398823,15.2299995422363,0.0594482421875,-0.882659912109375,0.287139892578125,-0.0772705537642131,-0.014383733047518,0.0354972741696662
1493001914.6,40.4520409946851,-79.9457100398823,15.2299995422363,0.097381591796875,-1.01029968261719,0.264678955078125,-0.0642652728969201,-0.0867977462478625,0.0571415832970672
1493001914.8,40.4520409946851,-79.9457100398823,15.2299995422363,0.0179443359375,-0.898162841796875,0.330963134765625,-0.0410550250485525,-0.0263213526337982,0.0284353699071031
1493001915.0,40.4520409946851,-79.9457100398823,15.2299995422363,-0.017730712890625,-0.863616943359375,0.268341064453125,-0.0193547895382599,-0.0732624963236438,0.0511691782364555
1493001915.2,40.4520409946851,-79.9457100398823,15.2299995422363,0.0421600341796875,-1.04953002929688,0.153671264648438,0.0701244936112034,0.0325238548125927,0.0294218047748684
1493001915.4,40.4521716353845,-79.9457668973145,15.3500003814697,0.133651733398438,-0.875152587890625,0.244247436523438,0.0371012960942209,-0.0917147405684758,0.0400664596519151
1493001915.6,40.4521716353845,-79.9457668973145,15.3500003814697,0.0765228271484375,-0.927658081054688,0.232925415039062,-0.101696800966311,-0.0195446729239825,0.0277970101938111
1493001915.8,40.4521716353845,-79.9457668973145,15.3500003814697,-0.016326904296875,-0.950851440429688,0.24609375,-0.0260297364944345,0.0512253709354561,-0.015325693125079
1493001916.0,40.4521716353845,-79.9457668973145,15.3500003814697,0.135238647460938,-1.06123352050781,0.152679443359375,0.049674612232703,0.0762508293828217,-0.0860515285104223
1493001916.2,40.4521716353845,-79.9457668973145,15.3500003814697,0.103225708007812,-1.04498291015625,0.26708984375,0.0397764414092055,0.0869570032810493,-0.0573927193878616
1493001916.4,40.4523050656303,-79.9458249688128,15.460000038147,0.0129241943359375,-0.948654174804688,0.196456909179688,-0.01176318253488,-0.074377295555951,0.0405876402772436
1493001916.6,40.4523050656303,-79.9458249688128,15.460000038147,0.0152587890625,-0.92901611328125,0.223342895507812,-0.0200107261147464,-0.00517904937187709,0.0584502606567321
1493001916.8,40.4523050656303,-79.9458249688128,15.460000038147,0.0248260498046875,-0.915817260742188,0.17169189453125,-0.0167142653174463,0.10860131240845,-0.0420337367491566
1493001917.0,40.4523050656303,-79.9458249688128,15.460000038147,0.0914154052734375,-0.864059448242188,0.285415649414062,-0.127856499721941,0.0859250283586436,-0.0260537049442452
1493001917.2,40.4524380927757,-79.9458828648737,15.25,0.042236328125,-0.9716796875,0.208450317382812,-0.0200208461268887,-0.00519129991289146,-0.018317221977565
1493001917.4,40.4524380927757,-79.9458828648737,15.25,-0.0256500244140625,-0.894256591796875,0.29595947265625,-0.0435014048258993,-0.0528970371516989,0.0370086180882861
1493001917.6,40.4524380927757,-79.9458828648737,15.25,0.0528106689453125,-0.943496704101562,0.25970458984375,-0.010317618695185,-0.0158814948445785,0.0447163389151935
1493001917.8,40.4524380927757,-79.9458828648737,15.25,-0.020416259765625,-0.968475341796875,0.240203857421875,-0.124209300609078,-0.0183326683118875,0.0392917460908111
1493001918.0,40.4524380927757,-79.9458828648737,15.25,0.043731689453125,-0.919815063476562,0.244552612304688,0.00933224909185567,0.0212184696690973,0.0298947821844665
1493001918.2,40.4524380927757,-79.9458828648737,15.25,0.067291259765625,-0.934341430664062,0.20458984375,-0.0576481165364002,0.0301509782813321,-0.0507800904011949
1493001918.4,40.4525671494406,-79.9459411028368,15.2299995422363,0.070465087890625,-0.976821899414062,0.2269287109375,0.00527439053890193,0.0265615697641233,0.0181110933091929
1493001918.6,40.4525671494406,-79.9459411028368,15.2299995422363,-0.0376434326171875,-0.965408325195312,0.18560791015625,-0.0496154900565032,-0.0592433500293577,0.0135056888361188
1493001918.8,40.4525671494406,-79.9459411028368,15.2299995422363,-0.013458251953125,-0.976791381835938,0.230850219726562,0.0229314148822363,-0.0384405998064217,0.0152609783105901
1493001919.0,40.4525671494406,-79.9459411028368,15.2299995422363,0.0180206298828125,-0.965164184570312,0.240066528320312,-0.0181909881418952,-0.0158378190027012,-0.00227780168034477
1493001919.2,40.4525671494406,-79.9459411028368,15.2299995422363,0.00848388671875,-0.952163696289062,0.179824829101562,-0.0435115248380416,0.00560036145632763,-0.00792343687520375
1493001919.4,40.4526981296972,-79.946001502152,15.3999996185303,-0.009368896484375,-0.991973876953125,0.1754150390625,-0.0204988835425579,-0.0200759735614533,0.00837164688666409
1493001919.6,40.4526981296972,-79.946001502152,15.3999996185303,-0.002777099609375,-0.945907592773438,0.241348266601562,-0.0468894783646981,-0.0305451261226638,-0.0142620265857013
1493001919.8,40.4526981296972,-79.946001502152,15.3999996185303,-0.0267791748046875,-0.978500366210938,0.185317993164062,0.0338937848773295,-0.0544603127115754,0.0612617598195287
1493001920.0,40.4526981296972,-79.946001502152,15.3999996185303,-0.0522918701171875,-0.912338256835938,0.237838745117188,-0.022048310664766,-0.0455917199655025,0.029745911479531
1493001920.2,40.4526981296972,-79.946001502152,15.3999996185303,0.051910400390625,-0.93524169921875,0.1976318359375,-0.00348927366022182,0.0595871641260869,-0.0236462073188136
1493001920.4,40.4528289167347,-79.9460618123674,15.3299999237061,0.0266876220703125,-0.949188232421875,0.195556640625,0.045776010712936,0.0507529261580761,-0.0487081510731132
1493001920.6,40.4528289167347,-79.9460618123674,15.3299999237061,0.0829315185546875,-0.938613891601562,0.185867309570312,0.00842517642457468,0.0201462810142314,-0.0596737168615145
1493001920.8,40.4528289167347,-79.9460618123674,15.3299999237061,0.0253448486328125,-0.915679931640625,0.215255737304688,-0.0378483127799881,0.0332186735409944,-0.0175326547204277
1493001921.0,40.4528289167347,-79.9460618123674,15.3299999237061,0.062469482421875,-0.902420043945312,0.254409790039062,-0.138277449067421,0.0498205534604393,-0.0623185021400722
1493001921.2,40.4528289167347,-79.9460618123674,15.3299999237061,0.0403900146484375,-0.956405639648438,0.182373046875,-0.0247871055298035,-0.0317496738837067,0.00409301227934278
1493001921.4,40.4529593475376,-79.9461219583113,15.3699998855591,-0.0263671875,-1.0382080078125,0.13818359375,0.00704565897991363,-0.019189673550675,0.0193135105413636
1493001921.6,40.4529593475376,-79.9461219583113,15.3699998855591,0.011474609375,-0.979995727539062,0.111114501953125,-0.0305283482077963,-0.00406078803015282,-0.0280236452025768
1493001921.8,40.4529593475376,-79.9461219583113,15.3699998855591,-0.04052734375,-0.897720336914062,0.11614990234375,-0.0134159403073832,-0.0147986535453523,0.0382845385665431
1493001922.0,40.4529593475376,-79.9461219583113,15.3699998855591,-0.003143310546875,-0.984619140625,0.099761962890625,0.00544216968757692,0.00209084777182121,-0.00741317521034457
1493001922.2,40.4529593475376,-79.9461219583113,15.3699998855591,-0.0554656982421875,-1.03398132324219,0.0859375,0.0155928081824139,0.00415825972604972,0.0300029065247237
1493001922.4,40.4530863170217,-79.946180508127,14.6499996185303,-0.036895751953125,-1.01043701171875,0.012298583984375,-0.0670815657496789,0.0344658318794785,-0.0594175207646489
1493001922.6,40.4530863170217,-79.946180508127,14.6499996185303,-0.0387420654296875,-0.974090576171875,0.0877838134765625,0.0583272226143704,-0.0333547610726974,-0.000382962564753394
1493001922.8,40.4530863170217,-79.946180508127,14.6499996185303,0.0395660400390625,-1.02203369140625,-0.0361480712890625,0.0475779055064836,0.0422345390953486,-0.029475866944997
1493001923.0,40.4530863170217,-79.946180508127,14.6499996185303,-0.0460357666015625,-0.996902465820312,0.0225830078125,0.0269690334109054,0.0966149569742216,-0.0500852716727932
1493001923.2,40.4530863170217,-79.946180508127,14.6499996185303,0.0174713134765625,-1.05538940429688,0.011505126953125,0.0153203668028988,0.0062784022698618,-0.0265146981289379
1493001923.4,40.4532012461337,-79.9462335057301,12.8699998855591,-0.0182342529296875,-0.9876708984375,0.042266845703125,-0.0439490822051416,0.00134063529274589,-0.0558965554874551
1493001923.6,40.4532012461337,-79.9462335057301,12.8699998855591,0.0012054443359375,-0.981094360351562,0.0803375244140625,0.00269139059763408,0.0552941484488792,-0.0107772802993327
1493001923.8,40.4532012461337,-79.9462335057301,12.8699998855591,0.0102996826171875,-0.978179931640625,-0.0224151611328125,0.00316117221392406,-0.108504107028662,0.0984040685945369
1493001924.0,40.4532012461337,-79.9462335057301,12.8699998855591,-0.08306884765625,-1.00239562988281,-0.01593017578125,0.0656618345725577,-0.0238267696407209,0.0135283257053845
1493001924.2,40.4532012461337,-79.9462335057301,12.8699998855591,-0.183319091796875,-0.996322631835938,-0.0084686279296875,-0.0742726333251109,-0.156939284090042,0.0497566375942774
1493001924.4,40.4532998437562,-79.9462789723449,11.1899995803833,0.0196685791015625,-1.00129699707031,-0.041015625,-0.0322956219071729,0.0129674639798138,-0.0451451078506962
1493001924.6,40.4532998437562,-79.9462789723449,11.1899995803833,-0.0713653564453125,-1.03511047363281,-0.0245513916015625,0.0156809588144956,-0.179857915799046,0.0784583236103884
1493001924.8,40.4532998437562,-79.9462789723449,11.1899995803833,-0.150100708007812,-1.02230834960938,0.0018463134765625,0.0195031276109773,-0.199026284061001,0.0998712040390615
1493001925.0,40.4532998437562,-79.9462789723449,11.1899995803833,-0.0255279541015625,-0.998794555664062,-0.0179595947265625,-0.00615270106641006,-0.0446428356691073,-0.0415301329870227
1493001925.2,40.4532998437562,-79.9462789723449,11.1899995803833,0.002777099609375,-1.04518127441406,-0.0247802734375,-0.0323616683022069,0.0640191968121968,-0.0900585206865556
1493001925.4,40.4533788422629,-79.9463154011611,8.89999961853027,0.128890991210938,-1.00985717773438,-0.0595703125,-0.0295616207320976,0.0544312842556935,-0.066548400899445
1493001925.6,40.4533788422629,-79.9463154011611,8.89999961853027,0.10260009765625,-1.05062866210938,-0.0626373291015625,-0.0143456498439298,0.0298734768957458,-0.0247468917973433
1493001925.8,40.4533788422629,-79.9463154011611,8.89999961853027,0.104476928710938,-0.982040405273438,-0.047119140625,-0.00577186903052873,0.0489656787505239,-0.0183110967070578
1493001926.0,40.4533788422629,-79.9463154011611,8.89999961853027,0.0984344482421875,-1.040283203125,-0.0426788330078125,-0.0131917021435985,0.0436944840049301,-0.0237045305466863
1493001926.2,40.4534397497085,-79.9463434875926,6.71000003814697,0.037200927734375,-1.01547241210938,-0.0640716552734375,-0.0580249538306464,0.0599445603443756,-0.00714606015300962
1493001926.4,40.4534397497085,-79.9463434875926,6.71000003814697,0.0370025634765625,-0.999603271484375,-0.0147552490234375,-0.0474263716404581,0.115181983462036,-0.0508948726441773
1493001926.6,40.4534397497085,-79.9463434875926,6.71000003814697,0.0475616455078125,-1.00575256347656,-0.060272216796875,-0.0517710526428134,0.0322463534270064,-0.0123416211236452
1493001926.8,40.4534397497085,-79.9463434875926,6.71000003814697,0.0565032958984375,-1.0220947265625,-0.077911376953125,-0.0347659701343304,0.0300084991630129,-0.0110955280495971
1493001927.0,40.4534397497085,-79.9463434875926,6.71000003814697,0.07568359375,-1.01679992675781,-0.034423828125,-0.00519449570619955,0.0308828149488859,0.00733061721655211
1493001927.2,40.4534397497085,-79.9463434875926,6.71000003814697,0.0234832763671875,-1.02638244628906,-0.007476806640625,-0.0105740811081596,0.0117698404376052,0.000927579007674599
1493001927.4,40.4534784264879,-79.9463613227309,3.74000000953674,0.037567138671875,-1.04312133789062,-0.023040771484375,-0.00643100140032334,0.0138718734860047,0.0105604989866002
1493001927.6,40.4534784264879,-79.9463613227309,3.74000000953674,0.0124664306640625,-1.00912475585938,0.007171630859375,-0.0219918516496563,0.037372139577082,-0.00671888911416091
1493001927.8,40.4534784264879,-79.9463613227309,3.74000000953674,0.0180206298828125,-1.01670837402344,-0.008941650390625,0.00214011625198768,0.017006946721246,0.00850773441836713
1493001928.0,40.4534784264879,-79.9463613227309,3.74000000953674,0.0517578125,-1.00401306152344,0.078948974609375,-0.0231870783468839,0.0161052003761452,-0.00880867162154609
1493001928.2,40.4534784264879,-79.9463613227309,3.74000000953674,0.0727386474609375,-0.956329345703125,0.229095458984375,0.00882544953641359,0.0233428732706535,-0.00956580831945562
1493001928.4,40.4534986838662,-79.946370664076,1.46000003814697,0.0790557861328125,-0.955902099609375,0.225677490234375,-0.0186099033813647,0.0447946358512418,-0.016299344819612
1493001928.6,40.4534986838662,-79.946370664076,1.46000003814697,0.0290069580078125,-0.972518920898438,0.150634765625,-0.0250116100096972,0.0352621170454122,-0.0206051436700521
1493001928.8,40.4534986838662,-79.946370664076,1.46000003814697,0.076629638671875,-0.970306396484375,0.082427978515625,-0.0462170301894531,0.0375266029203065,-0.0261591661234123
1493001929.0,40.4534986838662,-79.946370664076,1.46000003814697,0.0196075439453125,-1.00169372558594,0.066680908203125,-0.0106952549377582,0.0170911026116925,0.0126409604301701
1493001929.2,40.4534986838662,-79.946370664076,1.46000003814697,0.0118408203125,-1.00669860839844,0.057830810546875,-0.0201287041510369,0.00970402638003073,-0.00236355546744532
1493001929.4,40.453505426531,-79.946373773341,1.0,0.0343475341796875,-0.987777709960938,0.0695953369140625,-0.00747575949596143,-0.0010149306914292,0.000992293822163524
1493001929.6,40.453505426531,-79.946373773341,1.0,0.04315185546875,-0.989700317382812,0.0967864990234375,-0.0127221868434175,0.0054011570067897,-0.00121040671544101
1493001929.8,40.453505426531,-79.946373773341,1.0,0.0316009521484375,-0.991989135742188,0.103271484375,-0.00436545365885789,-0.00635323709649303,0.00423655666209805
1493001930.0,40.453505426531,-79.946373773341,1.0,0.0602569580078125,-0.949188232421875,0.228744506835938,-0.0107232181292041,-0.00418462502084151,0.00309965319274323
1493001930.2,40.453505426531,-79.946373773341,1.0,0.0449676513671875,-0.97894287109375,0.179122924804688,-0.014923555800477,-0.00415799340994071,-0.00120827618656895
1493001930.4,40.45350379413,-79.9463730205871,0.0,0.043426513671875,-0.95452880859375,0.1812744140625,-0.0203524096826036,-0.00837670689273524,0.00407809857723834
1493001930.6,40.45350379413,-79.9463730205871,0.0,0.0478973388671875,-0.960800170898438,0.195968627929688,-0.0138748029632038,-0.00629225070753022,-0.00119203090391947
1493001930.8,40.45350379413,-79.9463730205871,0.0,0.0459747314453125,-0.97296142578125,0.181564331054688,-0.0149688295390084,-0.00628479385647799,0.000929176904328646
1493001931.0,40.45350379413,-79.9463730205871,0.0,0.0453948974609375,-0.958267211914062,0.191452026367188,-0.0160255718595518,-0.00521420309826614,0.000915594782769242
1493001931.2,40.45350379413,-79.9463730205871,0.0,0.04718017578125,-0.960464477539062,0.191574096679688,-0.0160269034400969,-0.00734180249313044,-0.000145142279409318
1493001931.4,40.4535051949268,-79.9463736665407,0.0,0.0462799072265625,-0.969711303710938,0.189437866210938,-0.0160109244735564,-0.00521446941437515,-0.000150468601589477
1493001931.6,40.4535051949268,-79.9463736665407,0.0,0.046173095703125,-0.961441040039062,0.19384765625,-0.0117453393555765,-0.00630609914519863,-0.00117019298298082
1493001931.8,40.4535051949268,-79.9463736665407,0.0,0.0479888916015625,-0.9627685546875,0.189987182617188,-0.0149382031864725,-0.00415772709383171,-0.000142212802210231
1493001932.0,40.4535051949268,-79.9463736665407,0.0,0.0460968017578125,-0.967208862304688,0.187362670898438,-0.0128313764481108,-0.00523497575476876,0.000948351664177217
1493001932.2,40.4535051949268,-79.9463736665407,0.0,0.04541015625,-0.964859008789062,0.192047119140625,-0.0128167290621153,-0.00523524207087777,-0.000117711720181502
1493001932.4,40.4535052385287,-79.946373686647,0.0,0.0458526611328125,-0.967300415039062,0.190078735351562,-0.014923555800477,-0.00415799340994071,-0.00120827618656895
1493001932.6,40.4535052385287,-79.946373686647,0.0,0.04522705078125,-0.963714599609375,0.190902709960938,-0.0170916352439105,-0.00733487827429624,-0.000156061239878643
1493001932.8,40.4535052385287,-79.946373686647,0.0,0.0463104248046875,-0.963729858398438,0.19134521484375,-0.0139040977351947,-0.0062917180753122,0.000940095864797971
1493001933.0,40.4535052385287,-79.946373686647,0.0,0.04498291015625,-0.96502685546875,0.188980102539062,-0.0138881187686542,-0.0041643849965569,0.000934769542617813
1493001933.2,40.4535052385287,-79.946373686647,0.0,0.0470428466796875,-0.966629028320312,0.193679809570312,-0.0149315452837473,-0.00522165994931836,-0.00120561302547887
1493001933.4,40.4535052821967,-79.9463737067837,0.0,0.0438079833984375,-0.962890625,0.1904296875,-0.0128247185453856,-0.00629890861025541,-0.000115048559091423
1493001933.6,40.4535052821967,-79.9463737067837,0.0,0.0467681884765625,-0.9654541015625,0.190536499023438,-0.0149461926697427,-0.00522139363320935,-0.000139549641120152
1493001933.8,40.4535052821967,-79.9463737067837,0.0,0.0468902587890625,-0.965408325195312,0.191940307617188,-0.013881460865929,-0.00522831785204356,-0.000128630680650827
1493001934.0,40.4535052821967,-79.9463737067837,0.0,0.0466766357421875,-0.965362548828125,0.191192626953125,-0.0149155663172068,-0.00309432687056307,-0.00121093934765903
1493001934.2,40.4535052821967,-79.9463737067837,0.0,0.0456695556640625,-0.962814331054688,0.189529418945312,-0.0138668134799336,-0.00522858416815257,-0.00119469406500955
1493001934.4,40.4535053258742,-79.9463737269249,0.0,0.04620361328125,-0.964111328125,0.19232177734375,-0.0149688295390084,-0.00628479385647799,0.000929176904328646
1493001934.6,40.4535053258742,-79.9463737269249,0.0,0.0456390380859375,-0.966903686523438,0.189743041992188,-0.0138588239966633,-0.00416491762877492,-0.00119735722609963
1493001934.8,40.4535053258742,-79.9463737269249,0.0,0.047515869140625,-0.966064453125,0.191452026367188,-0.0139027661546497,-0.0041641186804479,0.00200083292697653
1493001935.0,40.4535053258742,-79.9463737269249,0.0,0.0465545654296875,-0.963119506835938,0.190460205078125,-0.0139200767017352,-0.0084190511540675,0.00094542218697813
1493001935.2,40.4535053258742,-79.9463737269249,0.0,0.0466766357421875,-0.963851928710938,0.18896484375,-0.0138961082519245,-0.00522805153593455,0.000937432703707892
1493001935.4,40.4535048316116,-79.9463734990041,0.0,0.0451507568359375,-0.9638671875,0.189544677734375,-0.0138668134799336,-0.00522858416815257,-0.00119469406500955
1493001935.6,40.4535048316116,-79.9463734990041,0.0,0.0472412109375,-0.962814331054688,0.189895629882812,-0.0128327080286558,-0.00736257514963306,-0.000112385398001344
1493001935.8,40.4535048316116,-79.9463734990041,0.0,0.044586181640625,-0.964828491210938,0.190353393554688,-0.0128020816761199,-0.00523550838698677,-0.00118377510454022
1493001936.0,40.4535048316116,-79.9463734990041,0.0,0.04766845703125,-0.964218139648438,0.18597412109375,-0.0138654818993885,-0.00310098477328826,-0.000133957002830986
1493001936.2,40.4535048316116,-79.9463734990041,0.0,0.0443572998046875,-0.964736938476562,0.19140625,-0.0117373498723062,-0.00524243260582098,-0.0011728561440709
1493001936.4,40.4535048752927,-79.9463735191469,0.0,0.0445709228515625,-0.962234497070312,0.194381713867188,-0.011729360389036,-0.00417876606644333,-0.00117551930516098
1493001936.6,40.4535048752927,-79.9463735191469,0.0,0.04638671875,-0.9630126953125,0.191909790039062,-0.0117666446442971,-0.00524189997360296,0.000959270624646542
1493001936.8,40.4535048752927,-79.9463735191469,0.0,0.0502471923828125,-0.96142578125,0.185714721679688,-0.0128180606426604,-0.00736284146574207,-0.00117844878236006
1493001937.0,40.4535048752927,-79.9463735191469,0.0,0.044769287109375,-0.963104248046875,0.190048217773438,-0.0170756562773701,-0.00520754519554094,-0.000161387562058802
1493001937.2,40.4535048752927,-79.9463735191469,0.0,0.048248291015625,-0.962646484375,0.1895751953125,-0.0181097617286478,-0.00307355421406045,-0.001243696229067
1493001937.4,40.4535049189563,-79.9463735392816,0.0,0.04644775390625,-0.964263916015625,0.189468383789062,-0.0160335613428221,-0.00627786963764379,0.000918257943859321
1493001937.6,40.4535049189563,-79.9463735392816,0.0,0.04534912109375,-0.96722412109375,0.186569213867188,-0.0139360556682756,-0.0105463842328228,0.000950748509158288
1493001937.8,40.4535049189563,-79.9463735392816,0.0,0.045806884765625,-0.964111328125,0.191741943359375,-0.0149395347670175,-0.00628532648869601,-0.00120294986438879
1493001938.0,40.4535049189563,-79.9463735392816,0.0,0.04742431640625,-0.963272094726562,0.188827514648438,-0.0117373498723062,-0.00524243260582098,-0.0011728561440709
1493001938.2,40.4535049189563,-79.9463735392816,0.0,0.04620361328125,-0.964767456054688,0.188339233398438,-0.0160255718595518,-0.00521420309826614,0.000915594782769242
1493001938.4,40.4535049626003,-79.9463735594073,0.0,0.0474090576171875,-0.963638305664062,0.187088012695312,-0.0160255718595518,-0.00521420309826614,0.000915594782769242
1493001938.6,40.4535049626003,-79.9463735594073,0.0,0.046478271484375,-0.962387084960938,0.192901611328125,-0.0170610088913746,-0.00520781151164995,-0.00122745094641752
1493001938.8,40.4535049626003,-79.9463735594073,0.0,0.0445556640625,-0.965576171875,0.19024658203125,-0.0117599867415719,-0.00630583282908962,-0.000104129598622098
1493001939.0,40.4535049626003,-79.9463735594073,0.0,0.04595947265625,-0.963165283203125,0.192001342773438,-0.0181323985979135,-0.00413695443732909,-0.000174969683618206
1493001939.2,40.4535049626003,-79.9463735594073,0.0,0.0448150634765625,-0.965774536132812,0.192138671875,-0.0128100711593901,-0.00629917492636442,-0.00118111194345014
1493001939.4,40.453505820159,-79.9463739548559,0.0,0.0488433837890625,-0.966018676757812,0.187698364257812,-0.0128247185453856,-0.00629890861025541,-0.000115048559091423
1493001939.6,40.453505820159,-79.9463739548559,0.0,0.046112060546875,-0.966583251953125,0.19189453125,-0.0181403880811837,-0.00520062097670674,-0.000172306522528127
1493001939.8,40.453505820159,-79.9463739548559,0.0,0.0482940673828125,-0.962554931640625,0.190353393554688,-0.0160175823762816,-0.00415053655888849,0.000912931621679163
1493001940.0,40.453505820159,-79.9463739548559,0.0,0.0465240478515625,-0.96453857421875,0.186172485351562,-0.0160109244735564,-0.00521446941437515,-0.000150468601589477
1493001940.2,40.453505820159,-79.9463739548559,0.0,0.046844482421875,-0.964157104492188,0.193450927734375,-0.0117440077750314,-0.00417849975033432,-0.000109455920802257
1493001940.4,40.4535042705233,-79.9463732402678,0.0,0.0457611083984375,-0.967880249023438,0.191986083984375,-0.0181177512119181,-0.0041372207534381,-0.00124103306797692
1493001940.6,40.4535042705233,-79.9463732402678,0.0,0.046783447265625,-0.96099853515625,0.188644409179688,-0.0138668134799336,-0.00522858416815257,-0.00119469406500955
1493001940.8,40.4535042705233,-79.9463732402678,0.0,0.044586181640625,-0.964279174804688,0.188018798828125,-0.018148377564454,-0.00626428751608438,-0.000169643361438047
1493001941.0,40.4535042705233,-79.9463732402678,0.0,0.0487823486328125,-0.964126586914062,0.1890869140625,-0.0138961082519245,-0.00522805153593455,0.000937432703707892
1493001941.2,40.4535042705233,-79.9463732402678,0.0,0.0464630126953125,-0.963699340820312,0.186660766601562,-0.0170823141800953,-0.00414361234005429,0.000902012661209838
1493001941.4,40.4535043858565,-79.9463732934517,0.0,0.045013427734375,-0.964141845703125,0.188140869140625,-0.0128100711593901,-0.00629917492636442,-0.00118111194345014
1493001941.6,40.4535043858565,-79.9463732934517,0.0,0.0470123291015625,-0.963516235351562,0.190261840820312,-0.0149461926697427,-0.00522139363320935,-0.000139549641120152
1493001941.8,40.4535043858565,-79.9463732934517,0.0,0.0451507568359375,-0.965560913085938,0.193405151367188,-0.0138495029328481,-0.00097365169453297,-0.000139283325011144
1493001942.0,40.4535043858565,-79.9463732934517,0.0,0.0473175048828125,-0.965606689453125,0.184799194335938,-0.0128087395788451,-0.00417157553150012,-0.000120374881271582
1493001942.2,40.4535043858565,-79.9463732934517,0.0,0.056304931640625,-0.955703735351562,0.1829833984375,-0.00205489509710514,-0.0095618135778205,-0.0106585033147151
1493001942.4,40.4535044294465,-79.9463733135525,0.0,0.083160400390625,-0.926742553710938,0.3428955078125,0.0065069014913906,0.002083923552987,-0.00740225624987524
1493001942.6,40.4535044294465,-79.9463733135525,0.0,0.05682373046875,-0.9249267578125,0.376693725585938,0.0051185956151323,-0.0117328224984531,0.00861239664920725
1493001942.8,40.4535044294465,-79.9463733135525,0.0,0.083038330078125,-0.894851684570312,0.425628662109375,-0.00725738028657493,0.0202573348316877,-0.00332522293707294
1493001943.0,40.4535044294465,-79.9463733135525,0.0,0.0925750732421875,-0.893875122070312,0.460281372070312,-0.0146053080502126,0.0362610687703009,-0.00237553969235068
1493001943.2,40.4535044294465,-79.9463733135525,0.0,0.0852203369140625,-0.897720336914062,0.4642333984375,0.0026248115703821,0.0425296173441294,-0.0128774491349691
1493001943.4,40.4535222705406,-79.9463815406693,1.17999994754791,0.13946533203125,-0.861373901367188,0.490158081054688,-0.0235101197871105,0.0777997238728118,-0.0292292582280557
1493001943.6,40.4535222705406,-79.9463815406693,1.17999994754791,0.355880737304688,-0.823135375976562,0.428695678710938,-0.054582019173392,0.220529978282846,-0.0928223492658398
1493001943.8,40.4535222705406,-79.9463815406693,1.17999994754791,0.3145751953125,-0.99285888671875,0.367538452148438,0.108258030943939,0.257768959805424,-0.0656621008886667
1493001944.0,40.4535222705406,-79.9463815406693,1.17999994754791,0.556900024414062,-0.796173095703125,0.463958740234375,-0.0503337446024976,0.261991135397635,-0.0694291422505838
1493001944.2,40.4535222705406,-79.9463815406693,1.17999994754791,0.197540283203125,-0.759933471679688,0.447891235351562,0.127419741303168,0.396991298427605,-0.0668914160478472
1493001944.4,40.4535438862874,-79.9463915084028,3.72000002861023,0.227493286132812,-1.16383361816406,0.468582153320312,0.0552222430994471,0.529358660403922,-0.0882302605982161
1493001944.6,40.4535438862874,-79.9463915084028,3.72000002861023,0.323944091796875,-0.946090698242188,0.227371215820312,-0.0525393746173012,0.406659904765138,-0.140195191368387
1493001944.8,40.4535438862874,-79.9463915084028,3.72000002861023,0.419677734375,-1.02694702148438,0.13995361328125,0.0480388986911763,0.476224069282988,-0.0593789049288427
1493001945.0,40.4535438862874,-79.9463915084028,3.72000002861023,0.462112426757812,-0.851287841796875,0.211441040039062,-0.0995622773526123,0.604811873040265,-0.17530683981221
1493001945.2,40.4535719472659,-79.9464044482453,5.01000022888184,0.573501586914062,-0.865402221679688,0.30279541015625,0.085939675744639,0.576970121740141,-0.437756837865666
1493001945.4,40.4535719472659,-79.9464044482453,5.01000022888184,0.598892211914062,-0.935150146484375,0.12481689453125,-0.0553958812025202,0.636408148845183,-0.349795290221439
1493001945.6,40.4535719472659,-79.9464044482453,5.01000022888184,0.18023681640625,-0.998519897460938,0.245956420898438,0.137473707050435,0.203368834534484,0.181072849888341
1493001945.8,40.4535719472659,-79.9464044482453,5.01000022888184,0.364913940429688,-0.952957153320312,0.353195190429688,-0.0207886354691585,0.468144304851797,-0.169882779620046
1493001946.0,40.4535719472659,-79.9464044482453,5.01000022888184,0.400436401367188,-0.913772583007812,0.381179809570312,-0.0541718923655198,0.384349539049108,-0.0335329265496237
1493001946.2,40.4535719472659,-79.9464044482453,5.01000022888184,0.391342163085938,-0.893020629882812,0.33050537109375,-0.0908044721078867,0.452651897842479,-0.120447585569341
1493001946.4,40.4535518615807,-79.9464654546426,5.40000009536743,0.22772216796875,-0.959762573242188,0.400192260742188,-0.00532738744459451,0.381905822432851,-0.0244968209709849
1493001946.6,40.4535518615807,-79.9464654546426,5.40000009536743,0.099578857421875,-0.855453491210938,0.323455810546875,-0.0488247975288587,0.218372285167663,-0.0479768470377775
1493001946.8,40.4535518615807,-79.9464654546426,5.40000009536743,-0.0291900634765625,-0.88348388671875,0.301300048828125,0.111149691255547,0.263047877718179,-0.195724230625411
1493001947.0,40.4535518615807,-79.9464654546426,5.40000009536743,0.259689331054688,-0.922592163085938,0.32366943359375,-0.0647449082092434,0.10360841799677,0.0406520887756235
1493001947.2,40.4535518615807,-79.9464654546426,5.40000009536743,0.1058349609375,-1.08604431152344,0.309249877929688,0.217326461807589,0.378303897058519,-0.187471094407256
1493001947.4,40.4535290661386,-79.9465337354871,6.44999980926514,0.404754638671875,-0.653656005859375,0.26165771484375,-0.419055588058911,0.426054908035858,-0.194109822372605
1493001947.6,40.4535290661386,-79.9465337354871,6.44999980926514,0.468780517578125,-1.03900146484375,0.253387451171875,-0.0865545996403383,0.218610638085225,-0.0920785283733807
1493001947.8,40.4535290661386,-79.9465337354871,6.44999980926514,0.278152465820312,-0.637344360351562,0.274383544921875,-0.317854934003682,-0.2234171112206,0.147658434007225
1493001948.0,40.4535290661386,-79.9465337354871,6.44999980926514,0.0245208740234375,-1.00798034667969,0.140518188476562,-0.0959108171820047,0.22930695828742,-0.102864064472093
1493001948.2,40.4535290661386,-79.9465337354871,6.44999980926514,0.0278778076171875,-0.924240112304688,0.248489379882812,-0.146989447941397,-0.0703063875136559,0.0413250695830866
1493001948.4,40.4534961156838,-79.9466324343793,8.81999969482422,0.047210693359375,-0.9344482421875,0.378082275390625,0.0527130127203744,-0.253486596772576,0.133404396904794
1493001948.6,40.4534961156838,-79.9466324343793,8.81999969482422,-0.0486297607421875,-0.927627563476562,0.2852783203125,-0.00159949455070159,-0.04254825947176,-0.0617469877701412
1493001948.8,40.4534961156838,-79.9466324343793,8.81999969482422,0.047882080078125,-0.787811279296875,0.488571166992188,0.102013983452139,-0.0559668629402332,0.0630292998350143
1493001949.0,40.4534961156838,-79.9466324343793,8.81999969482422,0.171463012695312,-0.862625122070312,0.402618408203125,-0.142389103474395,-0.0001411475377742,-0.0227817452289738
1493001949.2,40.4534961156838,-79.9466324343793,8.81999969482422,0.148361206054688,-0.976959228515625,0.271713256835938,0.0497608986520216,-0.0332860515165734,0.080561421923224
1493001949.4,40.4534570558221,-79.9467497097132,10.0500001907349,-0.0050201416015625,-0.916015625,0.365219116210938,-0.0538323393265347,-0.0666506662853041,0.0838517574500169
1493001949.6,40.4534570558221,-79.9467497097132,10.0500001907349,0.108932495117188,-0.87933349609375,0.263687133789062,0.0202645253666309,0.00837830478938928,0.00231828172891398
1493001949.8,40.4534570558221,-79.9467497097132,10.0500001907349,0.1590576171875,-0.8553466796875,0.250503540039062,0.0667310937502245,0.139980806900636,0.0248448961254582
1493001950.0,40.4534570558221,-79.9467497097132,10.0500001907349,-0.110763549804688,-1.40245056152344,0.56744384765625,0.489902330957744,0.364816850350031,-0.268876472079926
1493001950.2,40.4534570558221,-79.9467497097132,10.0500001907349,0.033782958984375,-0.830642700195312,0.278778076171875,-0.00415479761663262,-0.0765437771027304,0.10571018472906
1493001950.4,40.4534177832088,-79.9468732255851,11.8800001144409,0.069610595703125,-0.788955688476562,0.250991821289062,-0.287918073873993,0.142263402270943,-0.126995766057628
1493001950.6,40.4534177832088,-79.9468732255851,11.8800001144409,0.37353515625,-0.732772827148438,0.0108184814453125,-0.0248520866604014,-0.144487674413377,0.102474976636832
1493001950.8,40.4534177832088,-79.9468732255851,11.8800001144409,-0.072784423828125,-0.917129516601562,0.380599975585938,0.0125195202844625,-0.143655702888836,0.173225579420313
1493001951.0,40.4534177832088,-79.9468732255851,11.8800001144409,-0.0240631103515625,-0.919418334960938,0.463851928710938,-0.0270036545050765,-0.105124821921461,0.0479744501927964
1493001951.2,40.4534177832088,-79.9468732255851,11.8800001144409,0.02032470703125,-0.974594116210938,0.27825927734375,0.0917080826657506,0.0376991757589437,0.0115037906447063
1493001951.4,40.4533751047747,-79.9470074530676,12.6400003433228,-0.039337158203125,-1.00457763671875,0.301101684570312,-0.0269189659824119,-0.114688233395935,0.114105267433317
1493001951.6,40.4533751047747,-79.9470074530676,12.6400003433228,-0.0608978271484375,-1.03462219238281,0.432723999023438,-0.0566821880090285,-0.15279247595668,0.0893759524991682
1493001951.8,40.4533751047747,-79.9470074530676,12.6400003433228,0.049835205078125,-0.9752197265625,0.326950073242188,0.0553628580050032,-0.0216238027870074,0.0667278979569164
1493001952.0,40.4533751047747,-79.9470074530676,12.6400003433228,-0.0484161376953125,-1.01669311523438,0.340042114257812,-0.0154146427054876,-0.130717799997122,0.120661703720983
1493001952.2,40.4533751047747,-79.9470074530676,12.6400003433228,-0.0929412841796875,-0.83526611328125,0.2559814453125,0.0664442713008229,-0.100423011016926,-0.00759027542283484
1493001952.4,40.4533292320586,-79.9471517268518,13.6300001144409,0.051513671875,-1.07368469238281,0.230331420898438,0.101419299580725,-0.0772447211016393,0.0172309185689217
1493001952.6,40.4533292320586,-79.9471517268518,13.6300001144409,-0.01593017578125,-0.847335815429688,0.281173706054688,0.428377717138625,-0.252723601120268,0.230009233866874
1493001952.8,40.4533292320586,-79.9471517268518,13.6300001144409,0.22125244140625,-0.649063110351562,0.1864013671875,-0.248414872792629,0.013308881231562,-0.0494911204335965
1493001953.0,40.4533292320586,-79.9471517268518,13.6300001144409,-0.112289428710938,-0.90673828125,0.239456176757812,0.136583412298022,0.258628628205301,-0.189055142623635
1493001953.2,40.4533292320586,-79.9471517268518,13.6300001144409,0.0478363037109375,-0.771041870117188,0.277969360351562,-0.101441137501663,-0.0557189226427468,-0.0104907241660401
1493001953.4,40.4532808440814,-79.9473039113565,13.9499998092651,0.074493408203125,-1.03610229492188,0.14715576171875,-0.0892374681224841,-0.051523911293654,0.111171795492595
1493001953.6,40.4532808440814,-79.9473039113565,13.9499998092651,0.013885498046875,-1.14375305175781,0.30572509765625,0.0553370253424295,-0.125864455226562,0.0893871377757466
1493001953.8,40.4532808440814,-79.9473039113565,13.9499998092651,-0.110382080078125,-1.06541442871094,0.341934204101562,0.0972863398850306,-0.0910364334388327,0.0779983956901317
1493001954.0,40.4532808440814,-79.9473039113565,13.9499998092651,-0.0980224609375,-0.956649780273438,0.411880493164062,0.0125882298405865,0.0541623049855955,-0.0341297409499105
1493001954.2,40.4532808440814,-79.9473039113565,13.9499998092651,0.0391693115234375,-0.903945922851562,0.161865234375,-0.0882888501421979,0.285612575318311,-0.239406730405436
1493001954.4,40.4532492869586,-79.9474031613226,14.1899995803833,0.126388549804688,-0.835601806640625,0.238433837890625,0.171713170237257,0.0403436947213924,-0.151880875915546
1493001954.6,40.4532492869586,-79.9474031613226,14.1899995803833,0.088897705078125,-0.750411987304688,0.155960083007812,-0.112558503472199,0.0124428212450682,0.0606558906715357
1493001954.8,40.4532492869586,-79.9474031613226,14.1899995803833,-0.06951904296875,-0.587478637695312,0.1650390625,-0.10108773602501,0.0453243385920586,-0.0587274957262093
1493001955.0,40.4532492869586,-79.9474031613226,14.1899995803833,0.137451171875,-0.929000854492188,0.32110595703125,0.0568238681790207,-0.235451669870559,-0.000943025341997058
1493001955.2,40.4532492869586,-79.9474031613226,14.1899995803833,0.151092529296875,-1.07649230957031,0.109573364257812,0.089065161599956,0.0526032904834631,-0.0205481520227244
1493001955.4,40.4531845146326,-79.9476226537574,14.3599996566772,0.170425415039062,-0.60321044921875,0.262985229492188,-0.102591090460359,-0.133368710546187,-0.0465533874351301
1493001955.6,40.4531845146326,-79.9476226537574,14.3599996566772,0.702285766601562,-0.905532836914062,-0.104721069335938,-0.042887546194636,0.294896088562218,-0.205913218639946
1493001955.8,40.4531845146326,-79.9476226537574,14.3599996566772,0.0615386962890625,-0.98480224609375,0.361419677734375,0.0414457107804672,-0.186398373120172,0.137380762728392
1493001956.0,40.4531845146326,-79.9476226537574,14.3599996566772,-0.10009765625,-1.04617309570312,0.279617309570312,-0.0467272918543123,0.132190261763827,-0.0925139552116086
1493001956.2,40.4531845146326,-79.9476226537574,14.3599996566772,0.136627197265625,-0.851913452148438,0.251602172851562,0.0461973227973865,-0.159839732833248,0.116036591855842
1493001956.4,40.4531381990892,-79.9477786240882,14.4300003051758,0.0376434326171875,-0.887786865234375,0.272567749023438,0.0645033594983732,-0.131250698531247,0.0393828262000918
1493001956.6,40.4531381990892,-79.9477786240882,14.4300003051758,0.04949951171875,-1.00717163085938,0.249298095703125,0.0556882962902109,-0.0237697779933932,-0.0356197795798098
1493001956.8,40.4531381990892,-79.9477786240882,14.4300003051758,0.087127685546875,-0.985015869140625,0.225082397460938,0.0564859130366897,-0.00144423225914997,-0.0815164314901264
1493001957.0,40.4531381990892,-79.9477786240882,14.4300003051758,0.05047607421875,-1.148193359375,0.226089477539062,0.0212986308179087,-0.0171595458517076,-0.00933358067240071
1493001957.2,40.453092068406,-79.9479376119777,14.4200000762939,0.0023651123046875,-0.9093017578125,0.279281616210938,0.0104078998561387,-0.134080307189456,0.0996104805683427
1493001957.4,40.453092068406,-79.9479376119777,14.4200000762939,0.0276947021484375,-1.19747924804688,0.231216430664062,0.12161271854625,-0.0699165007300683,0.101649663015016
1493001957.6,40.453092068406,-79.9479376119777,14.4200000762939,-0.0106658935546875,-1.09126281738281,0.272171020507812,-0.0412092220756681,0.161938836404448,-0.0904018021510668
1493001957.8,40.453092068406,-79.9479376119777,14.4200000762939,-0.0479888916015625,-0.817642211914062,0.30438232421875,-0.0899466679207722,-0.0685444401364594,0.076023395425729
1493001958.0,40.453092068406,-79.9479376119777,14.4200000762939,-0.305526733398438,-1.31248474121094,0.222244262695312,-0.0829630605942574,-0.310019914076669,0.288894655045725
1493001958.2,40.4530460073907,-79.9480965083453,14.4499998092651,0.247329711914062,-1.06733703613281,-0.121810913085938,-0.0893394671922342,0.46641751120099,-0.452060676080481
1493001958.4,40.4530460073907,-79.9480965083453,14.4499998092651,0.285980224609375,-0.973876953125,0.115386962890625,-0.0629994724308054,0.28014457296816,-0.145306862764685
1493001958.6,40.4530460073907,-79.9480965083453,14.4499998092651,0.115142822265625,-0.559417724609375,0.282455444335938,-0.190184855558047,0.256484783527787,-0.279824727321242
1493001958.8,40.4530460073907,-79.9480965083453,14.4499998092651,-0.0548553466796875,-1.009033203125,-0.10205078125,-0.0578736862807299,-0.100681337642664,-0.0280542715551127
1493001959.0,40.4530460073907,-79.9480965083453,14.4499998092651,-0.019256591796875,-0.481521606445312,0.464309692382812,-0.0600462930980166,0.117364976607574,-0.216292888988529
1493001959.2,40.4530005570672,-79.9482532980135,14.0100002288818,0.419754028320312,-0.813156127929688,-0.124893188476562,-0.363919897694892,0.396976118409391,-0.19240406769441
1493001959.4,40.4530005570672,-79.9482532980135,14.0100002288818,0.358718872070312,-0.658248901367188,0.199478149414062,-0.0181268059596243,-0.0977276256776567,0.103489374696043
1493001959.6,40.4530005570672,-79.9482532980135,14.0100002288818,-0.0191192626953125,-0.653030395507812,0.165786743164062,-0.14785044792182,-0.0256230717959794,0.0507968683160624
1493001959.8,40.4530005570672,-79.9482532980135,14.0100002288818,-0.158645629882812,-0.930587768554688,0.302841186523438,-0.0453765365494241,-0.0443773185084264,0.0231066508819635
1493001960.0,40.4530005570672,-79.9482532980135,14.0100002288818,0.169876098632812,-0.958724975585938,0.0639190673828125,0.0973563810216997,0.120611103660272,-0.121929102083752
1493001960.2,40.4529579944901,-79.9484040868637,13.2799997329712,0.127670288085938,-0.94720458984375,0.20745849609375,-0.0579139000131901,0.0780149072888902,-0.0828927531414793
1493001960.4,40.4529579944901,-79.9484040868637,13.2799997329712,0.076202392578125,-0.992401123046875,0.161087036132812,-0.0119930133369538,-0.0158759022062894,0.0116465360791345
1493001960.6,40.4529579944901,-79.9484040868637,13.2799997329712,-0.12164306640625,-1.05549621582031,0.1708984375,0.0762769283615045,0.0739503908332113,-0.0857732281765091
1493001960.8,40.4529579944901,-79.9484040868637,13.2799997329712,0.06378173828125,-0.996658325195312,0.235397338867188,-0.0223527099773621,0.022485335399648,0.0114414726751984
1493001961.0,40.4529579944901,-79.9484040868637,13.2799997329712,-0.0703582763671875,-0.683807373046875,0.192947387695312,-0.107797836707573,0.273015024413909,0.0109863384449039
1493001961.2,40.452917757827,-79.948547962983,12.7600002288818,0.469772338867188,-1.06044006347656,0.083587646484375,0.00537106328647181,-0.104276605114271,0.0173835176993832
1493001961.4,40.452917757827,-79.948547962983,12.7600002288818,0.2864990234375,-0.773056030273438,0.200149536132812,-0.15328915549998,0.206274875915978,-0.124716366480629
1493001961.6,40.452917757827,-79.948547962983,12.7600002288818,0.201400756835938,-1.00032043457031,0.0814208984375,0.0163131932572804,-0.283021852209882,0.208809140009298
1493001961.8,40.452917757827,-79.948547962983,12.7600002288818,-0.1025390625,-0.925933837890625,0.225738525390625,-0.0857191660063804,-0.0324143988917904,0.0205303088434208
1493001962.0,40.452917757827,-79.948547962983,12.7600002288818,0.073822021484375,-0.994476318359375,0.167877197265625,-0.197999635460775,0.0236147820179506,-0.0703258285896134
1493001962.2,40.4528795536501,-79.9486845714465,12.0200004577637,0.063018798828125,-0.8883056640625,0.192947387695312,-0.0213891782949714,0.0363098046182493,0.0263426579225188
1493001962.4,40.4528795536501,-79.9486845714465,12.0200004577637,-0.0033416748046875,-0.513824462890625,0.326217651367188,-0.208329504696975,-0.177332440137324,0.107078516897143
1493001962.6,40.4528795536501,-79.9486845714465,12.0200004577637,0.1802978515625,-1.06829833984375,0.145172119140625,-0.0769544365428207,0.0153848153012788,-0.0488072206656642
1493001962.8,40.4528795536501,-79.9486845714465,12.0200004577637,0.059661865234375,-0.957366943359375,0.118240356445312,0.109052185581001,-0.0592116584123858,0.0140638874005994
1493001963.0,40.4528795536501,-79.9486845714465,12.0200004577637,0.02935791015625,-0.990020751953125,0.2437744140625,0.0695071728705231,0.0218845262577261,-0.00894076441161402
1493001963.2,40.4528795536501,-79.9486845714465,12.0200004577637,0.049713134765625,-1.17015075683594,0.105850219726562,0.113915650363703,-0.0411655462337908,-0.0200517387955336
1493001963.4,40.4528441742415,-79.9488110792537,11.2799997329712,0.0675506591796875,-0.973007202148438,0.21612548828125,-0.0196645151730361,-0.048801628027375,0.00952053458092427
1493001963.6,40.4528441742415,-79.9488110792537,11.2799997329712,-0.210494995117188,-0.80328369140625,0.211502075195312,-0.111733722482601,-0.243901081061054,0.17114591692507
1493001963.8,40.4528441742415,-79.9488110792537,11.2799997329712,-0.059661865234375,-0.879241943359375,0.192672729492188,-0.113424297142584,0.0422204243415712,-0.0151310160493942
1493001964.0,40.4528441742415,-79.9488110792537,11.2799997329712,0.341415405273438,-1.56307983398438,0.042510986328125,-0.145585695730817,0.103032109936877,-0.199006044036716
1493001964.2,40.4528311500703,-79.9489441607892,10.9700002670288,-0.013427734375,-0.938644409179688,0.236343383789062,0.0104262756676602,0.079720661967086,0.0596090020470256
1493001964.4,40.4528311500703,-79.9489441607892,10.9700002670288,0.0962371826171875,-0.987823486328125,0.177581787109375,-0.155269748402672,0.31264232880207,-0.232698760251745
1493001964.6,40.4528311500703,-79.9489441607892,10.9700002670288,0.18359375,-1.00286865234375,0.14776611328125,-0.0805398503183943,0.22281869892366,-0.140007438511537
1493001964.8,40.4528311500703,-79.9489441607892,10.9700002670288,0.120086669921875,-0.966201782226562,0.166213989257812,0.0729772717708963,-0.0610937143547447,0.0808708812418912
1493001965.0,40.4528311500703,-79.9489441607892,10.9700002670288,0.004791259765625,-0.921356201171875,0.137115478515625,0.0313310249603462,-0.119318671583256,0.134971667206306
1493001965.2,40.4527945211534,-79.9490608368813,10.460000038147,-0.106002807617188,-1.05928039550781,0.223434448242188,-0.109691077926511,-0.19819431253646,0.0473680484125854
1493001965.4,40.4527945211534,-79.9490608368813,10.460000038147,0.0427703857421875,-1.02740478515625,0.235992431640625,0.0387572496600322,-0.0130103408733641,0.0398803046917186
1493001965.6,40.4527945211534,-79.9490608368813,10.460000038147,0.125747680664062,-0.969924926757812,0.117401123046875,-0.0548627163522864,0.0205633320409378,-0.0262039072297257
1493001965.8,40.4527945211534,-79.9490608368813,10.460000038147,0.0308837890625,-0.89654541015625,0.088623046875,-0.029475600628888,0.0235916125164669,-0.0120910176650687
1493001966.0,40.4527945211534,-79.9490608368813,10.460000038147,-0.14068603515625,-0.943603515625,0.2088623046875,0.17686638694656,-0.219195734576716,0.106865464009937
1493001966.2,40.4527945211534,-79.9490608368813,10.460000038147,-0.09075927734375,-0.982574462890625,0.329818725585938,-0.0983233748135075,0.284631733088835,-0.129686890339153
1493001966.4,40.4527570959557,-79.9491726514697,10.1800003051758,0.0274810791015625,-0.86773681640625,0.2735595703125,0.167467825143562,-0.00534789378498812,-0.0227945284022062
1493001966.6,40.4527570959557,-79.9491726514697,10.1800003051758,0.0362396240234375,-0.661758422851562,0.186325073242188,0.0449791929147843,-0.056665143778052,0.0283283108312819
1493001966.8,40.4527570959557,-79.9491726514697,10.1800003051758,-0.073211669921875,-0.907058715820312,0.143798828125,-0.211328224084404,-0.113511382510229,-0.027459853999807
1493001967.0,40.4527570959557,-79.9491726514697,10.1800003051758,-0.00543212890625,-0.970413208007812,0.245681762695312,0.0757104739976446,-0.249363490772915,0.244515472324535
1493001967.2,40.452709302535,-79.9492759327214,9.97000026702881,-0.0150299072265625,-1.03402709960938,0.229095458984375,0.0636934922108801,0.0580976581284056,0.0463493892956301
1493001967.4,40.452709302535,-79.9492759327214,9.97000026702881,0.128021240234375,-1.37098693847656,-0.0380706787109375,0.286827243091496,0.111920410075016,-0.197800431011237
1493001967.6,40.452709302535,-79.9492759327214,9.97000026702881,-0.016204833984375,-0.869842529296875,0.087432861328125,-0.0308556507057671,-0.114666395474997,0.0906081971355479
1493001967.8,40.452709302535,-79.9492759327214,9.97000026702881,0.031829833984375,-0.895523071289062,0.183624267578125,0.0391721701578665,-0.277832416509753,0.330578186111536
1493001968.0,40.452709302535,-79.9492759327214,9.97000026702881,-0.16204833984375,-1.07774353027344,0.175491333007812,0.0165406272143731,0.146666939133389,-0.11642647863943
1493001968.2,40.4526765191107,-79.9493837500777,9.65999984741211,-0.092926025390625,-0.826416015625,0.0807037353515625,0.0955808515229439,-0.0410435734558652,-0.00318034697377263
1493001968.4,40.4526765191107,-79.9493837500777,9.65999984741211,0.0745086669921875,-0.839065551757812,0.0955963134765625,-0.170261747443164,-0.0382424606213198,0.0474013379262114
1493001968.6,40.4526765191107,-79.9493837500777,9.65999984741211,-0.0191802978515625,-0.8870849609375,0.154052734375,0.0512000709051004,-0.157740895578156,0.140605318176259
1493001968.8,40.4526765191107,-79.9493837500777,9.65999984741211,0.1163330078125,-1.01083374023438,-0.0102691650390625,-0.107684386045136,-0.0227018503962715,-0.00317635223213751
1493001969.0,40.4526765191107,-79.9493837500777,9.65999984741211,0.118743896484375,-1.09658813476562,0.13134765625,0.0784311593672696,0.0739485266204482,-0.010049971005632
1493001969.2,40.4526765191107,-79.9493837500777,9.65999984741211,0.114410400390625,-0.90618896484375,0.141998291015625,0.0122859610568625,0.0743802250331501,-0.00113237609550169
1493001969.4,40.4526484493451,-79.9494760652638,8.06999969482422,0.303253173828125,-1.03237915039062,0.112747192382812,-0.085232340159114,0.189863678330583,-0.203943278381614
1493001969.6,40.4526484493451,-79.9494760652638,8.06999969482422,0.336044311523438,-1.08589172363281,0.13043212890625,-0.0276018004859082,0.327770415374265,-0.215437481646396
1493001969.8,40.4526484493451,-79.9494760652638,8.06999969482422,0.251983642578125,-1.01692199707031,0.164886474609375,-0.0354807625709077,0.176790220539384,-0.111705759291156
1493001970.0,40.4526484493451,-79.9494760652638,8.06999969482422,0.250289916992188,-0.887603759765625,0.1610107421875,-0.0856866754410815,0.129271969841318,0.0286430964721292
1493001970.2,40.4526238184143,-79.9495570708909,7.34000015258789,0.335525512695312,-0.969375610351562,0.0809478759765625,-0.0347614427604773,0.21722685958282,0.0129442944783301
1493001970.4,40.4526238184143,-79.9495570708909,7.34000015258789,0.30047607421875,-0.92877197265625,0.122467041015625,0.000527039579726681,0.336130078036024,-0.0104579672846322
1493001970.6,40.4526238184143,-79.9495570708909,7.34000015258789,0.2254638671875,-0.943222045898438,0.11993408203125,-0.0813108354539723,0.313256720065551,-0.0346935321526802
1493001970.8,40.4526238184143,-79.9495570708909,7.34000015258789,0.153900146484375,-0.8997802734375,0.179580688476562,-0.0290404401067691,0.341638560434744,-0.0257019013642457
1493001971.0,40.4526238184143,-79.9495570708909,7.34000015258789,0.20806884765625,-0.95501708984375,0.0933074951171875,-0.0390254299818031,0.374661491635617,-0.133576969743431
1493001971.2,40.4526238184143,-79.9495570708909,7.34000015258789,0.377670288085938,-0.956741333007812,0.126434326171875,-0.0400518122659197,0.270451465548599,0.0394081262304475
1493001971.4,40.4526029781008,-79.9496256100249,6.6399998664856,0.110305786132812,-0.989700317382812,0.115280151367188,-0.0228858748275959,0.358609820797383,-0.0768609595885589
1493001971.6,40.4526029781008,-79.9496256100249,6.6399998664856,0.191131591796875,-0.97998046875,0.121170043945312,0.0153206331190078,0.300916963154669,-0.098711397384332
1493001971.8,40.4526029781008,-79.9496256100249,6.6399998664856,0.342910766601562,-0.972091674804688,0.175689697265625,0.0788684504182606,0.227117040923048,-0.036029906387682
1493001972.0,40.4526029781008,-79.9496256100249,6.6399998664856,0.219284057617188,-0.91925048828125,0.191543579101562,0.0105604989866002,0.232882252050851,-0.0218171482821471
1493001972.2,40.4526029781008,-79.9496256100249,6.6399998664856,0.308853149414062,-0.98834228515625,0.156280517578125,-0.0323800441137284,0.422486804807369,-0.126168854539158
1493001972.4,40.4525732161989,-79.9497014234009,6.5,0.36956787109375,-1.08233642578125,0.125503540039062,0.00976954014284668,0.256300492780354,0.0484844455415466
1493001972.6,40.4525732161989,-79.9497014234009,6.5,0.250274658203125,-0.997650146484375,0.153091430664062,0.0417570343118974,0.400733039759166,-0.108294249934764
1493001972.8,40.4525732161989,-79.9497014234009,6.5,-0.0142669677734375,-0.932861328125,0.321517944335938,-0.0867506082965681,0.405820210073436,-0.130947364483087
1493001973.0,40.4525732161989,-79.9497014234009,6.5,0.199859619140625,-1.07704162597656,0.155197143554688,-0.0418308038740926,0.0960186752061529,0.0739589129486995
1493001973.2,40.4525732161989,-79.9497014234009,6.5,0.128067016601562,-0.831436157226562,0.271987915039062,-0.0919794587808297,0.162265073637983,-0.115445370093845
1493001973.4,40.4524658596573,-79.949684137991,6.19999980926514,0.204635620117188,-1.01087951660156,0.23583984375,-0.0754936926849122,0.219610122442332,-0.0439882306731658
1493001973.6,40.4524658596573,-79.949684137991,6.19999980926514,0.221221923828125,-0.883392333984375,0.259353637695312,0.0113091135690215,0.121193270674563,0.0179286667745224
1493001973.8,40.4524658596573,-79.949684137991,6.19999980926514,0.138992309570312,-0.905059814453125,0.2667236328125,-0.0815270841344867,0.127106020926757,-0.0427450670763168
1493001974.0,40.4524658596573,-79.949684137991,6.19999980926514,0.023834228515625,-0.894027709960938,0.354507446289062,-0.0776242215569756,0.0685875833461187,0.0288822483380183
1493001974.2,40.4524658596573,-79.949684137991,6.19999980926514,0.006072998046875,-0.927642822265625,0.354446411132812,0.0117266972279459,0.0233274269363311,0.0117882162491267
1493001974.4,40.4524096122862,-79.9496591092359,6.73000001907349,0.121139526367188,-0.968475341796875,0.343978881835938,-0.0159805644371295,0.134119455657481,-0.0815419978365911
1493001974.6,40.4524096122862,-79.9496591092359,6.73000001907349,0.09307861328125,-0.921432495117188,0.374221801757812,0.0101272026772443,0.039288816613612,-0.0181233438502072
1493001974.8,40.4524096122862,-79.9496591092359,6.73000001907349,0.124038696289062,-0.889877319335938,0.325286865234375,-0.102266451123479,0.136808715726243,-0.0781675064193517
1493001975.0,40.4524096122862,-79.9496591092359,6.73000001907349,0.0685272216796875,-0.959060668945312,0.280899047851562,-0.0242850996643236,0.044835648532029,0.00923158160265067
1493001975.2,40.4524096122862,-79.9496591092359,6.73000001907349,0.158599853515625,-0.936904907226562,0.301834106445312,0.0708017354764106,-0.0249218614809615,0.0263783442811258
1493001975.4,40.4523504831281,-79.9496327981535,7.51999998092651,0.093902587890625,-0.922134399414062,0.305877685546875,0.0536509780563003,-0.0375622892789136,0.105135208249712
1493001975.6,40.4523504831281,-79.9496327981535,7.51999998092651,-0.0246734619140625,-0.953323364257812,0.3270263671875,-0.00533697482451879,0.0606721359541852,0.0339076333149979
1493001975.8,40.4523504831281,-79.9496327981535,7.51999998092651,0.115188598632812,-0.879119873046875,0.286102294921875,-0.15060735228227,0.0456527063544653,-0.0197854226865257
1493001976.0,40.4523504831281,-79.9496327981535,7.51999998092651,0.110122680664062,-1.0084228515625,0.246505737304688,-0.0277802322789436,0.00869229148190963,0.0114214989670228
1493001976.2,40.4523504831281,-79.9496327981535,7.51999998092651,-0.09771728515625,-0.793365478515625,0.377792358398438,-0.0245607368371468,-0.0562214611404448,-0.0256955097776295
1493001976.4,40.4522795723964,-79.9496012445484,8.25,-0.0763092041015625,-0.899093627929688,0.342864990234375,-0.0475842970930998,-0.108165885570222,0.149061919901697
1493001976.6,40.4522795723964,-79.9496012445484,8.25,-0.0504913330078125,-0.882064819335938,0.27081298828125,-0.00848057017524833,-0.0222853320017831,-0.014956312681885
1493001976.8,40.4522795723964,-79.9496012445484,8.25,0.0281219482421875,-1.02330017089844,0.2449951171875,-0.107839648336688,0.0964354599167503,-0.00455160861905443
1493001977.0,40.4522795723964,-79.9496012445484,8.25,-0.09283447265625,-0.837020874023438,0.274856567382812,-0.0930391305785722,-0.0419426566398759,0.00555295718892422
1493001977.2,40.4522795723964,-79.9496012445484,8.25,0.0172576904296875,-0.99261474609375,0.296661376953125,-0.00691622935093578,-0.0520632014143951,0.0874930976084822
1493001977.4,40.452208729154,-79.9495697209744,8.90999984741211,-0.0368194580078125,-1.04304504394531,0.249176025390625,-0.00237314284736961,-0.0148750862686376,0.00961001679355093
1493001977.6,40.452208729154,-79.9495697209744,8.90999984741211,-0.0295562744140625,-1.07029724121094,0.245285034179688,0.056229184307606,0.221923610481284,-0.173789903255301
1493001977.8,40.452208729154,-79.9495697209744,8.90999984741211,0.0874481201171875,-0.9619140625,0.238494873046875,-0.070210780030522,0.194032324384884,-0.1323638998669
1493001978.0,40.452208729154,-79.9495697209744,8.90999984741211,0.243850708007812,-0.958160400390625,0.197662353515625,0.0492908507196226,0.220911342950945,-0.134408408635754
1493001978.2,40.452208729154,-79.9495697209744,8.90999984741211,0.1873779296875,-0.782485961914062,0.228759765625,-0.0412528979175454,0.0598385665329904,0.0122177841329565
1493001978.4,40.4521327436967,-79.9495359092359,9.05000019073486,-0.081298828125,-0.923492431640625,0.1912841796875,-0.00388661729486164,-0.0531572279901996,0.0214216688602704
1493001978.6,40.4521327436967,-79.9495359092359,9.05000019073486,0.0471343994140625,-0.899703979492188,0.31048583984375,-0.0799502264530508,-0.0303419269314908,-0.0881698068414714
1493001978.8,40.4521327436967,-79.9495359092359,9.05000019073486,0.139816284179688,-0.8983154296875,0.187789916992188,-0.15285426129397,0.112663964651366,-0.129801406266026
1493001979.0,40.4521327436967,-79.9495359092359,9.05000019073486,0.0613555908203125,-0.857452392578125,0.227691650390625,0.0330785912676562,0.0327622077301548,0.0130486903930612
1493001979.2,40.452057433034,-79.9495023977652,8.84000015258789,0.163375854492188,-0.960403442382812,0.244293212890625,-0.0950495508854731,-0.0813044438673561,-0.102053664552381
1493001979.4,40.452057433034,-79.9495023977652,8.84000015258789,0.102096557617188,-0.926559448242188,0.294662475585938,-0.130728718957592,0.211444870540149,-0.136227081344169
1493001979.6,40.452057433034,-79.9495023977652,8.84000015258789,0.392898559570312,-0.83984375,0.461532592773438,-0.0671145889471959,0.346125986871527,-0.119930133369538
1493001979.8,40.452057433034,-79.9495023977652,8.84000015258789,-0.491256713867188,-0.731796264648438,0.302719116210938,0.0540331416727267,0.197470997984394,-0.182278995546037
1493001980.0,40.452057433034,-79.9495023977652,8.84000015258789,-0.212799072265625,-0.94219970703125,0.255966186523438,-0.0188631700010312,-0.314731844993346,0.0390027931125375
1493001980.2,40.452057433034,-79.9495023977652,8.84000015258789,0.02813720703125,-1.10923767089844,0.139434814453125,-0.199378886589327,0.021474932082072,-0.203611182193681
1493001980.4,40.4519856825317,-79.949470470482,8.72000026702881,0.06414794921875,-0.759719848632812,0.306472778320312,0.0176410453767939,-0.113937221968533,-0.0283131308130684
1493001980.6,40.4519856825317,-79.949470470482,8.72000026702881,0.553756713867188,-0.80487060546875,0.271987915039062,-0.0817124401463562,0.2143170897758,-0.136798862030209
1493001980.8,40.4519856825317,-79.949470470482,8.72000026702881,0.246185302734375,-0.961868286132812,0.307846069335938,0.148252052614204,-0.295580787278478,0.210192385879485
1493001981.0,40.4519856825317,-79.949470470482,8.72000026702881,0.108428955078125,-0.912399291992188,0.305938720703125,0.0666224367777492,-0.191876761798574,0.162175591425356
1493001981.2,40.4519108899932,-79.9494371895642,8.8100004196167,-0.0381622314453125,-1.17140197753906,0.284164428710938,-0.100356698305783,0.136798862030209,-0.0621547177330323
1493001981.4,40.4519108899932,-79.9494371895642,8.8100004196167,-0.032470703125,-0.919754028320312,0.19451904296875,-0.0140513705434761,0.0788034692876627,-0.0195390802856934
1493001981.6,40.4519108899932,-79.9494371895642,8.8100004196167,0.447769165039062,-1.19721984863281,0.072174072265625,-0.285897799871058,0.1082095614121,-0.137549340825394
1493001981.8,40.4519108899932,-79.9494371895642,8.8100004196167,-0.0188751220703125,-0.967697143554688,0.484176635742188,0.0541340754780407,-0.180084550807812,0.224923927765367
1493001982.0,40.4519108899932,-79.9494371895642,8.8100004196167,0.0735321044921875,-1.01388549804688,0.27587890625,-0.0257839267258202,0.00655324049435798,0.0199771702850114
1493001982.2,40.4519108899932,-79.9494371895642,8.8100004196167,0.119781494140625,-0.990921020507812,0.225128173828125,0.0189787511923407,0.0179635541848025,0.0236046620058083
1493001982.4,40.4518320943661,-79.9494021273664,9.1899995803833,-0.030731201171875,-0.909103393554688,0.256744384765625,-0.0268790185660607,-0.15617762001828,0.0886236094912209
1493001982.6,40.4518320943661,-79.9494021273664,9.1899995803833,-0.103103637695312,-0.969589233398438,0.266815185546875,0.00627866858597081,-0.0744939420116965,0.045037516142657
1493001982.8,40.4518320943661,-79.9494021273664,9.1899995803833,-0.0558929443359375,-0.925811767578125,0.2840576171875,0.0104933873271302,0.0158782990512704,-0.0575090995274981
1493001983.0,40.4518320943661,-79.9494021273664,9.1899995803833,0.142135620117188,-0.975677490234375,0.3001708984375,-0.0349593156294702,0.0927520418130617,-0.117880830910722
1493001983.2,40.4518320943661,-79.9494021273664,9.1899995803833,0.186935424804688,-0.94952392578125,0.232345581054688,-0.0641129400825676,-0.00277181806255447,0.0142777392361328
1493001983.4,40.4517514684563,-79.9493662507359,9.19999980926514,0.0631866455078125,-0.89862060546875,0.233154296875,-0.0938215673068375,0.0580574443959454,0.0394057293854665
1493001983.6,40.4517514684563,-79.9493662507359,9.19999980926514,0.041595458984375,-0.96905517578125,0.276748657226562,0.0970085721833353,-0.0506189691552451,0.0427061849244017
1493001983.8,40.4517514684563,-79.9493662507359,9.19999980926514,-0.0795440673828125,-0.840728759765625,0.284896850585938,0.00372549604891185,0.00635243814816601,-0.0351633137689702
1493001984.0,40.4517514684563,-79.9493662507359,9.19999980926514,0.14459228515625,-0.9949951171875,0.13348388671875,-0.0196866194100837,0.0256531655162973,-0.0258568973396883
1493001984.2,40.4516665758557,-79.9493284755286,9.48999977111816,0.154098510742188,-0.988479614257812,0.317535400390625,0.0967814045423516,0.0355414826437615,0.0286207259189726
1493001984.4,40.4516665758557,-79.9493284755286,9.48999977111816,-0.006256103515625,-0.95892333984375,0.251861572265625,-0.00911706567577726,0.0255977717656236,0.0574161552054543
1493001984.6,40.4516665758557,-79.9493284755286,9.48999977111816,0.0360107421875,-0.97528076171875,0.199859619140625,0.00261708840322087,-0.0723370478448413,0.0801795246229066
1493001984.8,40.4516665758557,-79.9493284755286,9.48999977111816,-0.066009521484375,-0.929901123046875,0.191452026367188,0.0646032280392512,-0.0887000422145061,0.0552672505218694
1493001985.0,40.4516665758557,-79.9493284755286,9.48999977111816,-0.164840698242188,-1.05293273925781,0.282119750976562,0.0512757046800586,-0.0630878893789961,0.0316079937137144
1493001985.2,40.4516665758557,-79.9493284755286,9.48999977111816,0.0323028564453125,-0.912155151367188,0.275161743164062,0.0236645831303351,-0.0767387204945242,0.0185659612233784
1493001985.4,40.4515945817733,-79.9492964398579,9.51000022888184,-0.114105224609375,-0.946502685546875,0.261459350585938,-0.075385302028546,-0.081400850298817,0.0943312963394787
1493001985.6,40.4515945817733,-79.9492964398579,9.51000022888184,0.224014282226562,-0.97296142578125,0.174514770507812,-0.01952656342857,0.154334179911727,-0.199980228363467
1493001985.8,40.4515945817733,-79.9492964398579,9.51000022888184,0.258514404296875,-0.869583129882812,0.137908935546875,-0.154075054337662,0.223285284746641,-0.213264075880782
1493001986.0,40.4515945817733,-79.9492964398579,9.51000022888184,0.0271148681640625,-0.8829345703125,0.241287231445312,0.0188655668460123,-0.0107573065911571,0.0162141236647294
1493001986.2,40.4515945817733,-79.9492964398579,9.51000022888184,0.0467071533203125,-0.873214721679688,0.212188720703125,-0.0821774280726841,-0.0505262911493103,-0.0145717522204776
1493001986.4,40.451504750799,-79.9492564671905,9.38000011444092,0.127044677734375,-0.975875854492188,0.213134765625,-0.0195918108752769,-0.100917293715245,0.053370547193515
1493001986.6,40.451504750799,-79.9492564671905,9.38000011444092,-0.1099853515625,-0.860397338867188,0.258895874023438,0.0239000065706981,-0.00762010282704372,-0.115952968597614
1493001986.8,40.451504750799,-79.9492564671905,9.38000011444092,-0.0939788818359375,-1.11981201171875,0.212188720703125,0.28024657203791,-0.372995950689882,0.404728314026503
1493001987.0,40.451504750799,-79.9492564671905,9.38000011444092,0.711471557617188,-0.834884643554688,0.985122680664062,0.0658876706329964,0.319730598359425,-0.125963791135222
1493001987.2,40.4514225215019,-79.9492191582677,9.71000003814697,0.524429321289062,-1.22273254394531,0.176223754882812,0.332635211737513,0.412668528816574,-0.11281043851132
1493001987.4,40.4514225215019,-79.9492191582677,9.71000003814697,0.135452270507812,-0.850982666015625,0.248092651367188,-0.0485174687390636,0.25025618237031,-0.207988087445226
1493001987.6,40.4514225215019,-79.9492191582677,9.71000003814697,0.187973022460938,-0.973876953125,0.408798217773438,-0.0135088846294269,-0.00838922374985861,0.203530222096543
1493001987.8,40.4514225215019,-79.9492191582677,9.71000003814697,-0.125930786132812,-1.02154541015625,0.511550903320312,0.206434132949165,0.116742063228604,0.0753810409708019
1493001988.0,40.4514225215019,-79.9492191582677,9.71000003814697,0.312759399414062,-0.885589599609375,0.307281494140625,-0.111806426780361,0.181550354671792,-0.0570563621421846
1493001988.2,40.4513373815769,-79.9491800789565,10.1599998474121,-0.465530395507812,-0.99676513671875,0.138961791992188,0.0491158810360044,-0.493830227249502,0.341899550221572
1493001988.4,40.4513373815769,-79.9491800789565,10.1599998474121,-0.275588989257812,-1.06436157226562,0.372955322265625,0.193777193552455,-0.240555618099696,0.259562332483483
1493001988.6,40.4513373815769,-79.9491800789565,10.1599998474121,-0.0734710693359375,-0.925064086914062,0.275238037109375,0.00358967483331781,-0.011729893021254,-0.0351180400304389
1493001988.8,40.4513373815769,-79.9491800789565,10.1599998474121,0.025146484375,-0.955169677734375,0.198333740234375,0.0621259555932595,0.00810213498434807,-0.0217753366530329
1493001989.0,40.4513373815769,-79.9491800789565,10.1599998474121,0.014129638671875,-0.807479858398438,0.284622192382812,0.00137046269695478,-0.0659563801891204,0.0193760948269805
1493001989.2,40.4513373815769,-79.9491800789565,10.1599998474121,0.033843994140625,-1.00680541992188,0.22998046875,-0.0452907827623236,-0.00822171091729262,-0.0409586186170917
1493001989.4,40.4512463826972,-79.9491383103792,10.7299995422363,0.141494750976562,-0.980361938476562,0.2342529296875,-0.0482580768488898,0.101355117398454,-0.0753906283507261
1493001989.6,40.4512463826972,-79.9491383103792,10.7299995422363,0.0084228515625,-1.00129699707031,0.245819091796875,-0.0893365377150351,0.159062888743272,-0.0770263418922528
1493001989.8,40.4512463826972,-79.9491383103792,10.7299995422363,0.030853271484375,-1.34222412109375,0.09881591796875,-0.0599400329705224,-0.0995550868176691,0.277925094515688
1493001990.0,40.4512463826972,-79.9491383103792,10.7299995422363,0.125579833984375,-0.75067138671875,0.420318603515625,-0.220392026538379,-0.341039615505585,0.275839306749938
1493001990.2,40.4511514751893,-79.9490947477377,10.6300001144409,0.069732666015625,-1.23947143554688,0.16583251953125,0.0395524695615298,-0.0162535384488626,-0.252245830020708
1493001990.4,40.4511514751893,-79.9490947477377,10.6300001144409,-0.31951904296875,-1.00587463378906,0.102996826171875,0.24493305598346,-0.121791682971504,0.0113517241464628
1493001990.6,40.4511514751893,-79.9490947477377,10.6300001144409,-0.12457275390625,-1.20556640625,0.272491455078125,-0.0144503120747699,-0.201985854980406,0.166702698962382
1493001990.8,40.4511514751893,-79.9490947477377,10.6300001144409,-0.046295166015625,-0.975662231445312,0.267486572265625,-0.0161795025705584,-0.245583133605548,0.191320427446856
1493001991.0,40.4511514751893,-79.9490947477377,10.6300001144409,-0.0619964599609375,-1.02490234375,0.224472045898438,0.0483712611952182,0.230489934443633,-0.139773612967828
1493001991.2,40.4511514751893,-79.9490947477377,10.6300001144409,0.101882934570312,-0.895843505859375,0.278854370117188,-0.000325970917425699,0.124434604037298,-0.141064713464298
1493001991.4,40.451071514783,-79.9490580458308,10.1700000762939,-0.121658325195312,-0.780532836914062,0.27825927734375,-0.185932319929408,-0.171108100037591,0.0305243534661612
1493001991.6,40.451071514783,-79.9490580458308,10.1700000762939,-0.04400634765625,-0.914993286132812,0.406753540039062,0.233562956025475,0.16441877201153,-0.0129600071287616
1493001991.8,40.451071514783,-79.9490580458308,10.1700000762939,0.0467529296875,-0.595306396484375,0.0674896240234375,0.0150716275570854,0.219007981719865,-0.125157918589364
1493001992.0,40.451071514783,-79.9490580458308,10.1700000762939,0.31097412109375,-0.685714721679688,0.3060302734375,-0.0398318351598791,-0.112499913928217,-0.0299714812238608
1493001992.2,40.4509787889111,-79.9490154845623,10.5200004577637,0.504013061523438,-0.602325439453125,-0.0864410400390625,0.233261486190078,-0.238685812698352,0.254630690776874
1493001992.8,40.4509787889111,-79.9490154845623,10.5200004577637,0.3175048828125,-0.855789184570312,0.145294189453125,-0.130444293353171,0.123155754081842,-0.127466612938354
1493001993.0,40.4509787889111,-79.9490154845623,10.5200004577637,0.551422119140625,-0.794036865234375,0.085174560546875,-0.228350883456081,0.39501416763433,-0.29443376379698
1493001993.2,40.4508897822843,-79.9489746304312,10.710000038147,0.542587280273438,-0.850433349609375,0.4407958984375,-0.0849244787371008,-0.284452768663581,0.445542056680294
1493001993.4,40.4508897822843,-79.9489746304312,10.710000038147,0.214981079101562,-1.01022338867188,0.407272338867188,0.00398036056523243,-0.271257338094457,0.10522975046841
1493001993.6,40.4508897822843,-79.9489746304312,10.710000038147,0.424118041992188,-1.29093933105469,-0.190292358398438,0.172341942570625,0.356247064278265,-0.258244866692221
1493001993.8,40.4508897822843,-79.9489746304312,10.710000038147,0.378189086914062,-1.07002258300781,0.7117919921875,-0.113078352516982,0.0304873355270091,-0.201684651461118
1493001994.0,40.4508897822843,-79.9489746304312,10.710000038147,0.282394409179688,-0.9136962890625,0.117095947265625,-0.128425084614673,-0.108742193630115,-0.0905962129106425
1493001994.2,40.4507963875408,-79.94893176215,10.9499998092651,-0.30462646484375,-0.990341186523438,0.173294067382812,-0.160364641884102,-0.327580265672434,0.409695908407828
1493001994.4,40.4507963875408,-79.94893176215,10.9499998092651,-0.513336181640625,-1.07171630859375,0.119522094726562,-0.181259537480755,0.357484102604606,-0.254404854716435
1493001994.6,40.4507963875408,-79.94893176215,10.9499998092651,-0.31805419921875,-0.783126831054688,0.635986328125,0.013208746374575,0.52848674146303,-0.596176040573465
1493001994.8,40.4507963875408,-79.94893176215,10.9499998092651,-0.220474243164062,-1.0450439453125,0.0556640625,0.142062599924751,-0.16045119461953,0.191654654163661
1493001995.0,40.4507963875408,-79.94893176215,10.9499998092651,0.0879058837890625,-0.930770874023438,0.098968505859375,-0.173628249377133,-0.177565466732706,0.0615871981047364
1493001995.2,40.4507963875408,-79.94893176215,10.9499998092651,-0.048248291015625,-0.977767944335938,0.0558319091796875,-0.101798267403843,0.0612819998438133,-0.0758353762527694
1493001995.4,40.4507058675316,-79.9488902133747,10.4700002670288,0.051788330078125,-0.952407836914062,-0.11212158203125,0.0506956681946394,-0.0492602243670867,0.0038448056657474
1493001995.6,40.4507058675316,-79.9488902133747,10.4700002670288,0.079803466796875,-1.01235961914062,-0.0415191650390625,-0.030920631836365,0.0172101459124191,-0.0654000458374029
1493001995.8,40.4507058675316,-79.9488902133747,10.4700002670288,0.0723114013671875,-0.96038818359375,0.0455322265625,-0.0705961394402565,0.135542116311801,-0.058648133525725
1493001996.0,40.4507058675316,-79.9488902133747,10.4700002670288,0.09161376953125,-0.999862670898438,-0.087860107421875,0.0320170552571506,-0.0044767737924232,-0.0849577682507268
1493001996.2,40.4507058675316,-79.9488902133747,10.4700002670288,0.075286865234375,-1.02326965332031,-0.00579833984375,0.0616007802262958,-0.0865551322725563,0.0424364067059766
1493001996.4,40.4506337668932,-79.9488571191092,7.94000005722046,-0.0018310546875,-0.99444580078125,0.025360107421875,0.00523657365142281,-0.0500197579099773,0.0566920417050618
1493001996.6,40.4506337668932,-79.9488571191092,7.94000005722046,-0.019622802734375,-0.957122802734375,-0.0311279296875,-0.0581168328882542,0.0301595003968203,-0.0166660621017159
1493001996.8,40.4506337668932,-79.9488571191092,7.94000005722046,0.0496368408203125,-0.923721313476562,-0.062652587890625,-0.0235138482126366,-0.0774918624507986,0.04154158457971
1493001997.0,40.4506337668932,-79.9488571191092,7.94000005722046,-0.0437469482421875,-1.03071594238281,0.0386505126953125,-0.0263426579225188,0.00761477650486357,-0.0162825669047445
1493001997.2,40.4505766771605,-79.9488309148645,5.6399998664856,0.111541748046875,-1.00955200195312,-0.038421630859375,0.00147086387005076,-0.00639717925447934,-0.0330210669881105
1493001997.4,40.4505766771605,-79.9488309148645,5.6399998664856,0.06439208984375,-1.00173950195312,-0.065582275390625,-0.00224930585668092,-0.00423921982318813,0.00638519502957398
1493001997.6,40.4505766771605,-79.9488309148645,5.6399998664856,0.05426025390625,-0.975784301757812,0.01055908203125,-0.0165568724970226,-0.0583951332221675,0.0106433232965017
1493001997.8,40.4505766771605,-79.9488309148645,5.6399998664856,0.0528564453125,-1.03045654296875,-0.0215606689453125,-0.0307659021770314,-0.0838299195290782,0.023358053288867
1493001998.0,40.4505766771605,-79.9488309148645,5.6399998664856,0.0320281982421875,-0.98004150390625,0.053802490234375,-0.0519356359981803,0.0194711696778963,-0.0848128922874265
1493001998.2,40.4505766771605,-79.9488309148645,5.6399998664856,0.123382568359375,-1.0379638671875,0.0430145263671875,-0.0177275981122215,0.0692586999408187,0.0103019060447535
1493001998.4,40.4505389099303,-79.9488135796678,3.24000000953674,-0.0253448486328125,-1.00790405273438,0.059783935546875,-0.0237010684372692,-0.00941693761452019,0.0147086387005076
1493001998.6,40.4505389099303,-79.9488135796678,3.24000000953674,0.08245849609375,-1.03030395507812,-0.0177764892578125,-0.0367649388485439,0.0278923513608359,-0.0217726734919428
1493001998.8,40.4505389099303,-79.9488135796678,3.24000000953674,0.084930419921875,-1.00479125976562,0.0286865234375,0.020736703827902,0.00944596607040205,0.0460351362870007
1493001999.0,40.4505389099303,-79.9488135796678,3.24000000953674,-0.0070648193359375,-0.999267578125,0.0348358154296875,0.022954051751502,-0.0139733399235368,0.0269264228334642
1493001999.2,40.4505389099303,-79.9488135796678,3.24000000953674,0.0711212158203125,-1.0145263671875,0.0139312744140625,-0.0219505726527601,-0.0019896476503982,-0.0311398099940785
1493001999.4,40.4505198356982,-79.9488048245761,1.21000003814697,0.071624755859375,-0.985580444335938,0.089599609375,0.000566720679968862,-0.0234017291307443,0.0235229029603429
1493001999.6,40.4505198356982,-79.9488048245761,1.21000003814697,0.0290069580078125,-0.985519409179688,0.125885009765625,-0.00761557545319059,-0.0137781302156339,0.00422244190832063
1493001999.8,40.4505198356982,-79.9488048245761,1.21000003814697,0.068389892578125,-0.989837646484375,0.114395141601562,-0.0169544824477715,0.0011731224601799,-0.00550768345039287
1493002000.0,40.4505198356982,-79.9488048245761,1.21000003814697,0.075439453125,-0.965118408203125,0.252334594726562,-0.00435213785340749,-0.00848110280746634,0.00210975621556077
1493002000.2,40.4505198356982,-79.9488048245761,1.21000003814697,0.0761260986328125,-0.92449951171875,0.232864379882812,-0.00514655880657813,0.00215902469572724,-0.0117866183524727
1493002000.4,40.4505139220157,-79.9488021101899,0.219999998807907,0.085662841796875,-0.965530395507812,0.251754760742188,-0.0149102399950266,-0.00628585912091403,-0.00333507663310623
1493002000.6,40.4505139220157,-79.9488021101899,0.219999998807907,0.069915771484375,-0.9482421875,0.219512939453125,-0.016032229762277,-0.00415027024277949,0.00197899500603788
1493002000.8,40.4505139220157,-79.9488021101899,0.219999998807907,0.0798492431640625,-0.9423828125,0.238449096679688,-0.0181244091146433,-0.00307328789795144,-0.000177632844708285
1493002001.0,40.4505139220157,-79.9488021101899,0.219999998807907,0.0718841552734375,-0.953781127929688,0.23876953125,-0.0138441766106679,-0.00416518394488393,-0.00226342061045834
1493002001.2,40.4505139220157,-79.9488021101899,0.219999998807907,0.0776214599609375,-0.953231811523438,0.234878540039062,-0.0117453393555765,-0.00630609914519863,-0.00117019298298082
1493002001.4,40.4505140896549,-79.9488021871365,0.0,0.077392578125,-0.944686889648438,0.23419189453125,-0.0127940921928497,-0.00417184184760913,-0.0011864382656303
1493002001.6,40.4505140896549,-79.9488021871365,0.0,0.073944091796875,-0.951126098632812,0.228683471679688,-0.0138588239966633,-0.00416491762877492,-0.00119735722609963
1493002001.8,40.4505140896549,-79.9488021871365,0.0,0.0777130126953125,-0.956802368164062,0.241500854492188,-0.017074324696825,-0.00307994580067664,0.000899349500119759
1493002002.0,40.4505140896549,-79.9488021871365,0.0,0.07794189453125,-0.95379638671875,0.239212036132812,-0.0127861027095794,-0.00310817530823148,-0.00118910142672038
1493002002.2,40.4505140896549,-79.9488021871365,0.0,0.0774078369140625,-0.94635009765625,0.229598999023438,-0.0128327080286558,-0.00736257514963306,-0.000112385398001344
1493002002.4,40.4505148215464,-79.9488025230754,0.25,0.073822021484375,-0.9505615234375,0.233657836914062,-0.014991466408274,-0.00734819407974663,0.00199790344977744
1493002002.6,40.4505148215464,-79.9488025230754,0.25,0.0785980224609375,-0.954742431640625,0.238174438476562,-0.0139040977351947,-0.0062917180753122,0.000940095864797971
1493002002.8,40.4505148215464,-79.9488025230754,0.25,0.072540283203125,-0.949295043945312,0.234710693359375,-0.0149395347670175,-0.00628532648869601,-0.00120294986438879
1493002003.0,40.4505148215464,-79.9488025230754,0.25,0.075927734375,-0.947250366210938,0.234344482421875,-0.0117666446442971,-0.00524189997360296,0.000959270624646542
1493002003.2,40.4505148215464,-79.9488025230754,0.25,0.0750885009765625,-0.953033447265625,0.23486328125,-0.0138668134799336,-0.00522858416815257,-0.00119469406500955
1493002003.4,40.4505165036159,-79.948803295147,0.0,0.076507568359375,-0.95281982421875,0.23492431640625,-0.0117586551610269,-0.00417823343422532,0.000956607463556462
1493002003.6,40.4505165036159,-79.948803295147,0.0,0.0746002197265625,-0.949798583984375,0.236572265625,-0.014923555800477,-0.00415799340994071,-0.00120827618656895
1493002003.8,40.4505165036159,-79.948803295147,0.0,0.078369140625,-0.949172973632812,0.237625122070312,-0.0149674979584633,-0.00415719446161369,0.00198991396650721
1493002004.0,40.4505165036159,-79.948803295147,0.0,0.0717010498046875,-0.95184326171875,0.237869262695312,-0.0138961082519245,-0.00522805153593455,0.000937432703707892
1493002004.2,40.4505165036159,-79.948803295147,0.0,0.073577880859375,-0.951507568359375,0.232696533203125,-0.0128020816761199,-0.00523550838698677,-0.00118377510454022
1493002004.4,40.4505161630187,-79.9488031388126,0.0,0.079437255859375,-0.947250366210938,0.23822021484375,-0.0149461926697427,-0.00522139363320935,-0.000139549641120152
1493002004.6,40.4505161630187,-79.9488031388126,0.0,0.076446533203125,-0.953781127929688,0.238006591796875,-0.014923555800477,-0.00415799340994071,-0.00120827618656895
1493002004.8,40.4505161630187,-79.9488031388126,0.0,0.0765380859375,-0.951889038085938,0.23480224609375,-0.013881460865929,-0.00522831785204356,-0.000128630680650827
1493002005.0,40.4505161630187,-79.9488031388126,0.0,0.0742645263671875,-0.950363159179688,0.237686157226562,-0.0138441766106679,-0.00416518394488393,-0.00226342061045834
1493002005.2,40.4505161032649,-79.9488031113855,0.0,0.077911376953125,-0.953567504882812,0.23675537109375,-0.0138881187686542,-0.0041643849965569,0.000934769542617813
1493002005.4,40.4505161032649,-79.9488031113855,0.0,0.07281494140625,-0.951614379882812,0.236923217773438,-0.0160029349902861,-0.0041508028749975,-0.000153131762679556
1493002005.6,40.4505161032649,-79.9488031113855,0.0,0.079620361328125,-0.9503173828125,0.23602294921875,-0.0149382031864725,-0.00415772709383171,-0.000142212802210231
1493002005.8,40.4505161032649,-79.9488031113855,0.0,0.0743560791015625,-0.953506469726562,0.234848022460938,-0.0149395347670175,-0.00628532648869601,-0.00120294986438879
1493002006.0,40.4505161032649,-79.9488031113855,0.0,0.078338623046875,-0.955276489257812,0.235107421875,-0.0117519972583017,-0.00524216628971197,-0.000106792759712177
1493002006.2,40.4505161032649,-79.9488031113855,0.0,0.074798583984375,-0.95208740234375,0.236251831054688,-0.013881460865929,-0.00522831785204356,-0.000128630680650827
1493002006.4,40.4505157749114,-79.9488029606709,0.0,0.076812744140625,-0.9508056640625,0.23614501953125,-0.0127940921928497,-0.00417184184760913,-0.0011864382656303
1493002006.6,40.4505157749114,-79.9488029606709,0.0,0.0757598876953125,-0.94891357421875,0.23663330078125,-0.0149382031864725,-0.00415772709383171,-0.000142212802210231
1493002006.8,40.4505157749114,-79.9488029606709,0.0,0.07550048828125,-0.950027465820312,0.23431396484375,-0.0170596773108296,-0.00308021211678565,-0.00016671388423896
1493002007.0,40.4505157749114,-79.9488029606709,0.0,0.077667236328125,-0.952972412109375,0.235916137695312,-0.0127940921928497,-0.00417184184760913,-0.0011864382656303
1493002007.2,40.4505157749114,-79.9488029606709,0.0,0.07550048828125,-0.950714111328125,0.238845825195312,-0.0127940921928497,-0.00417184184760913,-0.0011864382656303
1493002007.4,40.4505157151793,-79.9488029332538,0.0,0.07855224609375,-0.949478149414062,0.235885620117188,-0.0138974398324695,-0.00735565093079886,-0.000123304358470669
1493002007.6,40.4505157151793,-79.9488029332538,0.0,0.073211669921875,-0.951461791992188,0.236907958984375,-0.0128313764481108,-0.00523497575476876,0.000948351664177217
1493002007.8,40.4505157151793,-79.9488029332538,0.0,0.0794525146484375,-0.950729370117188,0.235855102539062,-0.0149461926697427,-0.00522139363320935,-0.000139549641120152
1493002008.0,40.4505157151793,-79.9488029332538,0.0,0.0739288330078125,-0.949310302734375,0.238388061523438,-0.0139040977351947,-0.0062917180753122,0.000940095864797971
1493002008.2,40.4505157151793,-79.9488029332538,0.0,0.0773468017578125,-0.952102661132812,0.235275268554688,-0.0138668134799336,-0.00522858416815257,-0.00119469406500955
1493002008.4,40.4505156551054,-79.9488029056798,0.0,0.074676513671875,-0.952194213867188,0.238037109375,-0.0128153974815703,-0.00310764267601346,0.000943025341997058
1493002008.6,40.4505156551054,-79.9488029056798,0.0,0.0768890380859375,-0.951400756835938,0.237625122070312,-0.0149461926697427,-0.00522139363320935,-0.000139549641120152
1493002008.8,40.4505156551054,-79.9488029056798,0.0,0.074615478515625,-0.951751708984375,0.235595703125,-0.0128313764481108,-0.00523497575476876,0.000948351664177217
1493002009.0,40.4505156551054,-79.9488029056798,0.0,0.07586669921875,-0.94940185546875,0.238143920898438,-0.0149315452837473,-0.00522165994931836,-0.00120561302547887
1493002009.2,40.4505155950234,-79.9488028781022,0.0,0.0759429931640625,-0.952011108398438,0.238906860351562,-0.0149315452837473,-0.00522165994931836,-0.00120561302547887
1493002009.4,40.4505155950234,-79.9488028781022,0.0,0.077880859375,-0.952713012695312,0.237274169921875,-0.0138734713826588,-0.00416465131266591,-0.000131293841740906
1493002009.6,40.4505155950234,-79.9488028781022,0.0,0.0753173828125,-0.9490966796875,0.235488891601562,-0.011729360389036,-0.00417876606644333,-0.00117551930516098
1493002009.8,40.4505155950234,-79.9488028781022,0.0,0.076690673828125,-0.949920654296875,0.232833862304688,-0.0149528505724679,-0.0041574607777227,0.000923850582148488
1493002010.0,40.4505155950234,-79.9488028781022,0.0,0.0762176513671875,-0.952850341796875,0.233734130859375,-0.0117440077750314,-0.00417849975033432,-0.000109455920802257
1493002010.2,40.4505155348158,-79.9488028504668,0.0,0.0746612548828125,-0.950164794921875,0.2388916015625,-0.011730691969581,-0.00630636546130764,-0.00223625636733954
1493002010.4,40.4505155348158,-79.9488028504668,0.0,0.078338623046875,-0.952407836914062,0.23626708984375,-0.013881460865929,-0.00522831785204356,-0.000128630680650827
1493002010.6,40.4505155348158,-79.9488028504668,0.0,0.0750579833984375,-0.950775146484375,0.237701416015625,-0.0138748029632038,-0.00629225070753022,-0.00119203090391947
1493002010.8,40.4505155348158,-79.9488028504668,0.0,0.0768890380859375,-0.95086669921875,0.2373046875,-0.0170610088913746,-0.00520781151164995,-0.00122745094641752
1493002011.0,40.4505155348158,-79.9488028504668,0.0,0.073394775390625,-0.954681396484375,0.236251831054688,-0.0149688295390084,-0.00628479385647799,0.000929176904328646
1493002011.2,40.4505155348158,-79.9488028504668,0.0,0.076873779296875,-0.95184326171875,0.239700317382812,-0.0138961082519245,-0.00522805153593455,0.000937432703707892
1493002011.4,40.4505154744958,-79.9488028227799,0.0,0.0748291015625,-0.950576782226562,0.238800048828125,-0.0138668134799336,-0.00522858416815257,-0.00119469406500955
1493002011.6,40.4505154744958,-79.9488028227799,0.0,0.0750885009765625,-0.952255249023438,0.238067626953125,-0.0149315452837473,-0.00522165994931836,-0.00120561302547887
1493002011.8,40.4505154744958,-79.9488028227799,0.0,0.074798583984375,-0.95257568359375,0.241226196289062,-0.0138734713826588,-0.00416465131266591,-0.000131293841740906
1493002012.0,40.4505154744958,-79.9488028227799,0.0,0.076751708984375,-0.9493408203125,0.240692138671875,-0.0149315452837473,-0.00522165994931836,-0.00120561302547887
1493002012.2,40.4505154744958,-79.9488028227799,0.0,0.0754241943359375,-0.951828002929688,0.239639282226562,-0.016032229762277,-0.00415027024277949,0.00197899500603788
1493002012.4,40.4505154143398,-79.9488027951682,0.0,0.0766448974609375,-0.951461791992188,0.239486694335938,-0.0138734713826588,-0.00416465131266591,-0.000131293841740906
1493002012.6,40.4505154143398,-79.9488027951682,0.0,0.07275390625,-0.952743530273438,0.24041748046875,-0.0138588239966633,-0.00416491762877492,-0.00119735722609963
1493002012.8,40.4505154143398,-79.9488027951682,0.0,0.078582763671875,-0.951034545898438,0.24005126953125,-0.0127861027095794,-0.00310817530823148,-0.00118910142672038
1493002013.0,40.4505154143398,-79.9488027951682,0.0,0.07470703125,-0.950637817382812,0.238265991210938,-0.0138961082519245,-0.00522805153593455,0.000937432703707892
1493002013.2,40.4505154143398,-79.9488027951682,0.0,0.0772552490234375,-0.951126098632812,0.238204956054688,-0.0138588239966633,-0.00416491762877492,-0.00119735722609963
1493002013.4,40.450515354082,-79.9488027675098,0.0,0.0753326416015625,-0.950042724609375,0.239044189453125,-0.0128233869648405,-0.00417130921539111,0.000945688503087137
1493002013.6,40.450515354082,-79.9488027675098,0.0,0.0782012939453125,-0.954238891601562,0.238357543945312,-0.0138881187686542,-0.0041643849965569,0.000934769542617813
1493002013.8,40.450515354082,-79.9488027675098,0.0,0.0767059326171875,-0.950942993164062,0.239547729492188,-0.0149382031864725,-0.00415772709383171,-0.000142212802210231
1493002014.0,40.450515354082,-79.9488027675098,0.0,0.0759124755859375,-0.951675415039062,0.239700317382812,-0.0127861027095794,-0.00310817530823148,-0.00118910142672038
1493002014.2,40.450515354082,-79.9488027675098,0.0,0.076019287109375,-0.949539184570312,0.238876342773438,-0.0138734713826588,-0.00416465131266591,-0.000131293841740906
1493002014.4,40.450516434994,-79.9488032636495,0.0,0.074371337890625,-0.947921752929688,0.242477416992188,-0.0107019128404834,-0.00524882419243717,0.000970189585115866
1493002014.6,40.450516434994,-79.9488032636495,0.0,0.074798583984375,-0.94830322265625,0.238296508789062,-0.0149461926697427,-0.00522139363320935,-0.000139549641120152
1493002014.8,40.450516434994,-79.9488032636495,0.0,0.07684326171875,-0.951156616210938,0.23779296875,-0.0149315452837473,-0.00522165994931836,-0.00120561302547887
1493002015.0,40.450516434994,-79.9488032636495,0.0,0.07684326171875,-0.951339721679688,0.237869262695312,-0.0149608400557381,-0.00522112731710035,0.000926513743238567
1493002015.2,40.450516434994,-79.9488032636495,0.0,0.0777435302734375,-0.951126098632812,0.234970092773438,-0.0128313764481108,-0.00523497575476876,0.000948351664177217
1493002015.4,40.4505161405058,-79.9488031284791,0.0,0.077056884765625,-0.948883056640625,0.239990234375,-0.0128020816761199,-0.00523550838698677,-0.00118377510454022
1493002015.6,40.4505161405058,-79.9488031284791,0.0,0.0770416259765625,-0.94964599609375,0.237030029296875,-0.0149608400557381,-0.00522112731710035,0.000926513743238567
1493002015.8,40.4505161405058,-79.9488031284791,0.0,0.0745086669921875,-0.949615478515625,0.238525390625,-0.0138961082519245,-0.00522805153593455,0.000937432703707892
1493002016.0,40.4505161405058,-79.9488031284791,0.0,0.0758819580078125,-0.949203491210938,0.236541748046875,-0.0128167290621153,-0.00523524207087777,-0.000117711720181502
1493002016.2,40.4505161405058,-79.9488031284791,0.0,0.07672119140625,-0.95111083984375,0.237899780273438,-0.013881460865929,-0.00522831785204356,-0.000128630680650827
1493002016.4,40.4505160802672,-79.9488031008296,0.0,0.0764923095703125,-0.949935913085938,0.237808227539062,-0.0117519972583017,-0.00524216628971197,-0.000106792759712177
1493002016.6,40.4505160802672,-79.9488031008296,0.0,0.0788726806640625,-0.950546264648438,0.239669799804688,-0.0138961082519245,-0.00522805153593455,0.000937432703707892
1493002016.8,40.4505160802672,-79.9488031008296,0.0,0.0756378173828125,-0.94903564453125,0.23980712890625,-0.0128313764481108,-0.00523497575476876,0.000948351664177217
1493002017.0,40.4505160802672,-79.9488031008296,0.0,0.074920654296875,-0.949020385742188,0.235702514648438,-0.0149528505724679,-0.0041574607777227,0.000923850582148488
1493002017.2,40.4505160802672,-79.9488031008296,0.0,0.0764617919921875,-0.952499389648438,0.236831665039062,-0.0149448610891977,-0.00309379423834505,0.000921187421058408
1493002017.4,40.4505160200905,-79.9488030732084,0.0,0.0782470703125,-0.94927978515625,0.23809814453125,-0.0138734713826588,-0.00416465131266591,-0.000131293841740906
1493002017.6,40.4505160200905,-79.9488030732084,0.0,0.0752105712890625,-0.95330810546875,0.230941772460938,-0.0127940921928497,-0.00417184184760913,-0.0011864382656303
1493002017.8,40.4505160200905,-79.9488030732084,0.0,0.0749053955078125,-0.949691772460938,0.233108520507812,-0.0127874342901245,-0.00523577470309578,-0.00224983848889894
1493002018.0,40.4505160200905,-79.9488030732084,0.0,0.0750274658203125,-0.951095581054688,0.237533569335938,-0.0149368716059274,-0.0020301276989674,0.000918524259968329
1493002018.2,40.4505160200905,-79.9488030732084,0.0,0.0771331787109375,-0.95257568359375,0.236618041992188,-0.0138654818993885,-0.00310098477328826,-0.000133957002830986
1493002018.4,40.4505157998061,-79.9488029720976,0.0,0.072357177734375,-0.947845458984375,0.236618041992188,-0.0138894503491993,-0.00629198439142121,-0.000125967519560748
1493002018.6,40.4505157998061,-79.9488029720976,0.0,0.0778961181640625,-0.950607299804688,0.23443603515625,-0.0117213709057658,-0.00311509952706569,-0.00117818246625105
1493002018.8,40.4505157998061,-79.9488029720976,0.0,0.0766448974609375,-0.953231811523438,0.238006591796875,-0.0117599867415719,-0.00630583282908962,-0.000104129598622098
1493002019.0,40.4505157998061,-79.9488029720976,0.0,0.0765380859375,-0.949844360351562,0.236465454101562,-0.0139107556379199,-0.00522778521982554,0.00200349608806661
1493002019.2,40.4505157998061,-79.9488029720976,0.0,0.077484130859375,-0.951171875,0.238677978515625,-0.0138894503491993,-0.00629198439142121,-0.000125967519560748
1493002019.4,40.4505157396216,-79.9488029444729,0.0,0.073883056640625,-0.949462890625,0.2344970703125,-0.0117440077750314,-0.00417849975033432,-0.000109455920802257
1493002019.6,40.4505157396216,-79.9488029444729,0.0,0.07818603515625,-0.95111083984375,0.237594604492188,-0.0149461926697427,-0.00522139363320935,-0.000139549641120152
1493002019.8,40.4505157396216,-79.9488029444729,0.0,0.07696533203125,-0.9510498046875,0.23455810546875,-0.0138748029632038,-0.00629225070753022,-0.00119203090391947
1493002020.0,40.4505157396216,-79.9488029444729,0.0,0.074981689453125,-0.951766967773438,0.235397338867188,-0.0128020816761199,-0.00523550838698677,-0.00118377510454022
1493002020.2,40.4505157396216,-79.9488029444729,0.0,0.0766448974609375,-0.949325561523438,0.233856201171875,-0.0149528505724679,-0.0041574607777227,0.000923850582148488
1493002020.4,40.4505156794578,-79.9488029168576,0.0,0.07745361328125,-0.95062255859375,0.23480224609375,-0.0138734713826588,-0.00416465131266591,-0.000131293841740906
1493002020.6,40.4505156794578,-79.9488029168576,0.0,0.0752716064453125,-0.953155517578125,0.235443115234375,-0.0138894503491993,-0.00629198439142121,-0.000125967519560748
1493002020.8,40.4505156794578,-79.9488029168576,0.0,0.0776824951171875,-0.951217651367188,0.235671997070312,-0.0138748029632038,-0.00629225070753022,-0.00119203090391947
1493002021.0,40.4505156794578,-79.9488029168576,0.0,0.07598876953125,-0.952102661132812,0.235321044921875,-0.0138894503491993,-0.00629198439142121,-0.000125967519560748
1493002021.2,40.4505156794578,-79.9488029168576,0.0,0.07598876953125,-0.95184326171875,0.234222412109375,-0.0149541821530129,-0.006285060172587,-0.000136886480030073
1493002021.4,40.4505156192967,-79.9488028892436,0.0,0.07647705078125,-0.952362060546875,0.236831665039062,-0.0128087395788451,-0.00417157553150012,-0.000120374881271582
1493002021.6,40.4505156192967,-79.9488028892436,0.0,0.07598876953125,-0.951126098632812,0.235244750976562,-0.0128020816761199,-0.00523550838698677,-0.00118377510454022
1493002021.8,40.4505156192967,-79.9488028892436,0.0,0.0761260986328125,-0.9498291015625,0.236846923828125,-0.013881460865929,-0.00522831785204356,-0.000128630680650827
1493002022.0,40.4505156192967,-79.9488028892436,0.0,0.077911376953125,-0.950531005859375,0.235794067382812,-0.0139040977351947,-0.0062917180753122,0.000940095864797971
1493002022.2,40.4505156192967,-79.9488028892436,0.0,0.073638916015625,-0.948745727539062,0.237869262695312,-0.0159962770875609,-0.00521473573048416,-0.0012165319859482
