timestamp,latitude,longitude,speed,accelerometerX,accelerometerY,accelerometerZ,gyroX,gyroY,gyroZ
1492617516.4,40.4644697017889,-79.9299597613154,1.78999996185303,0.0329742431640625,-0.989028930664062,0.102462768554688,-0.0235039945166033,-0.0104843325794239,-0.000213585519424355
1492617516.6,40.4644697017889,-79.9299597613154,1.78999996185303,0.029815673828125,-1.01124572753906,0.112899780273438,-0.0303717543356997,-0.0274550603098449,0.0253490325198102
1492617516.8,40.4644697017889,-79.9299597613154,1.78999996185303,0.00262451171875,-0.9691162109375,0.157852172851562,-0.00888004433876021,-0.0286609396514328,0.0106451875092647
1492617517.0,40.4644697017889,-79.9299597613154,1.78999996185303,0.04132080078125,-0.955169677734375,0.198410034179688,-0.034014159758601,0.00979484017320243,0.00069268819952961
1492617517.2,40.4644732601027,-79.9299696231823,0.340000003576279,0.0224456787109375,-0.973831176757812,0.19952392578125,-0.0107125654848437,-0.0105676895215434,-0.00114862137815118
1492617517.4,40.4644732601027,-79.9299696231823,0.340000003576279,0.0197601318359375,-0.961044311523438,0.229415893554688,-0.0139586925375413,-0.0116097844560914,0.00201947505460709
1492617517.6,40.4644732601027,-79.9299696231823,0.340000003576279,0.018035888671875,-0.948684692382812,0.24273681640625,-0.018284198780048,-0.0126446888556962,0.00624271591125474
1492617517.8,40.4644732601027,-79.9299696231823,0.340000003576279,0.0102691650390625,-0.961074829101562,0.2431640625,-0.0149701611195534,-0.0084123932513423,-0.000131560157849914
1492617518.0,40.4644732601027,-79.9299696231823,0.340000003576279,0.0218505859375,-0.951644897460938,0.292327880859375,-0.0108004498008164,-0.0105660916248894,0.00524775892800114
1492617518.2,40.4644735584043,-79.9299704499252,0.0,0.0119476318359375,-0.941680908203125,0.300186157226562,-0.00547146445956779,-0.0137922449694114,0.00317821644490056
1492617518.4,40.4644735584043,-79.9299704499252,0.0,0.01025390625,-0.934646606445312,0.356124877929688,-0.0106593022630422,-0.0073772225356285,-0.00328873763013885
1492617518.6,40.4644735584043,-79.9299704499252,0.0,0.0210723876953125,-0.91583251953125,0.407791137695312,-0.00669199118715111,-0.0286758533535372,0.0064027718927685
1492617518.8,40.4644735584043,-79.9299704499252,0.0,0.0215911865234375,-0.907867431640625,0.427719116210938,-0.0278508060478307,-0.0221569676372412,-0.000227966589310783
1492617519.0,40.4644735584043,-79.9299704499252,0.0,0.0120697021484375,-0.924652099609375,0.422683715820312,-0.00777935986023046,-0.0180303995281635,0.0138276650119094
1492617519.2,40.4644735584043,-79.9299704499252,0.0,0.01971435546875,-0.931793212890625,0.410171508789062,0.000715857701013299,-0.0191491935021058,0.0149837432411128
1492617519.4,40.4644735584043,-79.9299704499252,0.0,-0.0504913330078125,-0.936050415039062,0.412200927734375,-0.00602673354684932,-0.0818661045412538,0.00654684890774179
1492617519.6,40.4644774628823,-79.929981271186,1.13999998569489,-0.01702880859375,-0.913330078125,0.432830810546875,-0.0385532515205321,-0.102923985596619,0.0371883814618665
1492617519.8,40.4644774628823,-79.929981271186,1.13999998569489,-0.052276611328125,-0.94464111328125,0.377456665039062,-0.00349300208574793,-0.107406352027332,0.0407575499547907
1492617520.0,40.4644774628823,-79.929981271186,1.13999998569489,-0.0393524169921875,-0.940292358398438,0.355728149414062,-0.0619328764142287,-0.0623600474530774,-0.0217974408900805
1492617520.2,40.4644846709823,-79.9300012484354,2.77999997138977,-0.149765014648438,-0.954742431640625,0.433364868164062,-0.0263122978860919,-0.226387068468257,0.086678170314918
1492617520.4,40.4644846709823,-79.9300012484354,2.77999997138977,-0.17218017578125,-0.922103881835938,0.382720947265625,-0.0345657004203564,-0.346534782098855,0.0794402311043006
1492617520.6,40.4644846709823,-79.9300012484354,2.77999997138977,-0.117889404296875,-0.869781494140625,0.36846923828125,-0.0384304797942794,-0.301834155834093,0.0750204489592051
1492617520.8,40.4644846709823,-79.9300012484354,2.77999997138977,-0.175262451171875,-1.03506469726562,0.333038330078125,-0.0577431913873161,-0.534656753076526,0.113807259707337
1492617521.0,40.4644846709823,-79.9300012484354,2.77999997138977,-0.168914794921875,-0.98895263671875,0.278182983398438,0.0149635032168282,-0.492580672066037,0.115509285960007
1492617521.2,40.4644957804118,-79.9300320382198,3.99000000953674,-0.1898193359375,-0.921554565429688,0.24420166015625,0.0277536006680428,-0.471387768743404,0.126247684107424
1492617521.4,40.4644957804118,-79.9300320382198,3.99000000953674,-0.293380737304688,-0.938735961914062,0.301803588867188,-0.0203950202600448,-0.50830530672241,0.122651351371381
1492617521.6,40.4644957804118,-79.9300320382198,3.99000000953674,-0.160079956054688,-0.908004760742188,0.29736328125,-0.0769903892175367,-0.450501927894458,0.0878038885076945
1492617521.8,40.4644957804118,-79.9300320382198,3.99000000953674,-0.201919555664062,-0.90185546875,0.305801391601562,-0.0414779350296571,-0.509234483626739,0.106444684557704
1492617522.0,40.4644957804118,-79.9300320382198,3.99000000953674,-0.190170288085938,-0.927200317382812,0.351211547851562,0.0344336076302885,-0.473562239773454,0.103931193120887
1492617522.2,40.464604323504,-79.9300430455548,5.19000005722046,-0.232986450195312,-0.912750244140625,0.3048095703125,-0.032399485189686,-0.421003690396304,0.113773437561493
1492617522.4,40.464604323504,-79.9300430455548,5.19000005722046,-0.159835815429688,-0.963088989257812,0.33489990234375,-0.054378819982219,-0.347474611647544,0.0483195958700707
1492617522.6,40.464604323504,-79.9300430455548,5.19000005722046,-0.0702667236328125,-0.9249267578125,0.352325439453125,-0.0883663481299192,-0.33023357306648,0.0511257687106872
1492617522.8,40.464604323504,-79.9300430455548,5.19000005722046,-0.0283203125,-0.926620483398438,0.378219604492188,-0.0521556131042208,-0.216653747316235,0.0352101854041556
1492617523.0,40.464604323504,-79.9300430455548,5.19000005722046,-0.027679443359375,-0.92132568359375,0.367340087890625,-0.0304335396729895,-0.154035106921311,0.0384696282623036
1492617523.2,40.4646505724624,-79.9300152198731,6.63000011444092,-0.0283966064453125,-0.938125610351562,0.3167724609375,-0.0649779348046253,-0.0229809496785118,-0.0112681008882343
1492617523.4,40.4646505724624,-79.9300152198731,6.63000011444092,0.0359649658203125,-0.956375122070312,0.334274291992188,0.0137557596624773,-0.106457201414827,0.0260047027801877
1492617523.6,40.4646505724624,-79.9300152198731,6.63000011444092,-0.0354766845703125,-0.907791137695312,0.384414672851562,-0.0176828570059081,-0.074344272358434,0.00640809821494866
1492617523.8,40.4646505724624,-79.9300152198731,6.63000011444092,0.0389556884765625,-0.959243774414062,0.357833862304688,-0.00140375221058077,0.024468325147321,-0.0395274358472831
1492617524.0,40.4646505724624,-79.9300152198731,6.63000011444092,-0.0097808837890625,-0.900665283203125,0.336746215820312,-0.00216807944343351,-0.0148788146941637,-0.00531487058747114
1492617524.2,40.4647145243587,-79.9299767432204,8.05000019073486,0.074249267578125,-0.9730224609375,0.266067504882812,-0.0521305793899741,-0.0273205706747959,-0.0185888644087531
1492617524.4,40.4647145243587,-79.9299767432204,8.05000019073486,0.0608367919921875,-0.935043334960938,0.239028930664062,-0.0422409306819648,-0.0326950960706848,0.0337707468349678
1492617524.6,40.4647145243587,-79.9299767432204,8.05000019073486,0.0727996826171875,-0.922500610351562,0.210556030273438,-0.0781022589726448,-0.00480673945148402,0.0237356895314402
1492617524.8,40.4647145243587,-79.9299767432204,8.05000019073486,0.064453125,-0.98529052734375,0.235458374023438,0.0288223272134916,0.0136412437356039,0.00239231760721818
1492617525.0,40.4647145243587,-79.9299767432204,8.05000019073486,0.0775299072265625,-0.930953979492188,0.2357177734375,-0.0555426213785836,0.0620519197149553,-0.0316490063945017
1492617525.2,40.4647857599818,-79.9299338843141,8.89000034332275,0.0419921875,-0.9967041015625,0.214614868164062,-0.0559660639919062,0.0173795229577481,-0.025140773322566
1492617525.4,40.4647857599818,-79.9299338843141,8.89000034332275,0.0380401611328125,-0.948532104492188,0.219833374023438,-0.0213039571400889,-0.00305278155755783,-0.00127645311047498
1492617525.6,40.4647857599818,-79.9299338843141,8.89000034332275,0.06793212890625,-0.934768676757812,0.168792724609375,0.000781637779938256,0.0670059319747207,-0.0204229834514907
1492617525.8,40.4647857599818,-79.9299338843141,8.89000034332275,0.035491943359375,-0.992431640625,0.1668701171875,-0.0173792566416391,-0.0222230140322752,0.0126739836276871
1492617526.0,40.4647857599818,-79.9299338843141,8.89000034332275,0.055755615234375,-0.937789916992188,0.11102294921875,0.0293642804953227,0.0604391093588033,-0.0115836854774087
1492617526.2,40.4648577895271,-79.9298905477445,8.89999961853027,-0.00250244140625,-0.957351684570312,0.150054931640625,0.00221202160141982,0.0148780157458367,0.00211668043439498
1492617526.4,40.4648577895271,-79.9298905477445,8.89999961853027,0.02642822265625,-0.97381591796875,0.197097778320312,0.0037542581886847,0.0010452907278561,0.0373532311333424
1492617526.6,40.4648577895271,-79.9298905477445,8.89999961853027,0.0709075927734375,-0.996109008789062,0.161209106445312,0.02577860040364,0.0317440812454175,0.00124822360292014
1492617526.8,40.4648577895271,-79.9298905477445,8.89999961853027,0.114089965820312,-0.983749389648438,0.148040771484375,-0.0397354287284183,0.0459938572901045,-0.0282470844180344
1492617527.0,40.4648577895271,-79.9298905477445,8.89999961853027,0.0294189453125,-0.99908447265625,0.22637939453125,-0.040768735231369,-0.0369646759302998,0.00181041690903587
1492617527.2,40.4649267889065,-79.9298490342741,8.61999988555908,0.0312652587890625,-0.974884033203125,0.2222900390625,-2.7963191445832e-05,0.00212813202708232,0.003192863830896
1492617527.4,40.4649267889065,-79.9298490342741,8.61999988555908,-0.0367431640625,-0.98419189453125,0.215652465820312,-0.00682248608056499,-0.0382477869435,0.0106909938800141
1492617527.6,40.4649267889065,-79.9298490342741,8.61999988555908,-0.0413360595703125,-0.93829345703125,0.161941528320312,0.00028096349500336,0.0276539984432738,-0.00539955911013566
1492617527.8,40.4649267889065,-79.9298490342741,8.61999988555908,-0.006072998046875,-1.01019287109375,0.17926025390625,-0.0645177405682596,-0.0644655426108941,0.0101679490419225
1492617528.0,40.4649267889065,-79.9298490342741,8.61999988555908,0.022186279296875,-0.95263671875,0.163986206054688,-0.0304095712231788,-0.0923344581541373,0.0702970664498406
1492617528.2,40.4649948699245,-79.9298080733357,8.35000038146973,-0.0725555419921875,-1.00567626953125,0.182601928710938,-0.00649811305979334,-0.0861127812154941,0.0385394030828637
1492617528.4,40.4649948699245,-79.9298080733357,8.35000038146973,-0.0045318603515625,-0.963409423828125,0.199066162109375,-0.0347438658972827,-0.0444462943806594,0.0242819038710155
1492617528.6,40.4649948699245,-79.9298080733357,8.35000038146973,-0.00018310546875,-1.00132751464844,0.177383422851562,-0.0280851642237576,-0.0572584960689216,-0.00227220904205561
1492617528.8,40.4649948699245,-79.9298080733357,8.35000038146973,-0.058349609375,-0.99658203125,0.173797607421875,-0.0224445890349698,0.00440220528190098,0.00828855626065361
1492617529.0,40.4649948699245,-79.9298080733357,8.35000038146973,-0.010772705078125,-0.996826171875,0.120941162109375,0.00463123713564779,-0.0532126217408733,0.021509020544025
1492617529.2,40.4650617373971,-79.9297678425268,8.19999980926514,-0.0306396484375,-0.956756591796875,0.0586090087890625,-0.0528775960757413,-0.0741147078724692,0.0103120260568958
1492617529.4,40.4650617373971,-79.9297678425268,8.19999980926514,0.0706024169921875,-1.0068359375,0.0983734130859375,0.0128979554753628,0.00629757702971037,-0.00521526836270217
1492617529.6,40.4650617373971,-79.9297678425268,8.19999980926514,0.0057830810546875,-0.988250732421875,0.056488037109375,0.0245162620469424,-0.112911372316635,0.0144031741234755
1492617529.8,40.4650617373971,-79.9297678425268,8.19999980926514,0.06146240234375,-1.00270080566406,0.0703582763671875,0.0137376501670647,0.00948617980286225,0.0129107386485951
1492617530.0,40.4650617373971,-79.9297678425268,8.19999980926514,-0.0278167724609375,-0.9879150390625,0.100601196289062,0.0216736038993919,-0.0543873420977072,0.0206203236882655
1492617530.2,40.4651228961104,-79.9297310463924,7.23999977111816,0.0501556396484375,-0.982345581054688,0.105545043945312,-0.0176250664102534,0.0107471865790148,-0.0289959653165647
1492617530.4,40.4651228961104,-79.9297310463924,7.23999977111816,0.0489501953125,-0.965042114257812,0.102691650390625,-0.0328429015111842,0.00446692009638991,-0.00994371087813786
1492617530.6,40.4651228961104,-79.9297310463924,7.23999977111816,0.034820556640625,-0.986907958984375,0.022979736328125,-0.0233109153375726,0.00546933393069573,-0.00558384985756914
1492617530.8,40.4651228961104,-79.9297310463924,7.23999977111816,0.04541015625,-1.01901245117188,0.093017578125,0.0178567614250903,-0.00330471659667933,0.0161845625766295
1492617531.0,40.4651228961104,-79.9297310463924,7.23999977111816,0.0664825439453125,-0.998611450195312,0.0311279296875,-0.0668437454643348,0.0238358243884272,-0.00501073759098409
1492617531.2,40.4651764642466,-79.929698817128,6.17999982833862,0.0211334228515625,-0.995590209960938,0.0041961669921875,-0.0572997750658179,-0.0262249462023373,-0.029306756215777
1492617531.4,40.4651764642466,-79.929698817128,6.17999982833862,-0.0020599365234375,-1.01826477050781,-0.052734375,-0.0200541356405147,0.0235322240241582,-0.000266049792898916
1492617531.6,40.4651764642466,-79.929698817128,6.17999982833862,0.0049285888671875,-1.00836181640625,0.0242156982421875,-0.024804416076889,-0.0243026765275181,0.00940468707350582
1492617531.8,40.4651764642466,-79.929698817128,6.17999982833862,-0.0036163330078125,-1.01876831054688,0.0219879150390625,0.00934157015567094,-0.0106960538860852,0.0118515994830706
1492617532.0,40.4651764642466,-79.929698817128,6.17999982833862,0.0132598876953125,-0.997833251953125,0.0381927490234375,0.0177853887078762,0.0275346888264383,-0.0393388840421055
1492617532.2,40.4652195364609,-79.9296729027341,4.5,0.0344390869140625,-1.03550720214844,0.08135986328125,-0.0142684181723175,0.0128510838401774,-0.0396291686009241
1492617532.4,40.4652195364609,-79.9296729027341,4.5,0.0245361328125,-1.00076293945312,-0.008026123046875,0.00274811592885277,-0.0223527099773621,0.0203438875671153
1492617532.6,40.4652195364609,-79.9296729027341,4.5,-0.0112152099609375,-0.988067626953125,0.09063720703125,-0.00818629087479457,-0.0201630589290989,-0.0352168433068808
1492617532.8,40.4652195364609,-79.9296729027341,4.5,0.0106964111328125,-0.975906372070312,0.093109130859375,0.0191611777270111,-0.0182093639534168,-0.00935275543224928
1492617533.0,40.4652195364609,-79.9296729027341,4.5,-0.0075225830078125,-0.985687255859375,0.0934600830078125,-0.0439496148373597,-0.0624756286443869,-0.0130833114872323
1492617533.2,40.4652457064513,-79.9296571575617,3.09999990463257,0.009002685546875,-0.986053466796875,0.04107666015625,-0.0112473282317316,0.00538677593690328,-0.0310492625170158
1492617533.4,40.4652457064513,-79.9296571575617,3.09999990463257,0.0416717529296875,-1.0057373046875,0.058929443359375,-0.0311842847842828,0.0406187992619975,-0.033476733850623
1492617533.6,40.4652457064513,-79.9296571575617,3.09999990463257,0.036376953125,-0.970352172851562,0.132369995117188,-0.0539018478309858,0.0301326024698105,-0.0134241961067624
1492617533.8,40.4652457064513,-79.9296571575617,3.09999990463257,0.0768280029296875,-1.00517272949219,0.12457275390625,-0.0133328496813727,0.028803685085861,-0.0215351195227077
1492617534.0,40.4652457064513,-79.9296571575617,3.09999990463257,0.0688323974609375,-0.953781127929688,0.117904663085938,0.000193878127357769,-0.0574369278619569,0.0321366311900952
1492617534.2,40.4652650290878,-79.9296455320992,1.99000000953674,-0.002777099609375,-0.973648071289062,0.13922119140625,0.0345609067303943,-0.0300047707374867,0.0260204154306192
1492617534.4,40.4652650290878,-79.9296455320992,1.99000000953674,0.0011444091796875,-1.00111389160156,0.135894775390625,-0.0337371910052328,0.00766218077226698,-0.0206232531654646
1492617534.6,40.4652650290878,-79.9296455320992,1.99000000953674,0.063873291015625,-0.960037231445312,0.129592895507812,-0.0261668892905736,0.0310154403711718,-0.0163411564487262
1492617534.8,40.4652650290878,-79.9296455320992,1.99000000953674,0.0131378173828125,-0.9755859375,0.1263427734375,0.016804013846182,-0.00755325748368274,0.0129861061074444
1492617535.0,40.4652650290878,-79.9296455320992,1.99000000953674,0.014007568359375,-0.987533569335938,0.146682739257812,-0.0141544348776621,-0.0201167199261315,0.0116353508025562
1492617535.2,40.4652758294133,-79.9296390340843,1.28999996185303,0.0044403076171875,-0.988601684570312,0.126068115234375,-0.00859641768266677,-0.00845367224823853,0.00100001698932475
1492617535.4,40.4652758294133,-79.9296390340843,1.28999996185303,0.02154541015625,-1.00274658203125,0.140899658203125,-0.0352147127780088,-0.00828056677738338,0.000727042977591632
1492617535.6,40.4652758294133,-79.9296390340843,1.28999996185303,0.018402099609375,-0.96746826171875,0.135772705078125,-0.0201952831782889,-0.00306050472471906,-0.00446372430308181
1492617535.8,40.4652758294133,-79.9296390340843,1.28999996185303,0.001495361328125,-0.975234985351562,0.150375366210938,-0.0178847246165361,0.0171347784535698,-0.00662461321157211
1492617536.0,40.4652758294133,-79.9296390340843,1.28999996185303,0.01971435546875,-0.984710693359375,0.135086059570312,-0.0214650783860387,-0.0147517819101669,0.00408315858330949
1492617536.2,40.4652831040147,-79.929634657321,0.649999976158142,0.0241851806640625,-0.978759765625,0.130935668945312,-0.0138881187686542,-0.0041643849965569,0.000934769542617813
1492617536.4,40.4652831040147,-79.929634657321,0.649999976158142,0.0187835693359375,-0.976058959960938,0.144805908203125,-0.0223713521049926,-0.00730105612845223,-0.00340884619530142
1492617536.6,40.4652831040147,-79.929634657321,0.649999976158142,0.027801513671875,-0.973236083984375,0.164154052734375,-0.0107391970957445,-0.0063119580995968,0.00310497951492338
1492617536.8,40.4652831040147,-79.929634657321,0.649999976158142,0.0276031494140625,-0.986709594726562,0.158706665039062,-0.0255242685195374,0.000165648619802929,-0.00239418181998124
1492617537.0,40.4652831040147,-79.929634657321,0.649999976158142,0.0276947021484375,-0.97491455078125,0.149566650390625,-0.0138974398324695,-0.00735565093079886,-0.000123304358470669
1492617537.2,40.4652842739788,-79.9296339534123,0.0,0.019561767578125,-0.963943481445312,0.17633056640625,-0.0235239682247789,-0.00729253401296398,0.00297661515038156
1492617537.4,40.4652842739788,-79.9296339534123,0.0,0.0188751220703125,-0.965484619140625,0.191085815429688,-0.0181110933091929,-0.00520115360892475,-0.00230443329124556
1492617537.6,40.4652842739788,-79.9296339534123,0.0,0.01953125,-0.971786499023438,0.208724975585938,-0.0149461926697427,-0.00522139363320935,-0.000139549641120152
1492617537.8,40.4652842739788,-79.9296339534123,0.0,0.0177001953125,-0.9759521484375,0.187713623046875,-0.0149994558915443,-0.00841186061912428,0.00200056661086752
1492617538.0,40.4652842739788,-79.9296339534123,0.0,0.0202178955078125,-0.9647216796875,0.1962890625,-0.0192051198849974,-0.00519369675787253,-0.000183225482997452
1492617538.2,40.4652849230296,-79.9296335629109,0.150000005960464,0.0205078125,-0.968994140625,0.195556640625,-0.0170676667940998,-0.00414387865616329,-0.000164050723148881
1492617538.4,40.4652849230296,-79.9296335629109,0.150000005960464,0.0203704833984375,-0.972015380859375,0.189743041992188,-0.018148377564454,-0.00626428751608438,-0.000169643361438047
1492617538.6,40.4652849230296,-79.9296335629109,0.150000005960464,0.0189666748046875,-0.9700927734375,0.19635009765625,-0.0149848085055488,-0.00841212693523329,0.000934503226508805
1492617538.8,40.4652849230296,-79.9296335629109,0.150000005960464,0.0224456787109375,-0.955001831054688,0.208099365234375,-0.0180937827621074,-0.000946221135305153,-0.00124902255124716
1492617539.0,40.4652849230296,-79.9296335629109,0.150000005960464,0.0185699462890625,-0.957656860351562,0.2542724609375,-0.0129312449889887,-0.0126798425820853,0.00416518394488393
1492617539.2,40.4652844646446,-79.9296338386982,0.0,0.0251617431640625,-0.957870483398438,0.24420166015625,-0.0202165884670095,-0.0019963055531234,-0.00233426069545445
1492617539.4,40.4652844646446,-79.9296338386982,0.0,0.021026611328125,-0.9609375,0.24810791015625,-0.0160708455980832,-0.00734100354480342,0.00305304787366684
1492617539.6,40.4652844646446,-79.9296338386982,0.0,0.022857666015625,-0.961410522460938,0.239837646484375,-0.0213052887206339,-0.00518038095242213,-0.00233719017265354
1492617539.8,40.4652844646446,-79.9296338386982,0.0,0.0243072509765625,-0.959609985351562,0.242706298828125,-0.0202085989837393,-0.000932639013745749,-0.00233692385654453
1492617540.0,40.4652844646446,-79.9296338386982,0.0,0.021087646484375,-0.956878662109375,0.250106811523438,-0.0139001029935596,-0.0116108497205275,-0.00224477848282779
1492617540.2,40.4652888156004,-79.929631220946,0.330000013113022,0.0393829345703125,-0.951156616210938,0.229446411132812,-0.020333767554973,-0.0136961048540595,-0.000172839154746143
1492617540.4,40.4652888156004,-79.929631220946,0.330000013113022,0.0401458740234375,-0.970321655273438,0.220870971679688,-0.0173952356081796,-0.0360522769408387,0.00631222441570581
1492617540.6,40.4652888156004,-79.929631220946,0.330000013113022,0.0149993896484375,-0.969024658203125,0.241790771484375,-0.00533431166342871,-0.00528424423493522,-0.00217340576561367
1492617540.8,40.4652888156004,-79.929631220946,0.330000013113022,0.0216064453125,-0.959274291992188,0.222824096679688,-0.0234187733617208,-0.00303919943599843,-0.00236435441577235
1492617541.0,40.4652888156004,-79.929631220946,0.330000013113022,0.0097503662109375,-0.95526123046875,0.226425170898438,-0.0235639156411301,-0.0126108667098522,0.00298993095583196
1492617541.2,40.4652950582015,-79.9296274650856,0.670000016689301,0.01531982421875,-0.962371826171875,0.242538452148438,-0.0235372840302293,-0.0168665981317988,-0.0012636699372426
1492617541.4,40.4652950582015,-79.9296274650856,0.670000016689301,0.004180908203125,-0.957412719726562,0.217727661132812,-0.0110068447852975,-0.0243918924240357,0.0127448237126832
1492617541.6,40.4652950582015,-79.9296274650856,0.670000016689301,0.0413055419921875,-0.952590942382812,0.2420654296875,-0.0254204052370243,0.00229138380190418,-0.00879588844831371
1492617541.8,40.4652950582015,-79.9296274650856,0.670000016689301,0.018890380859375,-0.95501708984375,0.25439453125,-0.0149062452533915,-0.0116049907661293,-0.00651995098073199
1492617542.0,40.4652950582015,-79.9296274650856,0.670000016689301,0.0479278564453125,-0.96356201171875,0.235946655273438,-0.0031356058674593,1.97073920665864e-05,-0.00429701041884285
1492617542.2,40.4653046915884,-79.9296216608309,1.14999997615814,0.0326690673828125,-0.949478149414062,0.248214721679688,-0.00586561230089952,-0.023359384869412,0.0266555793506031
1492617542.4,40.4653046915884,-79.9296216608309,1.14999997615814,0.0133209228515625,-0.931533813476562,0.2373046875,-0.0163558038347216,-0.029675870342862,0.0116374813314283
1492617542.6,40.4653046915884,-79.9296216608309,1.14999997615814,0.0215911865234375,-0.956253051757812,0.278793334960938,-0.0320151910443876,-0.011492871684237,-0.00136433742644759
1492617542.8,40.4653046915884,-79.9296216608309,1.14999997615814,0.0077056884765625,-0.956558227539062,0.251968383789062,-0.025644110768591,-0.00408741964105361,0.0040128511305314
1492617543.0,40.4653046915884,-79.9296216608309,1.14999997615814,-0.015594482421875,-0.965072631835938,0.267669677734375,0.0118025973190132,0.00417743448589829,-0.00415479761663262
1492617543.2,40.4653113295978,-79.929617631821,1.51999998092651,0.01190185546875,-0.969802856445312,0.265960693359375,-0.0456303358013087,-0.000768854606705876,-0.0121935493670368
1492617543.4,40.4653113295978,-79.929617631821,1.51999998092651,-0.01361083984375,-0.923843383789062,0.272659301757812,-0.0163299711721479,0.039458992607268,-0.0301230150898863
1492617543.6,40.4653113295978,-79.929617631821,1.51999998092651,0.0397796630859375,-0.961181640625,0.23193359375,-0.0483776527818344,-0.0167009495119959,0.0240707151965722
1492617543.8,40.4653113295978,-79.929617631821,1.51999998092651,0.003143310546875,-0.939666748046875,0.27294921875,-0.0217899840390283,-0.0307030515753055,0.0190479933806827
1492617544.0,40.4653113295978,-79.929617631821,1.51999998092651,-0.013946533203125,-0.955245971679688,0.307540893554688,-0.0214344520335027,-0.000922785317712456,0.00937885441093205
1492617544.2,40.4653293448804,-79.9296066972553,2.16000008583069,0.0338287353515625,-0.941879272460938,0.305557250976562,-0.00998605513947012,-0.0360999475243511,0.00958684729206724
1492617544.4,40.4653293448804,-79.9296066972553,2.16000008583069,0.02655029296875,-0.943817138671875,0.308547973632812,-0.0298324642149586,-0.00831625313599044,-0.00348261575749662
1492617544.6,40.4653293448804,-79.9296066972553,2.16000008583069,0.039154052734375,-0.943710327148438,0.276626586914062,-0.00946540714635963,6.01874406357908e-05,-0.00862677771909368
1492617544.8,40.4653293448804,-79.9296066972553,2.16000008583069,0.012664794921875,-0.951492309570312,0.32342529296875,0.00122718463030851,0.0138196755286392,-0.00428795567113658
1492617545.0,40.4653293448804,-79.9296066972553,2.16000008583069,0.0369873046875,-0.96380615234375,0.345993041992188,0.0339329333453536,-0.010857175132035,0.00464029188335406
1492617545.2,40.4653547310915,-79.9295912888267,3.17000007629395,-0.0220489501953125,-0.927658081054688,0.374526977539062,-0.0270976640915562,-0.0402430272321874,0.0126209867219945
1492617545.4,40.4653547310915,-79.9295912888267,3.17000007629395,0.0078582763671875,-0.93609619140625,0.38623046875,-0.016467123968287,0.00754713221317555,-0.0375055639476949
1492617545.6,40.4653547310915,-79.9295912888267,3.17000007629395,0.047760009765625,-0.919113159179688,0.3128662109375,-0.0493145528533243,-0.0230792203227357,0.0112830145903387
1492617545.8,40.4653547310915,-79.9295912888267,3.17000007629395,0.041259765625,-0.973922729492188,0.271194458007812,0.0359244452085149,0.0423096402380889,-0.0338602290475945
1492617546.0,40.4653547310915,-79.9295912888267,3.17000007629395,-0.0389556884765625,-0.940414428710938,0.34576416015625,0.0131810494992382,-0.0373114195042281,0.0279528051175807
1492617546.2,40.4653886272288,-79.9295707152086,4.46000003814697,0.016387939453125,-0.941635131835938,0.331222534179688,-0.0162567342421707,0.0862653803459557,-0.00998498987503409
1492617546.4,40.4653886272288,-79.9295707152086,4.46000003814697,0.0515594482421875,-0.937820434570312,0.319107055664062,0.019291672620425,0.0381702889557787,0.0118273647171509
1492617546.6,40.4653886272288,-79.9295707152086,4.46000003814697,0.0377960205078125,-0.9696044921875,0.251708984375,-0.0016905746599823,-0.0287046154933101,0.0299107611510069
1492617546.8,40.4653886272288,-79.9295707152086,4.46000003814697,0.027923583984375,-0.91693115234375,0.321548461914062,-0.0242451522479724,0.0150481917394927,-0.00988299080528405
1492617547.0,40.4653886272288,-79.9295707152086,4.46000003814697,-0.0089263916015625,-0.93011474609375,0.288711547851562,0.00109402657580455,0.0233964028085641,0.0106129632600748
1492617547.2,40.4654296542711,-79.9295458134125,5.38000011444092,-0.0072021484375,-0.960708618164062,0.204208374023438,-0.0308553843896581,0.0161451477924964,-0.0707276995981064
1492617547.4,40.4654296542711,-79.9295458134125,5.38000011444092,0.0946807861328125,-1.00221252441406,0.27960205078125,-0.0132441664170731,-0.00948271769344514,0.0286766523018642
1492617547.6,40.4654296542711,-79.9295458134125,5.38000011444092,0.0470123291015625,-0.994338989257812,0.210708618164062,-0.035357191896328,-0.0370008949211249,-0.00453136859476982
1492617547.8,40.4654296542711,-79.9295458134125,5.38000011444092,0.03546142578125,-0.958206176757812,0.218704223632812,-0.0654913922627926,0.038717035927572,-0.0178298634980805
1492617548.0,40.4654296542711,-79.9295458134125,5.38000011444092,-0.040985107421875,-0.974136352539062,0.195907592773438,-0.0493326623487368,0.0694603012353377,-0.0145451206095768
1492617548.2,40.4654815438163,-79.9295143185057,5.98999977111816,0.008819580078125,-0.941802978515625,0.209945678710938,-0.00223066372905037,0.00214331204529577,0.00850134283175094
1492617548.4,40.4654815438163,-79.9295143185057,5.98999977111816,-0.0462188720703125,-1.03079223632812,0.29217529296875,0.0456018399776448,-0.0726212071331527,0.0518325716639942
1492617548.6,40.4654815438163,-79.9295143185057,5.98999977111816,0.020751953125,-0.924514770507812,0.262115478515625,-0.000651142886524374,-0.0574339983847579,0.0161347614642451
1492617548.8,40.4654815438163,-79.9295143185057,5.98999977111816,0.0248870849609375,-0.952072143554688,0.259552001953125,-0.00724859185497767,-0.0403676631712031,0.0405460949642384
1492617549.0,40.4654815438163,-79.9295143185057,5.98999977111816,0.0116119384765625,-0.941757202148438,0.166091918945312,-0.00683313872492531,-0.0552685821024144,0.00220509738258561
1492617549.2,40.4655315010099,-79.92948399646,6.30999994277954,0.0140380859375,-0.962432861328125,0.2530517578125,0.0497800734118701,-0.0215969048599976,0.00802889805437089
1492617549.4,40.4655315010099,-79.92948399646,6.30999994277954,0.02972412109375,-0.968887329101562,0.213775634765625,0.0177315928538566,-0.0160681824369931,0.0183486472784279
1492617549.6,40.4655315010099,-79.92948399646,6.30999994277954,-0.029937744140625,-0.949981689453125,0.217208862304688,-0.0412542294980905,-0.000798682010914764,-0.0206783806000293
1492617549.8,40.4655315010099,-79.92948399646,6.30999994277954,0.080780029296875,-0.970352172851562,0.158432006835938,0.00671782384972488,0.109512646133475,-0.0417961827799216
1492617550.0,40.4655315010099,-79.92948399646,6.30999994277954,0.007904052734375,-0.940185546875,0.2750244140625,-0.0551322282546024,-0.0400566059558818,0.0379226149744013
1492617550.2,40.4655858407646,-79.9294510143728,6.65000009536743,0.0814056396484375,-0.987762451171875,0.181625366210938,-0.0452228721545265,0.0300742792419378,-0.0250635416509537
1492617550.4,40.4655858407646,-79.9294510143728,6.65000009536743,0.0876922607421875,-0.91455078125,0.1746826171875,-0.0535649579530907,0.0301264771993034,-0.037943653947013
1492617550.6,40.4655858407646,-79.9294510143728,6.65000009536743,-0.0081024169921875,-0.965103149414062,0.14569091796875,-0.0412526316014364,-0.100772151435835,0.0798037525930964
1492617550.8,40.4655858407646,-79.9294510143728,6.65000009536743,-0.0394744873046875,-0.909820556640625,0.233352661132812,-0.036634976587348,-0.0146500491565259,0.0231194340551959
1492617551.0,40.4655858407646,-79.9294510143728,6.65000009536743,0.0313262939453125,-0.985031127929688,0.145584106445312,-0.00232866805716529,0.0489403787201681,-0.0364014173597481
1492617551.2,40.4655858407646,-79.9294510143728,6.65000009536743,0.0045318603515625,-0.947906494140625,0.182098388671875,0.0193670400792742,-0.0330940376019787,0.0450646803857758
1492617551.4,40.4656364092472,-79.9294203212989,6.90999984741211,0.01385498046875,-1.00013732910156,0.28369140625,-0.023661121020918,-0.00409860491763195,0.0146953228950572
1492617551.6,40.4656364092472,-79.9294203212989,6.90999984741211,0.108200073242188,-0.936279296875,0.266128540039062,-0.0413248032669776,0.0151597781891671,-0.00685950401971709
1492617551.8,40.4656364092472,-79.9294203212989,6.90999984741211,-0.040008544921875,-0.948440551757812,0.228668212890625,-0.0232480647358467,-0.113653861628549,0.0800213328541559
1492617552.0,40.4656364092472,-79.9294203212989,6.90999984741211,0.179061889648438,-0.832183837890625,0.277938842773438,-0.048195226247164,0.0407415709882502,0.0420499820318061
1492617552.2,40.4657012441342,-79.9293806292605,7.1399998664856,-0.042816162109375,-1.00920104980469,0.203445434570312,0.0199856924004996,-0.125644478120521,0.0271842168269838
1492617552.4,40.4657012441342,-79.9293806292605,7.1399998664856,0.0253448486328125,-0.96405029296875,0.358779907226562,0.0414334602394528,-0.044936049705125,0.0602481607086446
1492617552.6,40.4657012441342,-79.9293806292605,7.1399998664856,-0.147216796875,-0.990768432617188,0.27569580078125,-0.00891200227184116,0.00219018368048117,0.0297570967561094
1492617552.8,40.4657012441342,-79.9293806292605,7.1399998664856,-0.03668212890625,-0.962799072265625,0.19390869140625,-0.0014855112560462,-0.017006414089028,0.0213529593041463
1492617553.0,40.4657012441342,-79.9293806292605,7.1399998664856,-0.033233642578125,-0.979293823242188,0.196929931640625,-0.0582699646509337,-0.00387969307602743,-0.0240432846373444
1492617553.2,40.4657609016392,-79.9293441049042,7.34000015258789,-0.0257415771484375,-0.921539306640625,0.195465087890625,-0.00687708088291162,-0.0552677831540874,0.00540328753566177
1492617553.4,40.4657609016392,-79.9293441049042,7.34000015258789,-0.030426025390625,-0.943695068359375,0.231277465820312,0.00924835951751817,-0.0192048535688884,0.0140050315405087
1492617553.6,40.4657609016392,-79.9293441049042,7.34000015258789,-0.0224151611328125,-0.972091674804688,0.272140502929688,0.0294516321790773,-0.0267826121345999,0.012099007148339
1492617553.8,40.4657609016392,-79.9293441049042,7.34000015258789,0.0554962158203125,-0.962081909179688,0.236297607421875,-0.0425200299642051,-0.0412129505011942,-0.0280505431295866
1492617554.0,40.4657609016392,-79.9293441049042,7.34000015258789,0.0188140869140625,-0.986297607421875,0.213973999023438,-0.0360770443389764,-0.000830639943995714,-0.00996315195409544
1492617554.2,40.4658201960073,-79.9293078028725,7.34999990463257,0.0205078125,-0.998565673828125,0.298614501953125,0.0658362716239579,-0.0142556349990852,0.00604191356506277
1492617554.4,40.4658201960073,-79.9293078028725,7.34999990463257,0.0391998291015625,-0.885635375976562,0.348785400390625,-0.105232679945609,0.000682301871278301,-0.0138737376987678
1492617554.6,40.4658201960073,-79.9293078028725,7.34999990463257,0.145553588867188,-0.941558837890625,0.284698486328125,0.0200820988319605,0.0211473632679922,0.0225415280986487
1492617554.8,40.4658201960073,-79.9293078028725,7.34999990463257,0.09820556640625,-0.944137573242188,0.279983520507812,-0.0524701324289592,-0.00816578453440096,0.0165432903754632
1492617555.0,40.4658201960073,-79.9293078028725,7.34999990463257,0.0692138671875,-0.993896484375,0.339691162109375,-0.051759601050126,-0.0475273054457721,0.0209169998337004
1492617555.2,40.4658914643348,-79.9292641699752,8.10999965667725,0.130386352539062,-0.874588012695312,0.228500366210938,-0.0853212897395226,0.109040467672204,-0.0864520679383703
1492617555.4,40.4658914643348,-79.9292641699752,8.10999965667725,0.0677642822265625,-0.904693603515625,0.215179443359375,-0.00885687483727652,0.0362187245089686,-0.0332367830364069
1492617555.6,40.4658914643348,-79.9292641699752,8.10999965667725,0.0400238037109375,-0.993927001953125,0.28326416015625,-0.011966381726053,-0.020131633628236,0.00739293518605996
1492617555.8,40.4658914643348,-79.9292641699752,8.10999965667725,0.0566864013671875,-0.95550537109375,0.2471923828125,-0.0907884931413463,-0.000470047932398986,0.0193297558240131
1492617556.0,40.4658914643348,-79.9292641699752,8.10999965667725,0.156753540039062,-1.03614807128906,0.174636840820312,0.00575136269013512,0.111620538136273,-0.202809837021676
1492617556.2,40.4659701351402,-79.9292160050288,9.3100004196167,0.0642242431640625,-0.927291870117188,0.353775024414062,0.0406182666297795,-0.00452124858262752,-0.0134332508544687
1492617556.4,40.4659701351402,-79.9292160050288,9.3100004196167,0.0394134521484375,-0.935897827148438,0.32305908203125,-0.102213720533895,0.00597133979617567,-0.0756968918760852
1492617556.6,40.4659701351402,-79.9292160050288,9.3100004196167,0.0043182373046875,-1.03401184082031,0.278640747070312,0.0269759576297396,-0.0533577640202826,0.0228043820982395
1492617556.8,40.4659701351402,-79.9292160050288,9.3100004196167,-0.0305023193359375,-0.90716552734375,0.342788696289062,-0.0647867198383576,-0.0495672868407728,0.0378483127799881
1492617557.0,40.4659701351402,-79.9292160050288,9.3100004196167,0.0002593994140625,-0.93927001953125,0.302841186523438,0.0183121619714939,-0.00118537300119427,-0.0158026652763122
1492617557.2,40.4660485922007,-79.9291679709443,10.0799999237061,0.0174713134765625,-0.897689819335938,0.24908447265625,0.0480727208370203,0.0209617409400137,0.000438089999318035
1492617557.4,40.4660485922007,-79.9291679709443,10.0799999237061,-0.0344390869140625,-0.862747192382812,0.286575317382812,-0.0532823965614333,-0.112404572761192,0.0189364069310084
1492617557.6,40.4660485922007,-79.9291679709443,10.0799999237061,-0.0692291259765625,-0.942764282226562,0.265228271484375,0.0226224881957871,-0.0756683960524214,0.0174863157174603
1492617557.8,40.4660485922007,-79.9291679709443,10.0799999237061,0.06170654296875,-0.936614990234375,0.218734741210938,0.0260323996555246,-0.0235663124861112,0.030181338317759
1492617558.0,40.4660485922007,-79.9291679709443,10.0799999237061,0.01031494140625,-0.973861694335938,0.175811767578125,-0.0318380908318973,-0.0210703979124889,-0.0194634465107351
1492617558.3,40.4660485922007,-79.9291679709443,10.0799999237061,0.0816497802734375,-1.00765991210938,0.1475830078125,-0.0308753580978336,0.0895485253378054,-0.0293349857233318
1492617558.4,40.4661313678027,-79.9291172929017,11.039999961853,0.0149993896484375,-0.876373291015625,0.166519165039062,0.034179542062295,-0.117217970115402,0.0838171363558459
1492617558.6,40.4661313678027,-79.9291172929017,11.039999961853,0.0218505859375,-0.9930419921875,0.19866943359375,-0.139435924141606,-0.0224975859406624,-0.0173627450428806
1492617558.8,40.4661313678027,-79.9291172929017,11.039999961853,0.0508575439453125,-0.935623168945312,0.131484985351562,0.000790958843753534,0.0233894785897299,-0.0448332516870479
1492617559.0,40.4661313678027,-79.9291172929017,11.039999961853,-0.05096435546875,-1.12362670898438,0.1507568359375,0.0694786770468592,-0.0983132548013652,0.00522991574869761
1492617559.2,40.4662246837995,-79.9290601616703,11.2399997711182,-0.005645751953125,-0.969375610351562,0.128738403320312,-0.000884435798015315,0.105308580036676,-0.0333334557839768
1492617559.4,40.4662246837995,-79.9290601616703,11.2399997711182,0.0934906005859375,-0.960052490234375,0.18280029296875,-0.0421093705241149,0.069403575904119,-0.0752452197552078
1492617559.6,40.4662246837995,-79.9290601616703,11.2399997711182,0.0986480712890625,-0.994155883789062,0.175308227539062,-0.0725130827928955,0.107905428415613,-0.0116830213860686
1492617559.8,40.4662246837995,-79.9290601616703,11.2399997711182,-0.0695953369140625,-0.926010131835938,0.241226196289062,-0.0211425695780301,-0.151964499173774,0.0609499036558805
1492617560.0,40.4662246837995,-79.9290601616703,11.2399997711182,-0.091552734375,-1.05233764648438,0.172164916992188,0.0412869863794984,-0.0683372462036513,0.0581746234839089
1492617560.2,40.4663119584827,-79.9290067291369,10.9200000762939,0.060943603515625,-0.961746215820312,0.145126342773438,-0.091283574787992,0.169711538361953,-0.0845372551146033
1492617560.4,40.4663119584827,-79.9290067291369,10.9200000762939,0.115097045898438,-0.9693603515625,0.126480102539062,-0.0699939987177896,0.0121538682667946,-0.0146087701596297
1492617560.6,40.4663119584827,-79.9290067291369,10.9200000762939,0.0319976806640625,-0.937667846679688,0.193710327148438,-0.0261687535033366,-0.0349284229608252,0.0254113504893181
1492617560.8,40.4663119584827,-79.9290067291369,10.9200000762939,0.0543060302734375,-0.98095703125,0.167953491210938,-0.0661965973194456,0.0514831649289758,-0.0370618813100877
1492617561.0,40.4663119584827,-79.9290067291369,10.9200000762939,0.11187744140625,-1.00177001953125,0.181411743164062,0.0332349188236438,0.0997670744404394,-0.0393671135496603
1492617561.2,40.4663959677568,-79.9289552957981,10.6800003051758,-0.0200042724609375,-0.955322265625,0.26751708984375,-0.0579056442138109,-0.0113205651617088,0.0228930653625391
1492617561.4,40.4663959677568,-79.9289552957981,10.6800003051758,-0.0403289794921875,-0.907394409179688,0.207473754882812,-0.068058146921411,-0.0676299106181262,0.0335965760996766
1492617561.6,40.4663959677568,-79.9289552957981,10.6800003051758,-0.050872802734375,-0.97821044921875,0.24273681640625,-0.00581501224018802,-0.0361260465030339,0.0160269034400969
1492617561.8,40.4663959677568,-79.9289552957981,10.6800003051758,0.006195068359375,-0.950698852539062,0.180206298828125,-0.0298897221783953,-0.0295914481363064,-0.0108917962262061
1492617562.0,40.4663959677568,-79.9289552957981,10.6800003051758,0.0305938720703125,-0.973220825195312,0.215072631835938,0.0261602313878484,-0.018249577685877,0.0237716422061563
1492617562.2,40.4664851130311,-79.9289007180251,10.5699996948242,-0.0114898681640625,-1.00062561035156,0.209701538085938,-0.035829370357599,-0.00296276671271315,-0.0291469665503722
1492617562.4,40.4664851130311,-79.9289007180251,10.5699996948242,0.0349273681640625,-0.949050903320312,0.28179931640625,-0.0552315641632623,0.0280167209837426,0.00469328878904664
1492617562.6,40.4664851130311,-79.9289007180251,10.5699996948242,0.103668212890625,-0.85064697265625,0.215789794921875,-0.0822685081819648,-0.0132787875112441,0.0898201677689935
1492617562.8,40.4664851130311,-79.9289007180251,10.5699996948242,0.06744384765625,-0.944717407226562,0.248611450195312,-0.0313214375804219,0.0321107985275214,-0.0281251116401088
1492617563.0,40.4664851130311,-79.9289007180251,10.5699996948242,0.119979858398438,-0.938751220703125,0.234115600585938,0.0110158995330038,0.164790016667487,-0.0920068893400575
1492617563.2,40.4665692021155,-79.9288492358238,10.8400001525879,-0.004119873046875,-0.828033447265625,0.28057861328125,0.0207233880224516,-0.0469358173676655,0.0163265090627308
1492617563.4,40.4665692021155,-79.9288492358238,10.8400001525879,-0.0138092041015625,-0.940582275390625,0.060272216796875,-0.074645742193831,-0.00695990519281308,0.00351856843221269
1492617563.6,40.4665692021155,-79.9288492358238,10.8400001525879,-0.090179443359375,-1.00148010253906,0.243133544921875,0.0528762644951963,0.0251793891583722,-0.0368411052557202
1492617563.8,40.4665692021155,-79.9288492358238,10.8400001525879,0.08837890625,-0.993408203125,0.1988525390625,-9.98685408779714e-05,0.00425706300249166,0.00958391781486815
1492617564.0,40.4665692021155,-79.9288492358238,10.8400001525879,0.0450286865234375,-0.974380493164062,0.171951293945312,-0.0388291550094643,0.0268412016785816,-0.027122165173585
1492617564.2,40.4666349954976,-79.9288089548745,11.2799997329712,-0.003692626953125,-0.952880859375,0.2073974609375,-0.0676107358582776,-0.0548723037322106,0.00797909694198641
1492617564.4,40.4666349954976,-79.9288089548745,11.2799997329712,-0.128158569335938,-1.00146484375,0.041168212890625,-0.0959957720207782,0.0261453176857439,-0.052228583718089
1492617564.6,40.4666349954976,-79.9288089548745,11.2799997329712,-0.0286865234375,-1.28060913085938,0.0523834228515625,0.143692454511879,-0.118992168033612,0.0956050862888636
1492617564.8,40.4666349954976,-79.9288089548745,11.2799997329712,-0.3900146484375,-0.896697998046875,0.29034423828125,0.00231641751615092,-0.339323474499138,0.111785654123858
1492617565.0,40.4666349954976,-79.9288089548745,11.2799997329712,-0.135025024414062,-0.980667114257812,0.2523193359375,-0.0395945475067531,-0.198648115186209,0.0608814604158654
1492617565.2,40.4667500479396,-79.9287386588725,10.8299999237061,-0.069976806640625,-0.931961059570312,0.2298583984375,-0.0608921130602258,-0.0187502519708119,0.00368980969030478
1492617565.4,40.4667500479396,-79.9287386588725,10.8299999237061,-0.0569305419921875,-0.954620361328125,0.233001708984375,-0.104251038767806,-0.0429269609787692,0.0459568393509524
1492617565.6,40.4667500479396,-79.9287386588725,10.8299999237061,0.092559814453125,-0.930801391601562,0.133392333984375,-0.0502421318609989,-0.0379681550290417,-0.00681369764896773
1492617565.8,40.4667500479396,-79.9287386588725,10.8299999237061,0.076934814453125,-1.00920104980469,0.1480712890625,-0.0425445310462338,-0.0614124947372272,0.0402390324905523
1492617566.0,40.4667500479396,-79.9287386588725,10.8299999237061,-0.0475311279296875,-0.90679931640625,0.245452880859375,0.0358994114942681,-0.0768119574245014,0.0581413339702829
1492617566.2,40.4668374031161,-79.9286852864134,10.6300001144409,0.04791259765625,-0.965621948242188,0.115631103515625,-0.0461158300680301,0.0119932796530628,-0.0474165179444248
1492617566.4,40.4668374031161,-79.9286852864134,10.6300001144409,-0.0126495361328125,-0.984344482421875,0.166900634765625,-0.0177329244344016,0.0139405830421288,-0.0194093843406065
1492617566.6,40.4668374031161,-79.9286852864134,10.6300001144409,0.0309600830078125,-1.04347229003906,0.230209350585938,0.0250108110613702,0.0381284773266645,-0.0169017518581879
1492617566.8,40.4668374031161,-79.9286852864134,10.6300001144409,0.0468902587890625,-0.9229736328125,0.196609497070312,-0.0914875729274921,-0.0642860455534227,0.0354804962547987
1492617567.0,40.4668374031161,-79.9286852864134,10.6300001144409,0.094329833984375,-1.01060485839844,0.211837768554688,0.0550310281331794,0.0538879993933173,-0.0230323486875503
1492617567.2,40.4669237541807,-79.9286325274489,10.4300003051758,0.0418701171875,-0.926483154296875,0.238494873046875,-0.0840973009025222,0.0664906103037903,-0.0436811681994797
1492617567.4,40.4669237541807,-79.9286325274489,10.4300003051758,0.0793914794921875,-1.01797485351562,0.137176513671875,-0.00147113018615977,0.0850943884146479,-0.0791345002111595
1492617567.6,40.4669237541807,-79.9286325274489,10.4300003051758,0.0873870849609375,-0.972869873046875,0.126007080078125,-0.0409959028723528,0.0725996355283231,0.000459128971929661
1492617567.8,40.4669237541807,-79.9286325274489,10.4300003051758,0.0605926513671875,-1.01885986328125,0.128463745117188,0.0161720457195062,0.0286153995967924,0.00115794244196645
1492617568.0,40.4669237541807,-79.9286325274489,10.4300003051758,0.0561981201171875,-0.94683837890625,0.132400512695312,-0.00456838653392193,-0.0776125036481792,0.0577290766335386
1492617568.2,40.4670080118857,-79.9285810474898,10.3299999237061,-0.175689697265625,-1.01582336425781,0.157424926757812,-0.042584744778694,0.0587741010452857,-0.0464348767666216
1492617568.4,40.4670080118857,-79.9285810474898,10.3299999237061,-0.15826416015625,-0.953109741210938,0.102615356445312,-0.00497292070350496,0.0851207537094396,-0.0567799260210344
1492617568.6,40.4670080118857,-79.9285810474898,10.3299999237061,-0.115463256835938,-0.938568115234375,0.159912109375,-0.0774143644630773,-0.0686355202457401,0.0164439544668033
1492617568.8,40.4670080118857,-79.9285810474898,10.3299999237061,0.051910400390625,-1.00543212890625,0.180999755859375,-0.0597794443567906,-0.0357790366129965,-0.00904942138408925
1492617569.0,40.4670080118857,-79.9285810474898,10.3299999237061,-0.0247344970703125,-0.949737548828125,0.0810699462890625,0.0213199361066293,-0.0299256748531114,-0.0178301298141895
1492617569.2,40.4670909166935,-79.928530798806,9.6899995803833,-0.017578125,-1.01469421386719,0.113418579101562,0.0071015853628053,-0.0351478674346478,0.0065606973454102
1492617569.4,40.4670909166935,-79.928530798806,9.6899995803833,0.0087432861328125,-0.944290161132812,0.11566162109375,-0.097738278322017,-0.0153240952284249,-0.0254840547870772
1492617569.6,40.4670909166935,-79.928530798806,9.6899995803833,-0.0474395751953125,-1.0164794921875,0.122451782226562,-0.0253391788237769,0.0267575784203531,-0.0013946974628745
1492617569.8,40.4670909166935,-79.928530798806,9.6899995803833,-0.0264129638671875,-1.07183837890625,0.119430541992188,-0.0408334500458579,0.0864262352757965,-0.00383974565967625
1492617570.0,40.4670909166935,-79.928530798806,9.6899995803833,0.00421142578125,-0.960052490234375,0.0462799072265625,0.000613325999045249,-0.0542531187787672,0.00334493032913952
1492617570.2,40.4671670861426,-79.9284848897762,8.88000011444092,0.0081634521484375,-0.924591064453125,0.107284545898438,-0.0180631564095714,0.0128827754571493,0.0040466732763754
1492617570.4,40.4671670861426,-79.9284848897762,8.88000011444092,-0.02081298828125,-0.983932495117188,0.091278076171875,-0.0322921597977558,0.0140436473763148,0.0326857750068695
1492617570.6,40.4671670861426,-79.9284848897762,8.88000011444092,0.0167236328125,-0.973556518554688,0.0541229248046875,0.044264666794316,-0.000282561391657407,0.0335065612548319
1492617570.8,40.4671670861426,-79.9284848897762,8.88000011444092,0.030487060546875,-1.008544921875,0.03680419921875,-0.00315291641454481,-0.0276390847411694,-0.0180865922271641
1492617571.0,40.4671670861426,-79.9284848897762,8.88000011444092,-0.0640869140625,-1.0,0.0488433837890625,0.0349515924623089,0.0721016244044783,-0.0243511460593575
1492617571.2,40.4672365556061,-79.9284430189776,8.02000045776367,0.0362091064453125,-1.03094482421875,0.0560150146484375,-0.0403940284659949,0.0396105264732936,-0.0612899893270836
1492617571.4,40.4672365556061,-79.9284430189776,8.02000045776367,0.0677490234375,-1.0130615234375,0.0999908447265625,0.00726457082151815,0.0658988559095747,-0.0278172502180957
1492617571.6,40.4672365556061,-79.9284430189776,8.02000045776367,-0.042633056640625,-0.9974365234375,0.0175323486328125,0.00405865750128076,-0.0670317646372944,0.055657669937675
1492617571.8,40.4672365556061,-79.9284430189776,8.02000045776367,-0.068359375,-0.970932006835938,0.037322998046875,0.00876020208970665,0.0244078713905762,-0.0042381545587521
1492617572.0,40.4672365556061,-79.9284430189776,8.02000045776367,0.050537109375,-1.023681640625,0.0630035400390625,-0.00893277492834378,0.0202629274699769,-0.0363950257731319
1492617572.2,40.4672902359635,-79.9284107950538,6.6100001335144,0.12286376953125,-0.853240966796875,-0.0323638916015625,-0.138789574945043,0.0785403489719628,-0.0869207842902242
1492617572.4,40.4672902359635,-79.9284107950538,6.6100001335144,0.0177154541015625,-1.07034301757812,0.0650634765625,0.0299238106403483,-0.0491188105132035,0.0430816906381028
1492617572.6,40.4672902359635,-79.9284107950538,6.6100001335144,-0.01153564453125,-1.01112365722656,0.085296630859375,-0.054479753787533,0.0429088514833567,0.0355827616406577
1492617572.8,40.4672902359635,-79.9284107950538,6.6100001335144,0.217727661132812,-0.963165283203125,-0.002410888671875,0.0512365562120345,-0.130094886618153,0.0754952905815662
1492617573.0,40.4672902359635,-79.9284107950538,6.6100001335144,0.03961181640625,-0.996688842773438,0.062896728515625,-0.0125402929409651,-0.0126745162599051,0.0532150185858543
1492617573.2,40.467336452198,-79.9283830935464,5.11999988555908,-0.081634521484375,-1.03237915039062,-0.0004119873046875,0.000840493640029008,-0.105307781088349,0.0365316459370529
1492617573.4,40.467336452198,-79.9283830935464,5.11999988555908,-0.01806640625,-1.03683471679688,0.0011444091796875,0.0333576905498965,-0.0289315168181848,0.036667467152647
1492617573.6,40.467336452198,-79.9283830935464,5.11999988555908,0.0126190185546875,-1.02198791503906,-0.0684661865234375,-0.00472577935434561,0.00747043317378127,-0.0395175821512498
1492617573.8,40.467336452198,-79.9283830935464,5.11999988555908,0.000640869140625,-1.01622009277344,0.0342559814453125,-0.0194128464500236,0.00225676270773315,0.0189872733078289
1492617574.0,40.467336452198,-79.9283830935464,5.11999988555908,0.006561279296875,-1.00967407226562,0.031982421875,-0.00507731661823607,0.0191787545902056,-0.00756497539247908
1492617574.2,40.4673678366093,-79.9283642820721,3.27999997138977,0.029998779296875,-1.0191650390625,0.0087890625,-0.0336719435585259,0.0417029721417688,-0.0068496503236838
1492617574.4,40.4673678366093,-79.9283642820721,3.27999997138977,0.0183258056640625,-1.01437377929688,-0.0055999755859375,0.021073593705797,-0.0139640188597215,0.00878150737842728
1492617574.6,40.4673678366093,-79.9283642820721,3.27999997138977,0.0317840576171875,-0.997543334960938,0.0006561279296875,-0.0209071461376671,0.0224714869619796,-0.0162652563576589
1492617574.8,40.4673678366093,-79.9283642820721,3.27999997138977,0.0114593505859375,-0.997467041015625,-0.01190185546875,-0.0151312823655032,-0.0201113936039514,0.00522805153593455
1492617575.0,40.4673678366093,-79.9283642820721,3.27999997138977,0.024627685546875,-1.0006103515625,0.0121002197265625,-0.0106965865183033,0.00326157338702004,0.00521313783383011
1492617575.2,40.467385693334,-79.9283535789459,1.26999998092651,-0.0215301513671875,-0.993911743164062,0.1229248046875,-0.0132694664474288,-0.0382051763660587,0.014889733654633
1492617575.4,40.467385693334,-79.9283535789459,1.26999998092651,0.0103759765625,-0.975845336914062,0.144866943359375,-0.011697402455955,7.59000910672583e-05,-0.00118617194952129
1492617575.6,40.467385693334,-79.9283535789459,1.26999998092651,0.0093994140625,-0.96673583984375,0.219024658203125,-0.0116894129726848,0.00113956663044491,-0.00118883511061137
1492617575.8,40.467385693334,-79.9283535789459,1.26999998092651,0.0045013427734375,-0.95306396484375,0.23529052734375,-0.0148995873506663,-0.000966993791807771,-0.00121626566983919
1492617576.0,40.467385693334,-79.9283535789459,1.26999998092651,0.021697998046875,-0.9630126953125,0.248260498046875,-0.0114177705414967,0.0139003693096686,-0.014013553655997
1492617576.2,40.4673946448269,-79.9283482135186,0.600000023841858,0.023590087890625,-0.938827514648438,0.280868530273438,-0.0162532721327536,-0.0179758047258168,0.0105421231750787
1492617576.4,40.4673946448269,-79.9283482135186,0.600000023841858,0.012420654296875,-0.936630249023438,0.304946899414062,-0.0140865242698651,-0.0169265192563256,0.0084291711662098
1492617576.6,40.4673946448269,-79.9283482135186,0.600000023841858,0.0173187255859375,-0.929977416992188,0.3663330078125,-0.00553671190627474,-0.0127272468494887,0.00850587020560408
1492617576.8,40.4673946448269,-79.9283482135186,0.600000023841858,0.023590087890625,-0.9478759765625,0.389129638671875,0.00102877912909761,0.00105754126887047,0.0032064459524554
1492617577.0,40.4673946448269,-79.9283482135186,0.600000023841858,0.0037689208984375,-0.907669067382812,0.392440795898438,-0.0342072389376318,-0.0178607561667254,-0.000304132996487049
1492617577.2,40.4674024209268,-79.928343552609,1.57000005245209,-0.0123138427734375,-0.916152954101562,0.366409301757812,-0.0319233119867798,0.00659025843351008,0.00178857898809722
1492617577.4,40.4674024209268,-79.928343552609,1.57000005245209,0.0059814453125,-0.91778564453125,0.34515380859375,-0.00636442237307136,-0.00846938489866999,-0.00644058878024763
1492617577.6,40.4674024209268,-79.928343552609,1.57000005245209,0.00225830078125,-0.932876586914062,0.378616333007812,-0.019223762012628,-0.0349800882859728,-0.0150335443534973
1492617577.8,40.4674024209268,-79.928343552609,1.57000005245209,-0.00128173828125,-0.9105224609375,0.308761596679688,-0.0224459206155148,0.0139765357168449,0.0135949047326365
1492617578.0,40.4674024209268,-79.928343552609,1.57000005245209,-0.004547119140625,-0.947525024414062,0.348434448242188,-0.0130146019311082,0.0458188876064863,-0.0354365540968124
1492617578.2,40.467421981695,-79.9283318280976,3.21000003814697,0.013946533203125,-0.908721923828125,0.313613891601562,-0.0439637295911371,0.0598505507578958,-0.0229950644322892
1492617578.4,40.467421981695,-79.9283318280976,3.21000003814697,0.0064239501953125,-0.884841918945312,0.359970092773438,-0.0198490722365786,-0.0232792237206006,-0.0406592793105668
1492617578.6,40.467421981695,-79.9283318280976,3.21000003814697,0.0355224609375,-0.962753295898438,0.300537109375,-0.00388208992100851,-0.00636202552809029,-0.0309435350217397
1492617578.8,40.467421981695,-79.9283318280976,3.21000003814697,0.0795745849609375,-0.932479858398438,0.282989501953125,-0.0206613363690527,0.012905146010306,0.0381388636549158
1492617579.0,40.467421981695,-79.9283318280976,3.21000003814697,0.0513763427734375,-0.91143798828125,0.348846435546875,-0.0521545478397848,0.0162961490263039,0.00688746721116293
1492617579.2,40.4674533548245,-79.9283130233856,4.5,0.157638549804688,-0.944595336914062,0.363235473632812,0.00328101446297762,-0.115952968597614,0.0856299501098628
1492617579.4,40.4674533548245,-79.9283130233856,4.5,0.1158447265625,-0.947357177734375,0.3358154296875,-0.0759517563924058,0.107918211588845,-0.0714262467520342
1492617579.6,40.4674533548245,-79.9283130233856,4.5,0.0152435302734375,-0.965957641601562,0.299591064453125,-0.0463589766755543,0.0960263983733141,-0.0614966506276737
1492617579.8,40.4674533548245,-79.9283130233856,4.5,0.0590362548828125,-0.948486328125,0.394393920898438,0.00537372644756189,-0.0532136870053093,0.0449733339603861
1492617580.0,40.4674533548245,-79.9283130233856,4.5,-0.0133819580078125,-0.959732055664062,0.307449340820312,0.0365311133048349,0.0242262438042328,-0.010350641892702
1492617580.2,40.4675008996177,-79.9282845255545,5.86999988555908,0.036956787109375,-0.952682495117188,0.323760986328125,-0.0269985944990053,0.0288905041373976,-0.0344698266211136
1492617580.4,40.4675008996177,-79.9282845255545,5.86999988555908,0.0665435791015625,-0.935882568359375,0.259414672851562,-0.0421658295392246,0.0332474356807672,-0.0133120770248701
1492617580.6,40.4675008996177,-79.9282845255545,5.86999988555908,0.0523681640625,-0.931106567382812,0.297256469726562,-0.0724425090240084,0.0568411787261062,-0.0446031545688651
1492617580.8,40.4675008996177,-79.9282845255545,5.86999988555908,-0.032745361328125,-0.933792114257812,0.341354370117188,-0.0211127421738212,-0.0647449082092434,0.0287387039552631
1492617581.0,40.4675008996177,-79.9282845255545,5.86999988555908,0.0004730224609375,-0.896514892578125,0.285690307617188,-0.0380720183115548,0.0151379402682284,-0.011091000675744
1492617581.2,40.4675546792154,-79.9282522906495,6.94999980926514,-0.0362396240234375,-0.976837158203125,0.23724365234375,-1.7310547085515e-05,-0.0042549324736196,-0.0010554107399984
1492617581.4,40.4675546792154,-79.9282522906495,6.94999980926514,-0.0173797607421875,-0.9681396484375,0.254104614257812,-0.0363486867701645,-0.0369953022828357,-0.00987260447703274
1492617581.6,40.4675546792154,-79.9282522906495,6.94999980926514,-0.0059051513671875,-0.948959350585938,0.210540771484375,-0.0296332597654207,-0.045540853588682,0.0392640492154742
1492617581.8,40.4675546792154,-79.9282522906495,6.94999980926514,-0.015289306640625,-1.01312255859375,0.256607055664062,-0.0255522317109833,-0.0211100790127311,-0.0119354890574081
1492617582.0,40.4675546792154,-79.9282522906495,6.94999980926514,-0.0156707763671875,-0.938446044921875,0.229812622070312,-0.0380219508830613,-0.0965507747919507,0.00199231081148828
1492617582.2,40.4676167077057,-79.9282151114482,7.44000005722046,-0.02313232421875,-0.959213256835938,0.167022705078125,-0.0245194578402505,-0.00196780972945955,0.000820253615744405
1492617582.4,40.4676167077057,-79.9282151114482,7.44000005722046,-0.0550994873046875,-0.961776733398438,0.224716186523438,-0.114340424557571,-0.0173363797480888,0.0191321492711292
1492617582.6,40.4676167077057,-79.9282151114482,7.44000005722046,-0.0368804931640625,-0.92877197265625,0.246078491210938,-0.00019627497233884,-0.0606212695773647,0.0587962052823334
1492617582.8,40.4676167077057,-79.9282151114482,7.44000005722046,0.055023193359375,-0.991729736328125,0.30316162109375,0.0121701135494441,0.0765099549568864,0.00845686804154662
1492617583.0,40.4676167077057,-79.9282151114482,7.44000005722046,0.0679931640625,-1.025146484375,0.166793823242188,-0.0324407641865822,0.0502035160251927,-0.0143224803424461
1492617583.2,40.4676336002689,-79.9282049862298,7.51000022888184,0.0440216064453125,-0.905532836914062,0.165328979492188,0.00898790236290842,0.0371694730181269,-0.0138646829510615
1492617583.4,40.4676336002689,-79.9282049862298,7.51000022888184,-0.033538818359375,-0.924453735351562,0.25408935546875,-0.0499491841410902,0.00883423796801085,-0.00266662319949634
1492617583.6,40.4676336002689,-79.9282049862298,7.51000022888184,-0.0338897705078125,-0.982208251953125,0.273406982421875,0.0608742698809222,-0.0493209444399405,0.0380680235699197
1492617583.8,40.4676336002689,-79.9282049862298,7.51000022888184,0.0321807861328125,-0.932540893554688,0.331466674804688,-0.0341707536306977,0.068294901942319,-0.0335787329203731
1492617584.0,40.4676336002689,-79.9282049862298,7.51000022888184,0.063385009765625,-1.0789794921875,0.268814086914062,0.0493864582027564,0.0326522191771345,-0.0113069830401494
1492617584.2,40.4676336002689,-79.9282049862298,8.0600004196167,0.0385894775390625,-1.01307678222656,0.187469482421875,-0.052632851571563,0.197127982835992,-0.0149083757822636
1492617584.4,40.4676336002689,-79.9282049862298,8.0600004196167,-0.1046142578125,-1.01362609863281,0.299423217773438,0.0291174054622723,-0.0693290073935968,0.0132715969763009
1492617584.6,40.4676336002689,-79.9282049862298,8.0600004196167,0.0559539794921875,-0.806869506835938,0.255661010742188,-0.155770689003716,0.0722672730242812,-0.0945419523817039
1492617584.8,40.4676336002689,-79.9282049862298,8.0600004196167,0.074005126953125,-1.09375,0.229705810546875,0.0363886341865157,-0.0161960141693169,-0.0219761389992249
1492617585.0,40.4676336002689,-79.9282049862298,8.0600004196167,-0.0716400146484375,-0.896820068359375,0.347030639648438,-0.0842717379539224,-0.0249940331465027,-0.080764354798288
1492617585.2,40.4677551092296,-79.9281287620461,8.68000030517578,-0.0283966064453125,-1.055908203125,0.267913818359375,-0.0253112156323311,-0.0689859922451946,-0.055524245567062
1492617585.4,40.4677551092296,-79.9281287620461,8.68000030517578,0.156982421875,-0.974319458007812,0.260848999023438,0.108481203843288,0.118417990502591,-0.080227195206419
1492617585.6,40.4677551092296,-79.9281287620461,8.68000030517578,0.0344085693359375,-0.953338623046875,0.238143920898438,-0.0505031216478266,-0.0103043028897346,0.0272310884621692
1492617585.8,40.4677551092296,-79.9281287620461,8.68000030517578,0.0493011474609375,-0.936752319335938,0.295639038085938,0.00591967447102813,-0.0234368828571333,0.0214453709939721
1492617586.0,40.4677551092296,-79.9281287620461,8.68000030517578,0.0303192138671875,-0.878829956054688,0.303329467773438,0.0619576438123665,-0.0663491964499071,0.0274609192642431
1492617586.2,40.4678781269349,-79.9280558576969,9.22000026702881,0.1055908203125,-0.908538818359375,0.26318359375,-0.0669649192939334,0.0291570865625145,0.00670264383151143
1492617586.4,40.4678781269349,-79.9280558576969,9.22000026702881,0.101272583007812,-0.930511474609375,0.264541625976562,0.0110374711378334,0.00311509952706569,-0.026550384487545
1492617586.6,40.4678781269349,-79.9280558576969,9.22000026702881,-0.0377960205078125,-0.98516845703125,0.193527221679688,-0.0496314690230437,-0.0496687532783048,0.0198781006924604
1492617586.8,40.4678781269349,-79.9280558576969,9.22000026702881,0.0495452880859375,-0.93365478515625,0.293914794921875,0.0114569190095209,0.0297027682698718,-0.0426079142801777
1492617587.0,40.4678781269349,-79.9280558576969,9.22000026702881,0.01275634765625,-0.993133544921875,0.29638671875,0.0866688492511027,-0.0505553196051922,0.0202096642481753
1492617587.2,40.4679676790451,-79.9280031643473,10.3000001907349,-0.08935546875,-0.921554565429688,0.331497192382812,0.000320910911354548,0.0212704013103539,-0.0117799604497475
1492617587.4,40.4679676790451,-79.9280031643473,10.3000001907349,-0.00592041015625,-0.925552368164062,0.1868896484375,-0.108750449429495,-0.0131205957424934,0.00211907727937605
1492617587.6,40.4679676790451,-79.9280031643473,10.3000001907349,0.0386962890625,-0.94287109375,0.2933349609375,-0.0571626222696788,0.0056869141917552,-0.0219242073579683
1492617587.8,40.4679676790451,-79.9280031643473,10.3000001907349,0.05841064453125,-1.010498046875,0.23382568359375,0.033103891298012,0.038080806743152,0.0141014379719696
1492617588.0,40.4679676790451,-79.9280031643473,10.3000001907349,0.04949951171875,-0.949920654296875,0.176177978515625,-0.0182967156371714,-0.0605035578571832,0.0586105829543549
1492617588.2,40.4680552466803,-79.9279516386825,10.8299999237061,0.00469970703125,-0.993392944335938,0.156051635742188,0.101344731070202,-0.044265199426534,0.040601755031021
1492617588.4,40.4680552466803,-79.9279516386825,10.8299999237061,0.079498291015625,-0.981475830078125,0.16473388671875,0.026416427484714,0.0562001558517242,-0.031860994017272
1492617588.6,40.4680552466803,-79.9279516386825,10.8299999237061,0.05133056640625,-1.00473022460938,0.218307495117188,-0.0541588428761784,-0.00603232618513848,-0.0143997120140584
1492617588.8,40.4680552466803,-79.9279516386825,10.8299999237061,0.133956909179688,-1.01139831542969,0.178070068359375,-0.120596456274276,0.0231151729974518,-0.0460753500194609
1492617589.0,40.4680552466803,-79.9279516386825,10.8299999237061,0.000457763671875,-0.870101928710938,0.196929931640625,0.0819023235320789,0.0249873752437775,-0.056801497625864
1492617589.2,40.4681444345627,-79.9278991596481,11.0200004577637,0.073883056640625,-0.897247314453125,0.286331176757812,0.140484943294988,-0.128545459495945,0.0913320443198314
1492617589.4,40.4681444345627,-79.9278991596481,11.0200004577637,-0.0260467529296875,-0.968246459960938,0.2679443359375,-0.0280212483575957,-0.0370472339240923,0.0040735712033852
1492617589.6,40.4681444345627,-79.9278991596481,11.0200004577637,0.0331878662109375,-0.907424926757812,0.231491088867188,0.0365079438033512,-0.0289514905263604,0.0398984141871311
1492617589.8,40.4681444345627,-79.9278991596481,11.0200004577637,0.052825927734375,-0.966598510742188,0.221054077148438,-0.0434502721329698,-0.00184743484818797,-0.0164333018224429
1492617590.0,40.4681444345627,-79.9278991596481,11.0200004577637,0.082855224609375,-0.950927734375,0.197158813476562,-0.000981374861694199,-0.0701937357995455,0.0332237335470655
1492617590.2,40.4681444345627,-79.9278991596481,11.0200004577637,0.075103759765625,-0.915695190429688,0.243270874023438,-0.104209227138692,0.0166333052203079,-0.00217606892670375
1492617590.4,40.4682374505441,-79.9278466520622,11.1700000762939,-0.002838134765625,-0.955291748046875,0.181060791015625,0.0270643745779303,-0.00124502780961204,-0.0327723277422971
1492617590.6,40.4682374505441,-79.9278466520622,11.1700000762939,-0.097015380859375,-0.98150634765625,0.202865600585938,-0.0739972624683967,0.0462188944022162,-0.0147376671563895
1492617590.8,40.4682374505441,-79.9278466520622,11.1700000762939,0.0439453125,-0.932968139648438,0.217987060546875,0.0213713351156679,-0.0458713518799608,0.0472506030085129
1492617591.0,40.4682374505441,-79.9278466520622,11.1700000762939,-0.0363311767578125,-0.864959716796875,0.2457275390625,-0.0877711316262865,-0.139822082499667,0.11141467578401
1492617591.2,40.4683294974692,-79.9277950751396,11.2399997711182,0.13983154296875,-1.04627990722656,0.12835693359375,0.0163704512207171,0.0647813935161775,0.00639771188669735
1492617591.4,40.4683294974692,-79.9277950751396,11.2399997711182,0.0201873779296875,-0.952987670898438,0.213760375976562,-0.0107639644938823,0.0638876366543469,-0.0343939265300463
1492617591.6,40.4683294974692,-79.9277950751396,11.2399997711182,0.0520172119140625,-0.939834594726562,0.237716674804688,0.0121061976832822,0.0211929033226326,-0.0169901688063785
1492617591.8,40.4683294974692,-79.9277950751396,11.2399997711182,0.14190673828125,-0.974960327148438,0.165008544921875,-0.0124239128013287,0.0373100879236831,-0.00555455508557827
1492617592.0,40.4683294974692,-79.9277950751396,11.2399997711182,0.0247955322265625,-0.953170776367188,0.2042236328125,0.0241705837374502,0.00622940010580435,0.026886741733222
1492617592.2,40.4684239563437,-79.9277421467224,11.4499998092651,0.0171356201171875,-0.947555541992188,0.147918701171875,0.0795235880464201,-0.12920965187181,0.109901467652627
1492617592.4,40.4684239563437,-79.9277421467224,11.4499998092651,0.093109130859375,-0.94879150390625,0.2421875,0.0500850053566842,-0.0141557664582072,-0.0101128216073579
1492617592.6,40.4684239563437,-79.9277421467224,11.4499998092651,0.123855590820312,-0.8824462890625,0.205963134765625,-0.0863151814583402,0.0143917225307882,0.0118737037201183
1492617592.8,40.4684239563437,-79.9277421467224,11.4499998092651,0.0544281005859375,-1.01113891601562,0.252700805664062,-0.0358823672632916,-0.0731485130289884,0.0915158024350469
1492617593.0,40.4684239563437,-79.9277421467224,11.4499998092651,-0.0729827880859375,-0.983612060546875,0.277328491210938,-0.00931866697029626,-0.137149334029664,0.0610327279657819
1492617593.2,40.4685215722112,-79.9276883072855,11.5699996948242,0.0597991943359375,-0.944351196289062,0.153610229492188,-0.0454993082756768,0.107725132409814,-0.0401937587520209
1492617593.4,40.4685215722112,-79.9276883072855,11.5699996948242,0.1314697265625,-0.995712280273438,0.167633056640625,-0.0533471113759223,0.0109863384449039,0.0132862443622963
1492617593.6,40.4685215722112,-79.9276883072855,11.5699996948242,-0.0041046142578125,-0.922988891601562,0.186859130859375,-0.0107583718555931,-0.0882126837350216,0.0374349901788078
1492617593.8,40.4685215722112,-79.9276883072855,11.5699996948242,0.107711791992188,-0.9124755859375,0.1837158203125,-0.0241886932328627,0.0980120512820772,-0.046347791398976
1492617594.0,40.4685215722112,-79.9276883072855,11.5699996948242,0.17510986328125,-0.921112060546875,0.130477905273438,-0.0149864064022029,0.13836906180892,-0.0740792878299711
1492617594.2,40.4686170792349,-79.9276366137146,11.6300001144409,0.0764007568359375,-1.01356506347656,0.23748779296875,0.0688706773699941,-0.0121458787835244,0.0188621047365952
1492617594.4,40.4686170792349,-79.9276366137146,11.6300001144409,0.0562591552734375,-0.9390869140625,0.222579956054688,-0.0590822287834079,-0.0145030426643535,0.0292865161914924
1492617594.6,40.4686170792349,-79.9276366137146,11.6300001144409,0.0550537109375,-1.01620483398438,0.217147827148438,0.0497441207371541,0.0145733501171316,0.0303256816488413
1492617594.8,40.4686170792349,-79.9276366137146,11.6300001144409,0.09466552734375,-0.937225341796875,0.221969604492188,-0.0537101002325001,0.0556605994148741,-0.0134881119729243
1492617595.0,40.4686170792349,-79.9276366137146,11.6300001144409,0.1788330078125,-0.923828125,0.157058715820312,-0.0399551395183498,0.0459978520317396,-0.0122561336526537
1492617595.2,40.4687148452457,-79.9275836974575,11.5600004196167,0.2392578125,-1.004638671875,0.242202758789062,-0.0675763810802156,0.125950209013662,-0.0511289645039953
1492617595.4,40.4687148452457,-79.9275836974575,11.5600004196167,0.150802612304688,-0.915618896484375,0.228195190429688,-0.0584851480670121,0.101429153276758,-0.0285821100831664
1492617595.6,40.4687148452457,-79.9275836974575,11.5600004196167,0.069244384765625,-1.05117797851562,0.149246215820312,0.0398544720291448,0.055053665002445,-0.00293267299239526
1492617595.8,40.4687148452457,-79.9275836974575,11.5600004196167,0.144027709960938,-0.9720458984375,0.246597290039062,-0.0448660085684559,0.0619821448943952,-0.0336719435585259
1492617596.0,40.4687148452457,-79.9275836974575,11.5600004196167,0.09271240234375,-0.905670166015625,0.193069458007812,-0.0558076059070465,0.0716310438398613,-0.00715351700406184
1492617596.2,40.4688124000292,-79.9275340422487,11.5100002288818,0.17779541015625,-0.899978637695312,0.25091552734375,-0.0871948235663933,0.0643944362097889,0.0255964401850786
1492617596.4,40.4688124000292,-79.9275340422487,11.5100002288818,0.205596923828125,-0.887237548828125,0.2027587890625,-0.0326266528306698,0.143809899915952,-0.0273605180911471
1492617596.6,40.4688124000292,-79.9275340422487,11.5100002288818,0.0436553955078125,-0.9365234375,0.231185913085938,-0.0404819127819675,0.0513140541997558,-0.0485265234867698
1492617596.8,40.4688124000292,-79.9275340422487,11.5100002288818,0.0598297119140625,-0.982208251953125,0.185745239257812,-0.00812716869859481,0.0787579292330223,-0.0631930842420542
1492617597.0,40.4688124000292,-79.9275340422487,11.5100002288818,-0.049407958984375,-1.04502868652344,0.247848510742188,0.0467730982250617,-0.0779491272099653,0.0411961725863267
1492617597.2,40.4689074062183,-79.9274899283018,11.460000038147,0.0019683837890625,-1.09669494628906,0.268386840820312,-0.0175417094681339,-0.0594534734393649,0.00423868719097012
1492617597.4,40.4689074062183,-79.9274899283018,11.460000038147,0.0014801025390625,-0.938980102539062,0.168777465820312,-0.0304071743781977,0.0140218094553762,-0.0270028555567494
1492617597.6,40.4689074062183,-79.9274899283018,11.460000038147,0.096221923828125,-0.9368896484375,0.263992309570312,-0.0606492327688105,0.0578273472777626,-0.0498160260865862
1492617597.8,40.4689074062183,-79.9274899283018,11.460000038147,-0.0484466552734375,-0.858444213867188,0.256561279296875,-0.162836055375696,-0.0191542535081769,-0.017610951656476
1492617598.0,40.4689074062183,-79.9274899283018,11.460000038147,0.075164794921875,-1.01252746582031,0.1746826171875,0.0276377531606243,0.00939509969358154,0.00878843159726149
1492617598.2,40.4690031706945,-79.9274454622615,11.2299995422363,0.0462799072265625,-0.916061401367188,0.175064086914062,0.00371510972066054,-0.0659617065113006,0.0812405280011942
1492617598.4,40.4690031706945,-79.9274454622615,11.2299995422363,0.0348052978515625,-0.965499877929688,0.214492797851562,-0.0636008142049453,-0.031491613574078,0.0388800213862848
1492617598.6,40.4690031706945,-79.9274454622615,11.2299995422363,-0.0235748291015625,-0.99249267578125,0.23431396484375,0.0271037893620634,-0.0480410292200484,0.0163946859866368
1492617598.8,40.4690031706945,-79.9274454622615,11.2299995422363,-0.085601806640625,-0.9178466796875,0.256134033203125,-0.0139054293157397,0.0149845421894398,0.0126135298709423
1492617599.0,40.4690031706945,-79.9274454622615,11.2299995422363,0.034515380859375,-1.03834533691406,0.215194702148438,-0.060328854489674,0.0269834144807918,-0.0124156570019494
1492617599.2,40.4690958272841,-79.9274024392973,11.3400001525879,-0.0084228515625,-0.826522827148438,0.377487182617188,0.0574156225732363,-0.0110105732108236,0.000616255476244336
1492617599.4,40.4690958272841,-79.9274024392973,11.3400001525879,-0.293045043945312,-1.09953308105469,0.243820190429688,0.126325448411255,-0.341187154629976,0.15357624426549
1492617599.6,40.4690958272841,-79.9274024392973,11.3400001525879,-0.029144287109375,-0.974166870117188,0.254318237304688,0.00758361752010964,-0.0489861850909175,-0.0360472169347675
1492617599.8,40.4690958272841,-79.9274024392973,11.3400001525879,0.004119873046875,-0.971755981445312,0.228713989257812,-0.0429229662371341,0.0215468374315041,-0.0420774125910339
1492617600.0,40.4690958272841,-79.9274024392973,11.3400001525879,0.0716094970703125,-0.963897705078125,0.169479370117188,-0.00851199547611126,0.0255743359480309,-0.064125989571909
1492617600.2,40.4691914119059,-79.9273580567684,11.460000038147,0.0003509521484375,-0.916641235351562,0.229324340820312,-0.065067150701143,-0.0134050213469138,0.000434627889900932
1492617600.4,40.4691914119059,-79.9273580567684,11.460000038147,0.033905029296875,-1.08314514160156,0.139877319335938,0.0285578753172467,0.0402289124784099,-0.0413937791392106
1492617600.6,40.4691914119059,-79.9273580567684,11.460000038147,0.0803375244140625,-0.906982421875,0.23504638671875,-0.0916968973891723,0.0314359535072953,-0.0521982236816621
1492617600.8,40.4691914119059,-79.9273580567684,11.460000038147,0.083587646484375,-0.9307861328125,0.188385009765625,-0.0469134468145088,0.00136966374862775,0.00484721950005322
1492617601.0,40.4691914119059,-79.9273580567684,11.460000038147,-0.0565032958984375,-0.713775634765625,0.313446044921875,-0.162543906604114,0.0893368040311441,-0.057337858269406
1492617601.2,40.4692908409245,-79.9273118891819,11.6199998855591,0.02069091796875,-0.98309326171875,0.225494384765625,0.0143954509563143,0.0775581751619416,0.00207966249524288
1492617601.4,40.4692908409245,-79.9273118891819,11.6199998855591,0.15802001953125,-0.978805541992188,0.25836181640625,0.0343763496668518,0.00721956339909581,-0.0177923129267104
1492617601.6,40.4692908409245,-79.9273118891819,11.6199998855591,0.0851898193359375,-0.848373413085938,0.193496704101562,-0.0583163036539011,-0.110235161737214,0.0764548275223218
1492617601.8,40.4692908409245,-79.9273118891819,11.6199998855591,-0.0084686279296875,-0.935592651367188,0.212142944335938,-0.0353004665651093,-0.0678400340281335,0.0520581414083239
1492617602.0,40.4692908409245,-79.9273118891819,11.6199998855591,0.0449981689453125,-1.00299072265625,0.206130981445312,-0.0556403593905895,-0.0283578719193817,0.00376837294246212
1492617602.2,40.4693917769275,-79.9272650218617,11.7600002288818,0.044647216796875,-0.935348510742188,0.153091430664062,-0.00540408648398879,-0.06271637840693,0.0491523663429385
1492617602.4,40.4693917769275,-79.9272650218617,11.7600002288818,-0.044189453125,-0.959716796875,0.192550659179688,-0.012300608442858,-0.0626780288872329,0.00856552501402185
1492617602.6,40.4693917769275,-79.9272650218617,11.7600002288818,0.0582275390625,-0.981826782226562,0.1949462890625,0.0153904079395679,-0.0149866727183119,0.03431509696178
1492617602.8,40.4693917769275,-79.9272650218617,11.7600002288818,0.037872314453125,-0.968154907226562,0.1998291015625,0.0011193266061603,-0.0180927174976713,-0.0138026312976627
1492617603.0,40.4693917769275,-79.9272650218617,11.7600002288818,-0.0157318115234375,-0.9422607421875,0.172653198242188,0.0181742102270277,0.0402933609767899,-0.0606921096623608
1492617603.2,40.4694900931947,-79.9272193709559,11.710000038147,0.0052337646484375,-0.994125366210938,0.229827880859375,-0.0547362162005076,0.0354543972761159,-0.0273072548693455
1492617603.4,40.4694900931947,-79.9272193709559,11.710000038147,0.064178466796875,-0.957870483398438,0.17462158203125,-0.00904649190689016,-0.0488703375834991,0.011761850954335
1492617603.6,40.4694900931947,-79.9272193709559,11.710000038147,0.0130767822265625,-0.999664306640625,0.12335205078125,-0.0189348090343544,-0.00626242330332133,-0.020435766624723
1492617603.8,40.4694900931947,-79.9272193709559,11.710000038147,0.000396728515625,-0.987503051757812,0.245361328125,-0.0151094444445646,0.0309387413317775,-0.0460817416060771
1492617604.0,40.4694900931947,-79.9272193709559,11.710000038147,0.0087738037109375,-0.938262939453125,0.197555541992188,-0.0378182190596702,-0.0401724534633003,0.0178421140390949
1492617604.2,40.4695936730445,-79.9271712760261,11.5200004577637,0.061676025390625,-0.946853637695312,0.157318115234375,-0.033979006032212,0.0470151795681499,-0.0591109909231808
1492617604.4,40.4695936730445,-79.9271712760261,11.5200004577637,0.0143585205078125,-0.988433837890625,0.214996337890625,0.0144282078377223,-0.0383854723718571,0.0141075632424767
1492617604.6,40.4695936730445,-79.9271712760261,11.5200004577637,-0.03546142578125,-0.946823120117188,0.17901611328125,0.00425573142194662,-0.0915030192618145,0.0280012746494201
1492617604.8,40.4695936730445,-79.9271712760261,11.5200004577637,0.078094482421875,-0.931365966796875,0.168777465820312,-0.0192104462071776,-0.0371079539969461,-0.0171603448000346
1492617605.0,40.4695936730445,-79.9271712760261,11.5200004577637,0.0042877197265625,-0.9720458984375,0.155502319335938,0.006083458878068,-0.00748268371479564,0.0182072334245447
1492617605.2,40.4696860422129,-79.9271283865192,11.4300003051758,-0.0276336669921875,-0.979995727539062,0.292465209960938,-0.0527777275348633,-0.0315640515557281,0.0261964503786734
1492617605.4,40.4696860422129,-79.9271283865192,11.4300003051758,0.038360595703125,-0.93658447265625,0.218185424804688,-0.00336011034735297,0.0436276386615691,-0.0417293374365606
1492617605.6,40.4696860422129,-79.9271283865192,11.4300003051758,0.033538818359375,-0.955703735351562,0.150238037109375,0.00531646848412518,-0.051085022346009,0.0502983245599995
1492617605.8,40.4696860422129,-79.9271283865192,11.4300003051758,-0.0167694091796875,-0.931137084960938,0.247787475585938,-0.0293602857536876,-0.030652451514594,0.0275000677322672
1492617606.0,40.4696860422129,-79.9271283865192,11.4300003051758,-0.01763916015625,-0.964324951171875,0.245071411132812,-0.0644311878328321,-0.0314889504129879,0.021812088276076
1492617606.2,40.4697768271397,-79.9270862326187,11.3199996948242,0.0672607421875,-0.998626708984375,0.196502685546875,-0.0811920584693547,0.0143483130050199,-0.0509803601151688
1492617606.4,40.4697768271397,-79.9270862326187,11.3199996948242,0.065673828125,-0.91937255859375,0.158660888671875,0.0114372116174543,-0.104312291472878,0.040902425918091
1492617606.6,40.4697768271397,-79.9270862326187,11.3199996948242,-0.0186309814453125,-0.950088500976562,0.264129638671875,0.0416675520992708,0.010353038737683,-0.0816985917086878
1492617606.8,40.4697768271397,-79.9270862326187,11.3199996948242,0.11346435546875,-0.94110107421875,0.189666748046875,-0.056094694672557,0.0386456632103578,-0.081706314875849
1492617607.0,40.4697768271397,-79.9270862326187,11.3199996948242,-0.01983642578125,-0.959396362304688,0.303451538085938,-0.0454124892241402,-0.0433128530207217,0.0263021778739496
1492617607.2,40.4698722094154,-79.9270441338199,11.1999998092651,0.00421142578125,-0.93182373046875,0.185043334960938,-0.0536440538374661,-0.0421988527367416,0.00595695872628924
1492617607.4,40.4698722094154,-79.9270441338199,11.1999998092651,0.132797241210938,-0.997161865234375,0.186782836914062,-0.0230099781343936,0.0416334636373177,-0.00780652410334927
1492617607.6,40.4698722094154,-79.9270441338199,11.1999998092651,0.02288818359375,-1.00877380371094,0.264801025390625,-0.0409737986353051,-0.0486628773345819,0.0103682187558965
1492617607.8,40.4698722094154,-79.9270441338199,11.1999998092651,-0.01544189453125,-0.930679321289062,0.209732055664062,0.0050312439313777,0.0403831095055255,-0.0341715525790247
1492617608.0,40.4698722094154,-79.9270441338199,11.1999998092651,0.0085906982421875,-0.95599365234375,0.219650268554688,-0.0186844718918869,0.00756257854749801,-0.0311310215624813
1492617608.2,40.4699728616621,-79.9269997788635,11.0900001525879,0.004425048828125,-0.942901611328125,0.217926025390625,-0.0432950098414182,-0.0156673766929362,0.042245724371927
1492617608.4,40.4699728616621,-79.9269997788635,11.0900001525879,0.087127685546875,-0.933074951171875,0.17669677734375,-0.0221244770719423,0.0990632009643315,-0.0409982997173338
1492617608.6,40.4699728616621,-79.9269997788635,11.0900001525879,0.0453643798828125,-0.98626708984375,0.177352905273438,-0.0401322397308401,0.0321715186003752,-0.00689119563668904
1492617608.8,40.4699728616621,-79.9269997788635,11.0900001525879,-0.0102081298828125,-0.93597412109375,0.221923828125,-0.0554020064730274,-0.0102774049627248,-0.00373934448658026
1492617609.0,40.4699728616621,-79.9269997788635,11.0900001525879,0.045501708984375,-0.994125366210938,0.188888549804688,-0.0572345276191109,0.0195177749969727,-0.00916606783983472
1492617609.2,40.4700700177442,-79.9269569645804,11.1599998474121,0.0284576416015625,-0.959228515625,0.200653076171875,-0.0540030479524088,0.00885820641782156,-0.0176351864223957
1492617609.4,40.4700700177442,-79.9269569645804,11.1599998474121,0.0621795654296875,-0.927459716796875,0.215225219726562,-0.0166050757127531,0.0841316556805842,-0.0632937517312592
1492617609.6,40.4700700177442,-79.9269569645804,11.1599998474121,0.0402374267578125,-0.95355224609375,0.276321411132812,-0.0596963537307802,0.0312271616778331,-0.0561349084050172
1492617609.8,40.4700700177442,-79.9269569645804,11.1599998474121,0.070648193359375,-1.01103210449219,0.131301879882812,-0.0921421779234335,-0.0174788588664081,0.031088144668931
1492617610.0,40.4700700177442,-79.9269569645804,11.1599998474121,0.127243041992188,-1.02175903320312,0.187637329101562,0.0207217901257975,0.111547301206296,-0.0523201964595877
1492617610.2,40.4701675786228,-79.9269139719135,11.2700004577637,0.024688720703125,-1.0098876953125,0.209381103515625,-0.0214477678389531,0.00120508039326086,0.0115056548574693
1492617610.4,40.4701675786228,-79.9269139719135,11.2700004577637,0.028045654296875,-0.913314819335938,0.22589111328125,0.0307893379946241,-0.000199204449537927,0.00671303015976274
1492617610.6,40.4701675786228,-79.9269139719135,11.2700004577637,0.0441436767578125,-0.955535888671875,0.19171142578125,-0.0463581777272273,0.0109338741714293,-0.0303568406335952
1492617610.8,40.4701675786228,-79.9269139719135,11.2700004577637,-0.0261688232421875,-0.954696655273438,0.232208251953125,0.0246520832625365,-0.0714251814875981,0.0270920714532671
1492617611.0,40.4701675786228,-79.9269139719135,11.2700004577637,0.0333251953125,-0.983596801757812,0.26654052734375,-0.0279706482968842,-0.00300617623848144,0.0189132374295247
1492617611.2,40.4702646427829,-79.9268711981382,11.4099998474121,-0.0189666748046875,-1.0380859375,0.242523193359375,0.0137309922643395,-0.0245556768310756,-0.00512711773062055
1492617611.4,40.4702646427829,-79.9268711981382,11.4099998474121,0.0417633056640625,-0.966156005859375,0.195693969726562,0.00095953694075555,0.00744167103400842,0.0117189740607847
1492617611.6,40.4702646427829,-79.9268711981382,11.4099998474121,0.040985107421875,-0.958145141601562,0.249832153320312,-0.0655486502262293,0.017441840927256,-0.0252390439667899
1492617611.8,40.4702646427829,-79.9268711981382,11.4099998474121,-0.0157928466796875,-0.965042114257812,0.220428466796875,0.00640916347938469,-0.0532200785919255,0.0471163796895729
1492617612.0,40.4702646427829,-79.9268711981382,11.4099998474121,0.00274658203125,-0.988845825195312,0.274520874023438,0.0380879972780952,0.0103932524701432,0.0238198454218867
1492617612.2,40.4703630399217,-79.926827836952,11.3699998855591,-0.0287933349609375,-0.984512329101562,0.259429931640625,-0.0282524107402146,0.00762463020089686,-0.0322953555910639
1492617612.4,40.4703630399217,-79.926827836952,11.3699998855591,0.0348052978515625,-1.01852416992188,0.237655639648438,0.00924702793697313,-0.0213324529637527,0.0129442944783301
1492617612.6,40.4703630399217,-79.926827836952,11.3699998855591,-0.01251220703125,-0.930801391601562,0.1912841796875,0.0175504978997312,-0.00117152456352586,0.0396326307103412
1492617612.8,40.4703630399217,-79.926827836952,11.3699998855591,0.0205841064453125,-0.960006713867188,0.195266723632812,-0.0142929192543463,-0.030752320055472,0.0159262359508919
1492617613.0,40.4703630399217,-79.926827836952,11.3699998855591,0.0094146728515625,-0.9779052734375,0.2322998046875,0.0321598006915789,-0.0544536548088502,0.0324562105209047
1492617613.2,40.4704610950148,-79.926784626497,11.4700002670288,-0.0362396240234375,-0.962814331054688,0.207183837890625,-0.0089972234267237,-0.0169568792927525,0.0255407801182959
1492617613.4,40.4704610950148,-79.926784626497,11.4700002670288,-0.025299072265625,-0.975296020507812,0.249114990234375,-0.0876323809334934,0.0367308503865909,-0.0351108494954957
1492617613.6,40.4704610950148,-79.926784626497,11.4700002670288,-0.013214111328125,-0.9273681640625,0.248855590820312,-0.0866475439623821,0.0260872607739802,-0.0350732989241255
1492617613.8,40.4704610950148,-79.926784626497,11.4700002670288,-0.0770416259765625,-1.00285339355469,0.200775146484375,0.039289082929721,0.0337752742088209,-0.0508631810272054
1492617614.0,40.4704610950148,-79.926784626497,11.4700002670288,0.147628784179688,-0.97235107421875,0.198333740234375,-0.0923677476677633,-0.101503455471171,0.0792823056516589
1492617614.2,40.4705584910193,-79.926741706486,11.5500001907349,-0.059600830078125,-0.951904296875,0.08233642578125,-0.0176841885864532,-0.0881738015831065,-0.00101972438139134
1492617614.4,40.4705584910193,-79.926741706486,11.5500001907349,0.004486083984375,-0.955917358398438,0.193374633789062,-0.0483169327089806,-0.111368869413261,0.0456399231812329
1492617614.6,40.4705584910193,-79.926741706486,11.5500001907349,-0.0170745849609375,-0.954971313476562,0.217636108398438,0.014854846244353,0.0626564572824032,-0.0394595252394861
1492617614.8,40.4705584910193,-79.926741706486,11.5500001907349,-0.0174713134765625,-1.064453125,0.138229370117188,-0.0481986883565811,0.0396653875917492,-0.0357809008257596
1492617615.0,40.4705584910193,-79.926741706486,11.5500001907349,-0.0331878662109375,-0.864501953125,0.250015258789062,-0.0357167186434887,-0.0263562400440782,0.027423901325091
1492617615.2,40.4706578850355,-79.9266979060008,11.6599998474121,0.0624237060546875,-1.02267456054688,0.186279296875,-0.0861260970209446,0.0122606610265068,-0.00304585733872362
1492617615.4,40.4706578850355,-79.9266979060008,11.6599998474121,0.0487060546875,-0.936126708984375,0.170516967773438,-0.0328881752497155,-0.00936181017995555,-0.0141733433214017
1492617615.6,40.4706578850355,-79.9266979060008,11.6599998474121,0.01239013671875,-0.985641479492188,0.24102783203125,-0.00876685999243184,-0.0233439385350896,0.00530155478202074
1492617615.8,40.4706578850355,-79.9266979060008,11.6599998474121,0.042724609375,-0.927139282226562,0.22607421875,-0.0671353616036985,-0.020838969213761,-0.00809707497827692
1492617616.0,40.4706578850355,-79.9266979060008,11.6599998474121,0.146255493164062,-0.968536376953125,0.21337890625,0.0163813701811864,-0.10221238895335,0.0697354057759429
1492617616.2,40.4707585124399,-79.9266539703914,11.6599998474121,-0.0503082275390625,-0.98919677734375,0.2139892578125,0.04143958550996,-0.156623965816977,0.076529662348953
1492617616.4,40.4707585124399,-79.9266539703914,11.6599998474121,-0.025054931640625,-0.990219116210938,0.266265869140625,-0.0704568561152453,0.0610851922392565,-0.0317992086799821
1492617616.6,40.4707585124399,-79.9266539703914,11.6599998474121,-0.0125885009765625,-0.956298828125,0.224578857421875,-0.0204477508496284,0.0660794182314821,-0.0259690164215807
1492617616.8,40.4707585124399,-79.9266539703914,11.6599998474121,0.0452117919921875,-0.99658203125,0.219131469726562,-0.0113836820795437,-0.0297040998504168,0.0372775973583841
1492617617.0,40.4707585124399,-79.9266539703914,11.6599998474121,0.01092529296875,-0.961044311523438,0.16192626953125,-0.0091990910373517,0.00431059254040226,-0.0256944445131935
1492617617.2,40.4708577464561,-79.9266107057528,11.5600004196167,-0.0401153564453125,-0.933868408203125,0.229095458984375,-0.00731596983055667,-0.00314545956349259,-0.0117951404679609
1492617617.4,40.4708577464561,-79.9266107057528,11.5600004196167,0.100433349609375,-1.00944519042969,0.169662475585938,-0.037104491887529,0.0236432778416145,0.000625310223950605
1492617617.6,40.4708577464561,-79.9266107057528,11.5600004196167,0.030853271484375,-0.924972534179688,0.172653198242188,0.00146021122569045,0.0116878150760308,-0.0224057068830546
1492617617.8,40.4708577464561,-79.9266107057528,11.5600004196167,0.0058441162109375,-0.995071411132812,0.159027099609375,-0.0201606620841178,-0.00625256960728804,-0.00871998835724645
1492617618.0,40.4708577464561,-79.9266107057528,11.5600004196167,0.044952392578125,-0.978103637695312,0.126632690429688,-0.0677859718580049,-0.00275477383157796,-0.0284084719800933
1492617618.2,40.4709571002164,-79.9265673889075,11.3100004196167,0.061248779296875,-1.05084228515625,0.1097412109375,-0.0955667367691664,-0.0344748866271847,0.0385604420554753
1492617618.4,40.4709571002164,-79.9265673889075,11.3100004196167,0.05877685546875,-0.928436279296875,0.113632202148438,-0.0120555976225707,-0.0339595649562544,0.00636149289587228
1492617618.6,40.4709571002164,-79.9265673889075,11.3100004196167,0.0648651123046875,-1.03347778320312,0.0685577392578125,-0.0846752068590694,0.0207572101682956,-0.0265096381228668
1492617618.8,40.4709571002164,-79.9265673889075,11.3100004196167,0.117935180664062,-0.99884033203125,0.090240478515625,-0.00396331633425592,0.0627872184919261,0.0125919582661127
1492617619.0,40.4709571002164,-79.9265673889075,11.3100004196167,0.004150390625,-0.966476440429688,0.10260009765625,0.0064025055766595,-0.063858075566247,0.0418126943786801
1492617619.2,40.4710512115947,-79.9265263576672,10.6000003814697,0.04345703125,-1.01655578613281,0.122283935546875,-0.0516530746065229,-0.0411463714739422,0.016636767329725
1492617619.4,40.4710512115947,-79.9265263576672,10.6000003814697,-0.008880615234375,-0.9830322265625,0.0932159423828125,0.00563072149275453,-0.0404526180099766,0.0332146787993592
1492617619.6,40.4710512115947,-79.9265263576672,10.6000003814697,-0.0433349609375,-0.979507446289062,0.0215301513671875,-0.0688813300143545,0.00682701345441813,-0.0209809156998623
1492617619.8,40.4710512115947,-79.9265263576672,10.6000003814697,0.02093505859375,-1.02401733398438,0.094268798828125,-0.0468002624681805,-0.00501526496483722,-0.00686349876135221
1492617620.0,40.4710512115947,-79.9265263576672,10.6000003814697,0.0224609375,-0.9600830078125,0.0178985595703125,-0.0176397137962488,0.0224493827249319,-0.0215628163980446
1492617620.2,40.4711373472139,-79.9264884622771,9.36999988555908,-0.016326904296875,-1.00784301757812,0.034881591796875,-0.0411921778446916,-0.0465312831980825,0.0274199065834558
1492617620.4,40.4711373472139,-79.9264884622771,9.36999988555908,0.016754150390625,-1.02870178222656,0.0764312744140625,-0.0148409978066846,-0.000968059056243803,-0.00548051920727406
1492617620.6,40.4711373472139,-79.9264884622771,9.36999988555908,0.00311279296875,-1.01356506347656,0.0666961669921875,-0.0258012372729057,-0.0445094112984943,-0.00654658259163278
1492617620.8,40.4711373472139,-79.9264884622771,9.36999988555908,0.0170135498046875,-0.9827880859375,0.0976715087890625,-0.0423762192653408,0.00133690686721978,-0.0153643089608851
1492617621.0,40.4711373472139,-79.9264884622771,9.36999988555908,0.038726806640625,-1.00755310058594,0.0649871826171875,-0.0777262206267256,0.0504922026873573,-0.0510381507108236
1492617621.2,40.4712089736476,-79.9264568032921,7.71999979019165,-0.0050201416015625,-1.08061218261719,0.106582641601562,0.0390768289908417,-0.0289733284472991,0.00793835057730819
1492617621.4,40.4712089736476,-79.9264568032921,7.71999979019165,-0.0040283203125,-1.02310180664062,-0.01171875,-0.0051825114812942,-0.0318822993059926,-0.0276923479629709
1492617621.6,40.4712089736476,-79.9264568032921,7.71999979019165,0.0100250244140625,-1.02090454101562,0.0720672607421875,-0.00702302211064796,0.00855114394413543,-0.0267493226209739
1492617621.8,40.4712089736476,-79.9264568032921,7.71999979019165,0.031158447265625,-0.98028564453125,0.0832366943359375,-0.0695764150588651,-0.0389042561522045,0.00471912145162041
1492617622.0,40.4712089736476,-79.9264568032921,7.71999979019165,0.0287017822265625,-1.03269958496094,-0.0727996826171875,0.0310809541339878,-0.0140340599963906,-0.0220360601237516
1492617622.2,40.4712669884813,-79.9264311606537,5.96999979019165,-0.0152587890625,-1.03488159179688,-0.118881225585938,0.023390810170275,0.0168692612928889,0.0119243037808298
1492617622.4,40.4712669884813,-79.9264311606537,5.96999979019165,0.02056884765625,-1.03251647949219,-0.0804595947265625,-0.00373428448050911,0.0425706300249166,-0.0150750896665025
1492617622.6,40.4712669884813,-79.9264311606537,5.96999979019165,-0.0206756591796875,-1.05937194824219,-0.076873779296875,-0.0162101289230943,0.0437120608681246,-0.0365300480403989
1492617622.8,40.4712669884813,-79.9264311606537,5.96999979019165,0.0841522216796875,-1.02110290527344,-0.0691375732421875,-0.0192184356904478,-0.0147677608767074,-0.00442351057062161
1492617623.0,40.4712669884813,-79.9264311606537,5.96999979019165,0.0465545654296875,-1.0250244140625,-0.0793914794921875,-0.0135538920518493,0.0149781506028237,-0.012971991353667
1492617623.2,40.4713011059741,-79.9264160806736,3.14000010490417,0.04736328125,-1.04219055175781,-0.098419189453125,-0.010353038737683,0.0138934450908344,-0.0140026346955276
1492617623.4,40.4713011059741,-79.9264160806736,3.14000010490417,0.0223388671875,-1.05625915527344,-0.121231079101562,-0.0294569585012574,0.00657028472533449,-0.0227090409312147
1492617623.6,40.4713011059741,-79.9264160806736,3.14000010490417,0.0499114990234375,-1.03652954101562,-0.0349884033203125,-0.0115522601765457,-0.00205436246488712,-0.012907542855287
1492617623.8,40.4713011059741,-79.9264160806736,3.14000010490417,0.0419921875,-0.999237060546875,-0.001190185546875,-0.0201247094094018,0.00438489473481547,-0.00554842981507108
1492617624.0,40.4713011059741,-79.9264160806736,3.14000010490417,0.0434722900390625,-1.00090026855469,0.0945587158203125,-0.0159070611910433,-0.0030887342322739,-0.00655217522992195
1492617624.2,40.471315190544,-79.9264098552738,0.449999988079071,0.03887939453125,-0.981781005859375,0.223297119140625,-0.0128007500955749,-0.00310790899212247,-0.000123038042361661
1492617624.4,40.471315190544,-79.9264098552738,0.449999988079071,0.0442352294921875,-0.945541381835938,0.192367553710938,-0.0137775975834159,-0.00310258266994231,-0.0065303373089833
1492617624.6,40.471315190544,-79.9264098552738,0.449999988079071,0.044189453125,-0.983810424804688,0.222000122070312,-0.0127328394877778,8.22916776834485e-05,-0.00332921767870806
1492617624.8,40.471315190544,-79.9264098552738,0.449999988079071,0.0334930419921875,-0.972579956054688,0.188064575195312,-0.0139427135710008,-0.00948245137733614,0.00201414873242693
1492617625.0,40.471315190544,-79.9264098552738,0.449999988079071,0.035003662109375,-0.95953369140625,0.202728271484375,-0.0138961082519245,-0.00522805153593455,0.000937432703707892
1492617625.2,40.4713129367684,-79.9264108514458,0.0,0.032440185546875,-0.97161865234375,0.204452514648438,-0.0138668134799336,-0.00522858416815257,-0.00119469406500955
1492617625.4,40.4713129367684,-79.9264108514458,0.0,0.0392608642578125,-0.9725341796875,0.201980590820312,-0.0149674979584633,-0.00415719446161369,0.00198991396650721
1492617625.6,40.4713129367684,-79.9264108514458,0.0,0.0305938720703125,-0.965316772460938,0.202911376953125,-0.018148377564454,-0.00626428751608438,-0.000169643361438047
1492617625.8,40.4713129367684,-79.9264108514458,0.0,0.036285400390625,-0.96734619140625,0.200363159179688,-0.0149395347670175,-0.00628532648869601,-0.00120294986438879
1492617626.0,40.4713129367684,-79.9264108514458,0.0,0.0352020263671875,-0.967453002929688,0.2001953125,-0.018148377564454,-0.00626428751608438,-0.000169643361438047
1492617626.2,40.4713149296666,-79.926409970582,0.0,0.0346221923828125,-0.967391967773438,0.201812744140625,-0.0160415508260923,-0.00734153617702144,0.000920921104949401
1492617626.4,40.4713149296666,-79.926409970582,0.0,0.03369140625,-0.966506958007812,0.20269775390625,-0.0202778411720813,-0.00625043907841597,-0.000191481282376697
1492617626.6,40.4713149296666,-79.926409970582,0.0,0.03680419921875,-0.968902587890625,0.20440673828125,-0.0202552043028157,-0.00518703885514733,-0.0012602078278255
1492617626.8,40.4713149296666,-79.926409970582,0.0,0.0341949462890625,-0.9635009765625,0.204391479492188,-0.0192131093682677,-0.00625736329725018,-0.000180562321907372
1492617627.0,40.4713149296666,-79.926409970582,0.0,0.0362091064453125,-0.964447021484375,0.20458984375,-0.0170836457606403,-0.00627121173491859,-0.000158724400968723
1492617627.2,40.4713149576625,-79.9264099582078,0.0,0.035614013671875,-0.967437744140625,0.205734252929688,-0.0224152942629789,-0.00730025718012521,-0.000210656042225268
1492617627.4,40.4713149576625,-79.9264099582078,0.0,0.0325469970703125,-0.962112426757812,0.205230712890625,-0.0192064514655425,-0.00732129615273683,-0.00124396254517601
1492617627.6,40.4713149576625,-79.9264099582078,0.0,0.0361328125,-0.966171264648438,0.203536987304688,-0.0192357462375333,-0.00732076352051882,0.000888164223541426
1492617627.8,40.4713149576625,-79.9264099582078,0.0,0.033203125,-0.966827392578125,0.202407836914062,-0.0181643565309945,-0.00839162059483968,-0.000164317039257889
1492617628.0,40.4713149576625,-79.9264099582078,0.0,0.0347442626953125,-0.963241577148438,0.210235595703125,-0.0149541821530129,-0.006285060172587,-0.000136886480030073
1492617628.2,40.4713149856777,-79.926409945825,0.0,0.0346527099609375,-0.96295166015625,0.203384399414062,-0.0192064514655425,-0.00732129615273683,-0.00124396254517601
1492617628.4,40.4713149856777,-79.926409945825,0.0,0.0363006591796875,-0.964492797851562,0.2027587890625,-0.0203084675246172,-0.00837750584106226,0.00087990842416218
1492617628.6,40.4713149856777,-79.926409945825,0.0,0.0319366455078125,-0.965057373046875,0.199783325195312,-0.0213439045564401,-0.00837111425444607,-0.00126313730502458
1492617628.8,40.4713149856777,-79.926409945825,0.0,0.03460693359375,-0.968490600585938,0.203369140625,-0.0213652098451607,-0.00730691508285041,0.000866326302602776
1492617629.0,40.4713149856777,-79.926409945825,0.0,0.0343475341796875,-0.967529296875,0.203109741210938,-0.0202858306553516,-0.00731410561779362,-0.000188818121286618
1492617629.2,40.4713150137122,-79.9264099334337,0.0,0.0360107421875,-0.970077514648438,0.20330810546875,-0.0202924885580768,-0.00625017276230696,0.000874582101982022
1492617629.4,40.4713150137122,-79.9264099334337,0.0,0.0329742431640625,-0.96881103515625,0.205581665039062,-0.0181403880811837,-0.00520062097670674,-0.000172306522528127
1492617629.6,40.4713150137122,-79.9264099334337,0.0,0.0362091064453125,-0.967315673828125,0.2017822265625,-0.0181710144337196,-0.00732768773935302,0.000899083184010751
1492617629.8,40.4713150137122,-79.9264099334337,0.0,0.035247802734375,-0.964675903320312,0.20318603515625,-0.022384667910443,-0.00517319041747892,-0.00128204574876415
1492617630.0,40.4713150137122,-79.9264099334337,0.0,0.03497314453125,-0.966552734375,0.199691772460938,-0.0170836457606403,-0.00627121173491859,-0.000158724400968723
1492617630.2,40.4713150566526,-79.926409914454,0.0,0.0350494384765625,-0.965118408203125,0.2047119140625,-0.0192503936235288,-0.00732049720440981,0.00195422760790014
1492617630.4,40.4713150566526,-79.926409914454,0.0,0.0346221923828125,-0.96484375,0.205307006835938,-0.0170689983746449,-0.0062714780510276,-0.00122478778532744
1492617630.6,40.4713150566526,-79.926409914454,0.0,0.0326995849609375,-0.964035034179688,0.201614379882812,-0.0192277567542631,-0.00625709698114117,0.000885501062451347
1492617630.8,40.4713150566526,-79.926409914454,0.0,0.0343475341796875,-0.965850830078125,0.203338623046875,-0.0213439045564401,-0.00837111425444607,-0.00126313730502458
1492617631.0,40.4713150566526,-79.926409914454,0.0,0.0332794189453125,-0.966567993164062,0.206268310546875,-0.0160335613428221,-0.00627786963764379,0.000918257943859321
1492617631.2,40.4713150847192,-79.9264099020485,0.0,0.0337066650390625,-0.965408325195312,0.2044677734375,-0.0213212676871744,-0.00730771403117743,-0.00233186385047338
1492617631.4,40.4713150847192,-79.9264099020485,0.0,0.0330657958984375,-0.963088989257812,0.203964233398438,-0.0170916352439105,-0.00733487827429624,-0.000156061239878643
1492617631.6,40.4713150847192,-79.9264099020485,0.0,0.034637451171875,-0.96429443359375,0.206283569335938,-0.0160042665708312,-0.0062784022698618,-0.00121386882485812
1492617631.8,40.4713150847192,-79.9264099020485,0.0,0.034423828125,-0.965362548828125,0.20269775390625,-0.0202711832693561,-0.00731437193390263,-0.00125488150564534
1492617632.0,40.4713150847192,-79.9264099020485,0.0,0.03460693359375,-0.964889526367188,0.208328247070312,-0.0202778411720813,-0.00625043907841597,-0.000191481282376697
1492617632.2,40.4713161623926,-79.9264094257154,0.0,0.0330352783203125,-0.966842651367188,0.207427978515625,-0.0202711832693561,-0.00731437193390263,-0.00125488150564534
1492617632.4,40.4713161623926,-79.9264094257154,0.0,0.0345306396484375,-0.964279174804688,0.203720092773438,-0.0213585519424355,-0.00837084793833706,-0.000197073920665864
1492617632.6,40.4713161623926,-79.9264094257154,0.0,0.0357666015625,-0.964111328125,0.20367431640625,-0.0224219521657041,-0.00623632432463855,0.000852744181043372
1492617632.8,40.4713161623926,-79.9264094257154,0.0,0.034393310546875,-0.963180541992188,0.20166015625,-0.018149709144999,-0.00839188691094869,-0.00123038042361661
1492617633.0,40.4713161623926,-79.9264094257154,0.0,0.0355377197265625,-0.96295166015625,0.204498291015625,-0.018148377564454,-0.00626428751608438,-0.000169643361438047
1492617633.2,40.4713151473592,-79.9264098743616,0.0,0.034271240234375,-0.965240478515625,0.202041625976562,-0.0192210988515379,-0.00732102983662783,-0.000177899160817293
1492617633.4,40.4713151473592,-79.9264098743616,0.0,0.0364837646484375,-0.9639892578125,0.205978393554688,-0.0213505624591653,-0.00730718139895941,-0.000199737081755943
1492617633.6,40.4713151473592,-79.9264098743616,0.0,0.0341796875,-0.963211059570312,0.205978393554688,-0.0160269034400969,-0.00734180249313044,-0.000145142279409318
1492617633.8,40.4713151473592,-79.9264098743616,0.0,0.0349273681640625,-0.97027587890625,0.201583862304688,-0.0213345834926248,-0.00517984832020412,-0.000205063403936101
1492617634.0,40.4713151473592,-79.9264098743616,0.0,0.034149169921875,-0.963394165039062,0.201995849609375,-0.017106282629906,-0.00733461195818723,0.000910002144480076
1492617634.2,40.4713151754926,-79.9264098619266,0.0,0.0332183837890625,-0.96478271484375,0.202377319335938,-0.0224073047797087,-0.00623659064074756,-0.000213319203315347
1492617634.4,40.4713151754926,-79.9264098619266,0.0,0.0340576171875,-0.967544555664062,0.199447631835938,-0.0160269034400969,-0.00734180249313044,-0.000145142279409318
1492617634.6,40.4713151754926,-79.9264098619266,0.0,0.0358428955078125,-0.965560913085938,0.2039794921875,-0.0128473554146513,-0.00736230883352405,0.000953677986357375
1492617634.8,40.4713151754926,-79.9264098619266,0.0,0.036590576171875,-0.966064453125,0.201919555664062,-0.0170836457606403,-0.00627121173491859,-0.000158724400968723
1492617635.0,40.4713151754926,-79.9264098619266,0.0,0.0346221923828125,-0.966110229492188,0.206100463867188,-0.0149541821530129,-0.006285060172587,-0.000136886480030073
1492617635.2,40.4713152036354,-79.9264098494874,0.0,0.0339202880859375,-0.965835571289062,0.204910278320312,-0.0149701611195534,-0.0084123932513423,-0.000131560157849914
1492617635.4,40.4713152036354,-79.9264098494874,0.0,0.0345611572265625,-0.964950561523438,0.209060668945312,-0.0160348929233671,-0.00840546903250809,-0.000142479118319239
1492617635.6,40.4713152036354,-79.9264098494874,0.0,0.0340728759765625,-0.9661865234375,0.208816528320312,-0.0149475242502877,-0.00734899302807366,-0.00120028670329871
1492617635.8,40.4713152036354,-79.9264098494874,0.0,0.03564453125,-0.962753295898438,0.200592041015625,-0.0192051198849974,-0.00519369675787253,-0.000183225482997452
1492617636.0,40.4713152036354,-79.9264098494874,0.0,0.0338134765625,-0.963211059570312,0.205276489257812,-0.0181417196617288,-0.00732822037157104,-0.00123304358470669
1492617636.2,40.4713152318069,-79.9264098370356,0.0,0.033905029296875,-0.965362548828125,0.205902099609375,-0.0170916352439105,-0.00733487827429624,-0.000156061239878643
1492617636.4,40.4713152318069,-79.9264098370356,0.0,0.0360260009765625,-0.962600708007812,0.199295043945312,-0.0192290883348081,-0.00838469637600547,-0.000175235999727214
1492617636.6,40.4713152318069,-79.9264098370356,0.0,0.0352325439453125,-0.967666625976562,0.202438354492188,-0.0191838145962768,-0.00625789592946819,-0.00231268909062481
1492617636.8,40.4713152318069,-79.9264098370356,0.0,0.0345001220703125,-0.96368408203125,0.20361328125,-0.0234813576473377,-0.0094209323561553,-0.00128231206487315
1492617637.0,40.4713152318069,-79.9264098370356,0.0,0.0338592529296875,-0.960494995117188,0.200347900390625,-0.0192144409488127,-0.00838496269211448,-0.00124129938408593
1492617637.2,40.4713152599892,-79.9264098245789,0.0,0.0355072021484375,-0.964691162109375,0.209396362304688,-0.0202778411720813,-0.00625043907841597,-0.000191481282376697
1492617637.4,40.4713152599892,-79.9264098245789,0.0,0.0324859619140625,-0.963882446289062,0.201065063476562,-0.0170849773411853,-0.00839881112978289,-0.00121946146314728
1492617637.6,40.4713152599892,-79.9264098245789,0.0,0.034332275390625,-0.964935302734375,0.210235595703125,-0.0128180606426604,-0.00736284146574207,-0.00117844878236006
1492617637.8,40.4713152599892,-79.9264098245789,0.0,0.034454345703125,-0.964599609375,0.202362060546875,-0.0181550354671792,-0.00520035466059773,0.000893756861830592
1492617638.0,40.4713152599892,-79.9264098245789,0.0,0.034210205078125,-0.964019775390625,0.20245361328125,-0.0170610088913746,-0.00520781151164995,-0.00122745094641752
1492617638.2,40.4713152882015,-79.9264098121091,0.0,0.0337982177734375,-0.9630126953125,0.20452880859375,-0.0181710144337196,-0.00732768773935302,0.000899083184010751
1492617638.4,40.4713152882015,-79.9264098121091,0.0,0.0344085693359375,-0.960861206054688,0.200393676757812,-0.011798602577378,-0.00949656613111356,0.000969923269006859
1492617638.6,40.4713152882015,-79.9264098121091,0.0,0.0341339111328125,-0.967926025390625,0.205307006835938,-0.0170756562773701,-0.00520754519554094,-0.000161387562058802
1492617638.8,40.4713152882015,-79.9264098121091,0.0,0.03460693359375,-0.96209716796875,0.20672607421875,-0.021374530908976,-0.0104981810170924,-0.000191747598485705
1492617639.0,40.4713152882015,-79.9264098121091,0.0,0.0352325439453125,-0.9608154296875,0.197052001953125,-0.0192210988515379,-0.00732102983662783,-0.000177899160817293
1492617639.2,40.4713153164354,-79.9264097996296,0.0,0.0352630615234375,-0.964309692382812,0.200225830078125,-0.0160189139568266,-0.0062781359537528,-0.000147805440499398
1492617639.4,40.4713153164354,-79.9264097996296,0.0,0.03656005859375,-0.965789794921875,0.20111083984375,-0.0192051198849974,-0.00519369675787253,-0.000183225482997452
1492617639.6,40.4713153164354,-79.9264097996296,0.0,0.0344085693359375,-0.968292236328125,0.202835083007812,-0.0234880155500629,-0.00835699950066865,-0.000218911841604513
1492617639.8,40.4713153164354,-79.9264097996296,0.0,0.0349884033203125,-0.965652465820312,0.206558227539062,-0.0128247185453856,-0.00629890861025541,-0.000115048559091423
1492617640.0,40.4713153164354,-79.9264097996296,0.0,0.0342559814453125,-0.968826293945312,0.211715698242188,-0.017106282629906,-0.00733461195818723,0.000910002144480076
1492617640.2,40.4713153446829,-79.9264097871442,0.0,0.033447265625,-0.966629028320312,0.206375122070312,-0.0170982931466357,-0.00627094541880958,0.000907338983389996
1492617640.4,40.4713153446829,-79.9264097871442,0.0,0.032684326171875,-0.967086791992188,0.204833984375,-0.0181563670477242,-0.00732795405546203,-0.000166980200347968
1492617640.6,40.4713153446829,-79.9264097871442,0.0,0.0318603515625,-0.968856811523438,0.2032470703125,-0.0160495403093625,-0.00840520271639908,0.00092358426603948
1492617640.8,40.4713153446829,-79.9264097871442,0.0,0.03460693359375,-0.9583740234375,0.216094970703125,-0.0234334207477162,-0.00303893311988942,-0.00129829103141363
1492617641.0,40.4713153446829,-79.9264097871442,0.0,0.04498291015625,-0.944046020507812,0.280715942382812,-0.00108337393144423,-0.0063756076496497,-0.00212706676264629
1492617641.2,40.4713153729296,-79.9264097746591,0.0,0.040252685546875,-0.937713623046875,0.353927612304688,0.00752902271776301,0.00420539767734412,-0.0031324100741512
1492617641.4,40.4713153729296,-79.9264097746591,0.0,0.0289459228515625,-0.910690307617188,0.41607666015625,-0.0191971304017272,-0.00413003021849488,-0.000185888644087531
1492617641.6,40.4713153729296,-79.9264097746591,0.0,0.0353546142578125,-0.919464111328125,0.426651000976562,-0.0257000371514827,-0.0115330854166971,0.00403149325816195
1492617641.8,40.4713153729296,-79.9264097746591,0.0,0.0364990234375,-0.9268798828125,0.407058715820312,-0.0235093208387835,-0.00729280032907299,0.00191055176602285
1492617642.0,40.4713153729296,-79.9264097746591,0.0,0.039276123046875,-0.916748046875,0.4041748046875,-0.0150607085966161,-0.0126659941444169,0.00414334602394528
1492617642.2,40.4713326938775,-79.9264021187757,1.42999994754791,0.0487060546875,-0.90179443359375,0.402053833007812,-0.00667867538170071,-0.0191017892347023,0.0106430569803927
1492617642.4,40.4713326938775,-79.9264021187757,1.42999994754791,-0.0102996826171875,-0.899978637695312,0.481002807617188,-0.0250182679124224,0.0363260499008988,-0.0195417434467834
1492617642.6,40.4713326938775,-79.9264021187757,1.42999994754791,0.0708770751953125,-0.929183959960938,0.415054321289062,0.027392209708119,-0.106543487834146,0.041071536647311
1492617642.8,40.4713326938775,-79.9264021187757,1.42999994754791,0.0037689208984375,-0.906112670898438,0.508575439453125,0.0124790402358933,0.0201223125644207,-0.0447051536386151
1492617643.0,40.4713326938775,-79.9264021187757,1.42999994754791,0.0403289794921875,-0.905502319335938,0.492019653320312,-0.0201838315856015,-0.0711322337676894,0.0351619821884252
1492617643.2,40.4713583702919,-79.9263907697642,3.42000007629395,0.059539794921875,-0.950347900390625,0.420333862304688,-0.0793675268065415,0.0302971858251774,-0.0200826314641785
1492617643.4,40.4713583702919,-79.9263907697642,3.42000007629395,0.106292724609375,-0.889602661132812,0.436019897460938,-0.0529750677716382,0.0716044122289605,-0.0583027215323417
1492617643.6,40.4713583702919,-79.9263907697642,3.42000007629395,-0.013092041015625,-0.939697265625,0.458633422851562,-0.00883210743913878,-0.0105770105853587,0.0169962940768857
1492617643.8,40.4713583702919,-79.9263907697642,3.42000007629395,0.06878662109375,-0.914199829101562,0.343093872070312,0.05848035437705,0.0240882920597667,0.019728431039198
1492617644.0,40.4713583702919,-79.9263907697642,3.42000007629395,-0.0017242431640625,-0.924560546875,0.418548583984375,-0.0505630427723534,-0.024132766849971,0.0240675194032641
1492617644.2,40.4713995235159,-79.926372579981,5.5,0.0802764892578125,-0.955429077148438,0.338592529296875,-0.0572204128653335,-0.0208948955966527,0.0453152838443523
1492617644.4,40.4713995235159,-79.926372579981,5.5,-0.0403900146484375,-0.935882568359375,0.363327026367188,0.0210829147696123,0.000929176904328646,0.0162066668136772
1492617644.6,40.4713995235159,-79.926372579981,5.5,-0.0302734375,-0.943191528320312,0.330215454101562,-0.0408038889577581,-0.0624830854954391,0.0679811815659077
1492617644.8,40.4713995235159,-79.926372579981,5.5,-0.0155792236328125,-0.934371948242188,0.298202514648438,0.0119551964494747,-0.0373015658081949,0.0396685833850573
1492617645.0,40.4713995235159,-79.926372579981,5.5,0.0277557373046875,-0.950958251953125,0.350112915039062,-0.00475693833909954,-0.0233671080365733,0.0234683081579963
1492617645.2,40.4714536936946,-79.9263486366855,6.94000005722046,0.01611328125,-0.91680908203125,0.25860595703125,-0.00129642681865057,0.00426638406630694,0.0191675693136273
1492617645.4,40.4714536936946,-79.9263486366855,6.94000005722046,-0.0571746826171875,-0.898223876953125,0.265670776367188,-0.0388603139942182,-0.0156982693615811,0.0294966396014996
1492617645.6,40.4714536936946,-79.9263486366855,6.94000005722046,0.0059051513671875,-0.9862060546875,0.21734619140625,0.0381931921411534,-0.00875727261250756,0.00574470478740992
1492617645.8,40.4714536936946,-79.9263486366855,6.94000005722046,0.0500640869140625,-0.97735595703125,0.265731811523438,-0.0137581565074584,-0.0233029258543023,0.0585610481580794
1492617646.0,40.4714536936946,-79.9263486366855,6.94000005722046,-0.01806640625,-0.9249267578125,0.362350463867188,0.0276065941758704,-0.021442441516773,0.0717743219065075
1492617646.2,40.4715149245571,-79.9263215725577,7.53999996185303,-0.02606201171875,-0.93804931640625,0.346389770507812,-0.0143927877952242,-0.0147933272231722,0.0318772392999215
1492617646.4,40.4715149245571,-79.9263215725577,7.53999996185303,-0.0449981689453125,-0.938613891601562,0.283111572265625,-0.0582305498668006,-0.00386797516723109,0.0505920712282353
1492617646.6,40.4715149245571,-79.9263215725577,7.53999996185303,-0.0919647216796875,-0.93963623046875,0.23895263671875,-0.057705907132055,-0.0198346911666922,0.00372522973280284
1492617646.8,40.4715149245571,-79.9263215725577,7.53999996185303,-0.055267333984375,-0.912185668945312,0.276885986328125,-0.0261855314182041,0.00122904884307157,-0.0311914753192261
1492617647.0,40.4715149245571,-79.9263215725577,7.53999996185303,-0.058197021484375,-0.915252685546875,0.293365478515625,-0.0442385678156332,-0.0794913637972301,-0.0013140036818451
1492617647.2,40.4715149245571,-79.9263215725577,7.53999996185303,-0.004058837890625,-0.90234375,0.2945556640625,-0.0651385234183571,-0.0176714054132208,-0.0741900753313184
1492617647.4,40.4715477977127,-79.9263070425765,8.27000045776367,-0.331573486328125,-0.743331909179688,0.363861083984375,-0.118486433742606,-0.224716733832559,0.130511138696532
1492617647.6,40.4715477977127,-79.9263070425765,8.27000045776367,0.0561676025390625,-1.02667236328125,0.1905517578125,0.0991199262955502,0.0302047741353517,0.0105328021112634
1492617647.8,40.4715477977127,-79.9263070425765,8.27000045776367,-0.08453369140625,-1.09178161621094,0.385421752929688,0.198929344997322,-0.12679656160809,0.101521831282693
1492617648.0,40.4715477977127,-79.9263070425765,8.27000045776367,-0.0186309814453125,-0.974288940429688,0.298553466796875,-0.00333294610423417,0.0680823816873307,-0.107897438932342
1492617648.2,40.4716635595925,-79.9262558836732,9.27000045776367,-0.04840087890625,-0.971771240234375,0.284713745117188,-0.0582747583408959,0.0514261732816481,-0.0710994768862815
1492617648.4,40.4716635595925,-79.9262558836732,9.27000045776367,0.131072998046875,-0.966903686523438,0.297683715820312,-0.0894875389488426,0.0420587704634034,-0.0522030173716242
1492617648.6,40.4716635595925,-79.9262558836732,9.27000045776367,0.085235595703125,-1.02574157714844,0.2265625,0.0706896163945183,0.0973936652769608,-0.0539045109920758
1492617648.8,40.4716635595925,-79.9262558836732,9.27000045776367,-0.0685272216796875,-1.01132202148438,0.35211181640625,0.0187145656122048,-0.0809537055517927,0.0665057903220038
1492617649.0,40.4716635595925,-79.9262558836732,9.27000045776367,0.0184173583984375,-0.903289794921875,0.274887084960938,-0.0466271569973253,0.00242827028193425,-0.0154106479638525
1492617649.2,40.4717445776022,-79.9262200792101,9.78999996185303,-0.0332489013671875,-0.940780639648438,0.256195068359375,-0.023021429727081,0.0745994031908636,-0.0665334871973406
1492617649.4,40.4717445776022,-79.9262200792101,9.78999996185303,-0.089263916015625,-0.961212158203125,0.310760498046875,0.0153784237146626,-0.0458369971018988,0.0184013778680115
1492617649.6,40.4717445776022,-79.9262200792101,9.78999996185303,-4.57763671875e-05,-1.01333618164062,0.278579711914062,-0.0706984048261155,-0.0484705971038782,0.00366610755660308
1492617649.8,40.4717445776022,-79.9262200792101,9.78999996185303,0.0088653564453125,-1.00991821289062,0.253341674804688,0.0348338807421274,-0.0268182984932069,0.00788934841325073
1492617650.0,40.4717445776022,-79.9262200792101,9.78999996185303,-0.074188232421875,-1.00900268554688,0.277297973632812,-0.0505332153681445,0.0279810346251355,-0.0272449368998376
1492617650.2,40.4718303637647,-79.926182167547,10.3100004196167,0.0855865478515625,-1.03189086914062,0.16168212890625,0.00890720858187902,0.0882214721666189,-0.0577120324025621
1492617650.4,40.4718303637647,-79.926182167547,10.3100004196167,0.0878143310546875,-0.966720581054688,0.225906372070312,-0.0789781726551719,0.0951701920828536,-0.0906161866188181
1492617650.6,40.4718303637647,-79.926182167547,10.3100004196167,-0.0538177490234375,-0.919082641601562,0.190872192382812,-0.0586441387840899,-0.0283405613722962,-0.0101232079356092
1492617650.8,40.4718303637647,-79.926182167547,10.3100004196167,-0.0305328369140625,-1.01594543457031,0.263641357421875,-0.000422111032777559,-0.0425447973623429,0.0075689701341142
1492617651.0,40.4718303637647,-79.926182167547,10.3100004196167,-0.0432281494140625,-0.969268798828125,0.2589111328125,0.0657225546454115,-0.106792759712177,0.0414646192242067
1492617651.2,40.4719188140181,-79.9261430785365,10.3299999237061,0.0276641845703125,-0.887496948242188,0.27569580078125,-0.0671699826978695,0.00575695532842429,0.00889336014421061
1492617651.4,40.4719188140181,-79.9261430785365,10.3299999237061,-0.0081024169921875,-1.00651550292969,0.232223510742188,0.0202858306553516,-0.0277916838716309,-0.0189124384811977
