timestamp,latitude,longitude,speed,accelerometerX,accelerometerY,accelerometerZ,gyroX,gyroY,gyroZ
1493002780.6,40.4474891994523,-79.9441910721219,0.0,0.0864105224609375,-0.962387084960938,0.19232177734375,-0.0106672917463124,-0.00844088907500615,-0.00328607446904877
1493002780.8,40.4474891994523,-79.9441910721219,0.0,0.07855224609375,-0.960906982421875,0.199356079101562,-0.0139893188900772,-0.0137368512187377,0.00309086476114596
1493002781.0,40.4474891994523,-79.9441910721219,0.0,0.0815887451171875,-0.961212158203125,0.197479248046875,-0.00953731249579177,0.00218911841604513,-0.00223572373512152
1493002781.2,40.4474892077899,-79.9441910725754,0.0,0.0757598876953125,-0.958419799804688,0.198959350585938,-0.0104915231143672,0.00325784496149393,-0.00971174954719196
1493002781.4,40.4474892077899,-79.9441910725754,0.0,0.080963134765625,-0.988800048828125,0.19378662109375,-0.0394656505099932,-0.0071892033626689,0.000680703974624253
1493002781.6,40.4474892077899,-79.9441910725754,0.0,0.158172607421875,-0.998565673828125,0.196624755859375,0.034215228420902,-0.0161813667833215,-0.0187997867670874
1493002781.8,40.4474892077899,-79.9441910725754,0.0,-0.038177490234375,-0.934555053710938,0.222930908203125,0.0305605724569863,-0.140593333951354,0.101966046552518
1493002782.0,40.4474892077899,-79.9441910725754,0.0,-0.0238037109375,-0.945114135742188,0.279769897460938,0.0102331964886295,-0.0298484431814991,0.0140425821118788
1493002782.2,40.4474892077899,-79.9441910725754,0.0,0.0430755615234375,-0.923721313476562,0.36328125,0.0026349315825244,-0.0276697110937053,0.0256875202943593
1493002782.4,40.4474892160307,-79.9441910730236,0.0,0.075897216796875,-0.916946411132812,0.38751220703125,-0.0113285546449791,0.0160263708078788,-0.0193491968999707
1493002782.6,40.4474892160307,-79.9441910730236,0.0,0.097625732421875,-0.8798828125,0.416412353515625,-0.00422297454053865,-0.00103676861236785,-0.00323920283386338
1493002782.8,40.4474892160307,-79.9441910730236,0.0,0.0897216796875,-0.889938354492188,0.453109741210938,-0.00952665985143145,-0.00419394608465678,-0.00648399830601592
1493002783.0,40.4474892160307,-79.9441910730236,0.0,0.110671997070312,-0.886611938476562,0.467926025390625,-0.00947739137126499,0.0160175823762816,0.000927845323783607
1493002783.2,40.4475037861359,-79.9441918655234,1.23000001907349,0.01129150390625,-0.852630615234375,0.439453125,-0.0115115138118675,-0.0701266241400755,0.0245860368675025
1493002783.4,40.4475037861359,-79.9441918655234,1.23000001907349,0.04461669921875,-0.850326538085938,0.524566650390625,-0.0159432801818684,0.100076800075216,-0.102778044368883
1493002783.6,40.4475037861359,-79.9441918655234,1.23000001907349,0.0917205810546875,-0.8604736328125,0.53106689453125,-0.0906734445822548,0.0473869568563249,-0.040500554909598
1493002783.8,40.4475037861359,-79.9441918655234,1.23000001907349,0.112075805664062,-0.895401000976562,0.474411010742188,-0.0418521091628132,-0.008234494090525,0.0187846067488739
1493002784.0,40.4475037861359,-79.9441918655234,1.23000001907349,0.058380126953125,-0.8828125,0.445159912109375,-0.0286612059675418,-0.00194224338299479,-0.00775192930100265
1493002784.2,40.4475378887055,-79.9441937204367,3.47000002861023,0.026092529296875,-0.864715576171875,0.474761962890625,-0.0410496987263724,-0.0412148147139573,0.0199441470874944
1493002784.4,40.4475378887055,-79.9441937204367,3.47000002861023,0.076751708984375,-0.87628173828125,0.437576293945312,-0.00295051617169879,0.0149097073628086,-0.00966461159589756
1493002784.6,40.4475378887055,-79.9441937204367,3.47000002861023,0.093841552734375,-0.903823852539062,0.400741577148438,-0.00140641537167085,0.0319150561874006,-0.0352818244374788
1493002784.8,40.4475378887055,-79.9441937204367,3.47000002861023,0.045440673828125,-0.83245849609375,0.395889282226562,-0.0512035330145175,-0.0528440402460063,0.0550552628990991
1493002785.0,40.4475378887055,-79.9441937204367,3.47000002861023,0.12548828125,-0.859359741210938,0.425048828125,-0.0268593111739942,-0.0338644901053386,-0.00125381624120931
1493002785.2,40.4475842295738,-79.9441962410177,6.01999998092651,0.032318115234375,-0.940444946289062,0.369110107421875,-0.0235532629967698,-0.0423977908701705,-0.0139925146833853
1493002785.4,40.4475842295738,-79.9441962410177,6.01999998092651,0.072021484375,-0.93829345703125,0.424560546875,0.019862388042029,-0.0373582911394135,0.00669705119322226
1493002785.6,40.4475842295738,-79.9441962410177,6.01999998092651,0.08447265625,-0.89288330078125,0.400009155273438,-0.0454798671997192,0.0173132102466051,-0.0133048864899269
1493002785.8,40.4475842295738,-79.9441962410177,6.01999998092651,0.0870208740234375,-0.872695922851562,0.371856689453125,0.00816178979276584,-0.0702480642857831,0.065303905722051
1493002786.0,40.4475842295738,-79.9441962410177,6.01999998092651,-0.0156097412109375,-0.875885009765625,0.320465087890625,-0.0235564587900779,-0.0987673237672237,0.0330663407266418
1493002786.2,40.4476537396833,-79.9442000218243,8.0600004196167,0.0404205322265625,-0.936386108398438,0.335464477539062,-0.0294614858751106,-0.0753307072261993,0.010554906348311
1493002786.4,40.4476537396833,-79.9442000218243,8.0600004196167,-0.039947509765625,-0.885787963867188,0.329238891601562,-0.0380171571930991,-0.0933469920005854,0.0808839307312326
1493002786.6,40.4476537396833,-79.9442000218243,8.0600004196167,0.141281127929688,-0.874313354492188,0.315170288085938,-0.0322223849771957,0.024668062229077,-0.0441083392383284
1493002786.8,40.4476537396833,-79.9442000218243,8.0600004196167,0.122772216796875,-0.925949096679688,0.320907592773438,-0.0136604184954524,-0.0265085728584307,-0.0277930154521759
1493002787.0,40.4476537396833,-79.9442000218243,8.0600004196167,0.268905639648438,-0.943756103515625,0.303131103515625,-0.0248270529461547,-0.0253660767507867,0.0104734136189546
1493002787.2,40.4477403065615,-79.9442047303859,9.76000022888184,-0.02105712890625,-0.867263793945312,0.34503173828125,-0.0456543042511194,-0.00395985422483882,-0.0121855598837666
1493002787.4,40.4477403065615,-79.9442047303859,9.76000022888184,-0.050994873046875,-0.915679931640625,0.3912353515625,0.0328269225446437,-0.0182961830049534,0.00358195166615658
1493002787.6,40.4477403065615,-79.9442047303859,9.76000022888184,0.083740234375,-0.995986938476562,0.37042236328125,-0.0566829869573555,-0.0794018815846035,0.0518690569709283
1493002787.8,40.4477403065615,-79.9442047303859,9.76000022888184,0.112030029296875,-0.979415893554688,0.263381958007812,0.00703154422613621,0.0446268567025668,-0.0224336700745005
1493002788.0,40.4477403065615,-79.9442047303859,9.76000022888184,0.0627899169921875,-0.927154541015625,0.2904052734375,0.0114630442800281,-0.0117735688631313,0.0118761005650994
1493002788.2,40.4478364946635,-79.9442099622668,11.0299997329712,-0.01190185546875,-0.9351806640625,0.300506591796875,-0.0492527675160344,0.0449911771396896,-0.0336730088229619
1493002788.4,40.4478364946635,-79.9442099622668,11.0299997329712,0.102981567382812,-0.928268432617188,0.269912719726562,-0.088864092937655,-0.047287887263774,0.00880813898932807
1493002788.6,40.4478364946635,-79.9442099622668,11.0299997329712,0.0889129638671875,-0.926895141601562,0.314697265625,0.0243356997250351,-0.0224965206762263,-0.000759000910672583
1493002788.8,40.4478364946635,-79.9442099622668,11.0299997329712,0.062103271484375,-0.96258544921875,0.270889282226562,-0.0964525041477268,0.0453022343550109,-0.00856792185900293
1493002789.0,40.4478364946635,-79.9442099622668,11.0299997329712,0.139923095703125,-0.929824829101562,0.258255004882812,-0.0161289025098469,0.0681782554865735,-0.0291288570549597
1493002789.2,40.4479407847004,-79.9442156348296,11.6999998092651,0.120773315429688,-0.990524291992188,0.174667358398438,0.00380006455943407,0.0318825656221016,-0.0266987225602624
1493002789.4,40.4479407847004,-79.9442156348296,11.6999998092651,-0.037628173828125,-1.00312805175781,0.28759765625,-0.0347827480491979,0.101271760456334,-0.0485970972556569
1493002789.6,40.4479407847004,-79.9442156348296,11.6999998092651,0.0948944091796875,-0.918182373046875,0.204833984375,-0.0675502821015329,0.0344743539949667,-0.0253034924651699
1493002789.8,40.4479407847004,-79.9442156348296,11.6999998092651,0.029083251953125,-0.989227294921875,0.280624389648438,-0.00560382356574473,-0.0659041822317549,0.0619531164385133
1493002790.0,40.4479407847004,-79.9442156348296,11.6999998092651,0.103363037109375,-0.846206665039062,0.31903076171875,-0.0304942597458433,-0.0827710466796627,0.00416624920931996
1493002790.2,40.4480614874058,-79.9442222001133,12.1700000762939,0.200302124023438,-1.00340270996094,0.262466430664062,-0.0117927436229799,0.0394262357258601,-0.0503345435508246
1493002790.4,40.4480614874058,-79.9442222001133,12.1700000762939,0.161590576171875,-0.9964599609375,0.253631591796875,-0.0620955955568326,0.0961260005980831,-0.0787174491844531
1493002790.6,40.4480614874058,-79.9442222001133,12.1700000762939,-0.0067901611328125,-0.940887451171875,0.240615844726562,0.0487100152858763,-0.00669651856100424,0.0165092019135102
1493002790.8,40.4480614874058,-79.9442222001133,12.1700000762939,0.04327392578125,-0.978195190429688,0.3106689453125,-0.00878150737842728,-0.0116417423891724,0.0127347037005409
1493002791.0,40.4480614874058,-79.9442222001133,12.1700000762939,-0.0643157958984375,-1.02464294433594,0.194381713867188,-0.0902286966802116,0.114399014101553,-0.0364040805208381
1493002791.2,40.4481784933526,-79.9442285643223,12.2200002670288,0.141281127929688,-0.98486328125,0.195220947265625,0.0219393873761818,-0.078847411445649,0.0654671574968729
1493002791.4,40.4481784933526,-79.9442285643223,12.2200002670288,0.04266357421875,-0.892929077148438,0.255126953125,0.0416244088896115,0.0305786819523988,0.00994317824591984
1493002791.6,40.4481784933526,-79.9442285643223,12.2200002670288,0.109649658203125,-0.893173217773438,0.16864013671875,-0.00761344492431853,-0.108444984852463,0.0300559034304163
1493002791.8,40.4481784933526,-79.9442285643223,12.2200002670288,-0.0155029296875,-0.942092895507812,0.176467895507812,0.0205460214938523,0.041338918020755,-0.0777299490522517
1493002792.0,40.4481784933526,-79.9442285643223,12.2200002670288,-0.0350189208984375,-0.890350341796875,0.249038696289062,-0.00538038435028709,0.00746990054156325,-0.0693782758737632
1493002792.2,40.4482971842492,-79.9442350201793,12.2600002288818,0.0451202392578125,-0.964996337890625,0.218093872070312,-0.00382270142869974,-0.0446478956751784,0.0214003635715497
1493002792.4,40.4482971842492,-79.9442350201793,12.2600002288818,0.02685546875,-0.943145751953125,0.213287353515625,-0.0546856161397961,-0.000716124017122307,-0.0506701018481746
1493002792.6,40.4482971842492,-79.9442350201793,12.2600002288818,0.0146942138671875,-1.0042724609375,0.234878540039062,-0.0551609903943752,-0.0347494585355719,-0.0345939299279113
1493002792.8,40.4482971842492,-79.9442350201793,12.2600002288818,0.0743408203125,-0.929412841796875,0.269012451171875,0.0149011852473204,-0.122410335292729,0.088964227794642
1493002793.0,40.4482971842492,-79.9442350201793,12.2600002288818,0.092254638671875,-0.974761962890625,0.234970092773438,0.0326484907516084,-0.0108462561715657,0.0206203236882655
1493002793.2,40.4483833318157,-79.9442397059336,12.0200004577637,0.11163330078125,-0.96441650390625,0.24151611328125,-0.0287498892318414,0.0480460892261195,-0.0515966155914132
1493002793.4,40.4483833318157,-79.9442397059336,12.0200004577637,0.089019775390625,-1.01554870605469,0.14434814453125,-0.0159470086073945,-0.00840706692916214,-0.00653885942447155
1493002793.6,40.4483833318157,-79.9442397059336,12.0200004577637,0.123992919921875,-0.900833129882812,0.24139404296875,-0.00263759474361448,0.046818371963593,-0.0150748233503935
1493002793.8,40.4483833318157,-79.9442397059336,12.0200004577637,0.1263427734375,-0.891525268554688,0.176528930664062,-0.0499033777703408,0.086479232181489,-0.0412502347564553
1493002794.0,40.4483833318157,-79.9442397059336,12.0200004577637,0.005615234375,-0.9742431640625,0.167160034179688,-0.0125088676401022,-0.0722361140395273,0.0960176099417169
1493002794.2,40.4485179883514,-79.9442573519684,12.3100004196167,0.313751220703125,-0.886306762695312,0.168014526367188,-0.0534978462936207,0.153514991560419,-0.0531883869749535
1493002794.4,40.4485179883514,-79.9442573519684,12.3100004196167,0.239974975585938,-0.938705444335938,0.176361083984375,-0.0358181850810207,0.112980081872759,-0.0443730574506822
1493002794.6,40.4485179883514,-79.9442573519684,12.3100004196167,0.138824462890625,-0.8551025390625,0.244171142578125,0.0175912442644094,0.000967792740134795,0.115328723638099
1493002794.8,40.4485179883514,-79.9442573519684,12.3100004196167,0.184616088867188,-0.9793701171875,0.188980102539062,-0.0140593600267463,0.11284559223771,-0.000435160522118947
1493002795.0,40.4485179883514,-79.9442573519684,12.3100004196167,0.21405029296875,-0.93817138671875,0.233627319335938,-0.0150343433018243,0.167092852062079,-0.0549620522609463
1493002795.2,40.448623979166,-79.9442730540917,12.2200002670288,0.128921508789062,-0.835342407226562,0.246429443359375,-0.110278038630764,0.106029231427652,0.0231202330035229
1493002795.4,40.448623979166,-79.9442730540917,12.2200002670288,0.082550048828125,-0.97076416015625,0.2120361328125,-0.0427884766020851,0.0375015692060598,-0.0431834233917439
1493002795.6,40.448623979166,-79.9442730540917,12.2200002670288,0.154159545898438,-0.9259033203125,0.221221923828125,-0.0244131977127564,0.094812263232347,-0.10924846055334
1493002795.8,40.448623979166,-79.9442730540917,12.2200002670288,0.150299072265625,-0.951080322265625,0.237823486328125,-0.031023163538333,0.0406158697847985,-0.045203431078569
1493002796.0,40.448623979166,-79.9442730540917,12.2200002670288,0.195770263671875,-0.91839599609375,0.189987182617188,0.0117898141457808,0.0350157746445798,-0.0639424977728025
1493002796.2,40.4487277864169,-79.9443018194784,12.1099996566772,0.234756469726562,-0.973388671875,0.227828979492188,-0.024031566728548,0.12673211310971,-0.0421554432109733
1493002796.4,40.4487277864169,-79.9443018194784,12.1099996566772,0.0823516845703125,-0.912811279296875,0.226577758789062,0.0353950087838071,0.14868801208465,-0.0149483231986148
1493002796.6,40.4487277864169,-79.9443018194784,12.1099996566772,0.0947418212890625,-0.9725341796875,0.257919311523438,-0.0476673877191103,0.116250177375267,-0.0327744582711692
1493002796.8,40.4487277864169,-79.9443018194784,12.1099996566772,0.19451904296875,-0.827911376953125,0.197463989257812,-0.114339891925353,0.128393392997701,0.0208885040100365
1493002797.0,40.4487277864169,-79.9443018194784,12.1099996566772,0.118576049804688,-0.84686279296875,0.399795532226562,-0.0727154830357415,0.00684698716259372,-0.0519404296881424
1493002797.2,40.4488301497509,-79.9443440560389,11.9899997711182,0.121917724609375,-0.824356079101562,0.2667236328125,0.077502781411268,-0.205779794269333,0.13779994428397
1493002797.4,40.4488301497509,-79.9443440560389,11.9899997711182,-0.0772705078125,-0.812774658203125,0.221359252929688,-0.0286316448794419,-0.104043844834998,0.089537340061227
1493002797.6,40.4488301497509,-79.9443440560389,11.9899997711182,-0.006805419921875,-1.0174560546875,0.193023681640625,-0.0245799115969953,-0.0211028884777879,0.0723053562278693
1493002797.8,40.4488301497509,-79.9443440560389,11.9899997711182,0.08953857421875,-0.921844482421875,0.13775634765625,0.0287403018519171,0.0391617838296152,-0.0552499399747839
1493002798.0,40.4488301497509,-79.9443440560389,11.9899997711182,0.0523681640625,-1.02134704589844,0.195785522460938,0.0147113018615977,-0.0702925390759874,0.0536427222569211
1493002798.2,40.4489266988895,-79.9443838935802,11.8199996948242,0.228515625,-1.00894165039062,0.179611206054688,0.0071085095816395,0.1531093921264,-0.124003171940706
1493002798.4,40.4489266988895,-79.9443838935802,11.8199996948242,0.02880859375,-0.984619140625,0.267135620117188,0.0286185953901005,0.00407064172618612,0.0120108565162574
1493002798.6,40.4489266988895,-79.9443838935802,11.8199996948242,0.01995849609375,-1.0247802734375,0.214584350585938,0.0334375853825989,-0.0299967812542165,0.0302737500075847
1493002798.8,40.4489266988895,-79.9443838935802,11.8199996948242,0.10162353515625,-0.96649169921875,0.1978759765625,0.00501925970647234,0.032936644781555,-0.0373511006044703
1493002799.0,40.4489266988895,-79.9443838935802,11.8199996948242,0.0211029052734375,-0.902008056640625,0.23968505859375,-0.0623712327296558,0.0184727505852256,-0.10091036949641
1493002799.2,40.4490253309501,-79.9444246730029,11.7700004577637,0.0999755859375,-0.891693115234375,0.2327880859375,-0.133643548770683,-0.0225407291503217,-0.051422178540013
1493002799.4,40.4490253309501,-79.9444246730029,11.7700004577637,0.06365966796875,-0.958450317382812,0.196319580078125,-0.0229021201102454,0.0150362075145874,-0.0301272761476304
1493002799.6,40.4490253309501,-79.9444246730029,11.7700004577637,0.021087646484375,-1.04086303710938,0.175430297851562,0.0552262378410822,-0.00142132907377529,0.0101650195647234
1493002799.8,40.4490253309501,-79.9444246730029,11.7700004577637,0.150741577148438,-0.926162719726562,0.231948852539062,-0.0184200199956421,0.00437876946430828,0.0253892462522704
1493002800.0,40.4490253309501,-79.9444246730029,11.7700004577637,0.09271240234375,-0.941177368164062,0.224090576171875,-0.00711809696156379,-0.00739186992162393,0.0489920440453157
1493002800.2,40.4491250996523,-79.9444665035042,11.6400003433228,0.0536956787109375,-0.983291625976562,0.229461669921875,0.00627973385040684,0.0648405156923772,-0.0342218863236272
1493002800.4,40.4491250996523,-79.9444665035042,11.6400003433228,-0.025390625,-0.897842407226562,0.246078491210938,-0.0319430193788464,-0.0923190118198148,0.10440017578885
1493002800.6,40.4491250996523,-79.9444665035042,11.6400003433228,0.10504150390625,-0.986419677734375,0.16510009765625,-0.00279818335734626,0.0755317758885003,-0.0652626267251548
1493002800.8,40.4491250996523,-79.9444665035042,11.6400003433228,0.02349853515625,-0.896560668945312,0.257156372070312,-0.0168950939554627,-0.0488146775167164,0.0404691296087351
1493002801.0,40.4491250996523,-79.9444665035042,11.6400003433228,0.0244598388671875,-0.911331176757812,0.245712280273438,-0.0624284906930925,0.102514924053183,-0.0510157801576669
1493002801.2,40.4492276720233,-79.9445095095133,11.6099996566772,0.123184204101562,-0.94183349609375,0.15032958984375,-0.0465933348514813,0.0726267997714419,-0.0571738075462571
1493002801.4,40.4492276720233,-79.9445095095133,11.6099996566772,0.0814666748046875,-0.962646484375,0.183303833007812,-0.0117179087963486,-0.0722504951094137,0.038450187186346
1493002801.6,40.4492276720233,-79.9445095095133,11.6099996566772,0.00653076171875,-1.06283569335938,0.204620361328125,-0.0585203017934012,0.00569916473276957,-0.000613858631263264
1493002801.8,40.4492276720233,-79.9445095095133,11.6099996566772,0.0285186767578125,-1.02476501464844,0.228134155273438,-0.0123504095552425,-0.0881961721362631,0.0758023530552524
1493002802.0,40.4492276720233,-79.9445095095133,11.6099996566772,-0.036834716796875,-0.961456298828125,0.168746948242188,-0.0710885579258121,-0.00484721950005322,0.0557940237854871
1493002802.2,40.4493247966304,-79.9445502314122,11.5100002288818,-0.0076446533203125,-0.96893310546875,0.199478149414062,-0.00718414335659775,0.0319579330809509,-0.00228845432470509
1493002802.4,40.4493247966304,-79.9445502314122,11.5100002288818,-0.0775604248046875,-0.942306518554688,0.220489501953125,0.00675670600164004,-0.0245034788737101,0.0374499038809123
1493002802.6,40.4493247966304,-79.9445502314122,11.5100002288818,0.0059814453125,-0.954483032226562,0.152603149414062,-0.0249349109703029,-0.0455765399472891,0.00732582352658997
1493002802.8,40.4493247966304,-79.9445502314122,11.5100002288818,-0.167205810546875,-0.971588134765625,0.288619995117188,-0.00258486415403091,-0.095720933796282,-0.0189712943412885
1493002803.0,40.4493247966304,-79.9445502314122,11.5100002288818,-0.050201416015625,-0.99761962890625,0.29730224609375,-0.0744225692944823,-0.0995031551764126,0.0144218162511061
1493002803.2,40.4494283059946,-79.9445936302789,11.7799997329712,0.0158538818359375,-1.01283264160156,0.277557373046875,-0.0463680314232606,-0.0911794451893699,-0.00770292713694519
1493002803.4,40.4494283059946,-79.9445936302789,11.7799997329712,-0.055908203125,-0.920272827148438,0.309890747070312,0.00182053692117817,-0.0489435745134762,-0.00411991020635258
1493002803.6,40.4494283059946,-79.9445936302789,11.7799997329712,-0.03997802734375,-0.962265014648438,0.290878295898438,0.027930168248315,-0.0544264905657314,0.0302804079103099
1493002803.8,40.4494283059946,-79.9445936302789,11.7799997329712,-0.0036468505859375,-0.915603637695312,0.251296997070312,-0.041237717899332,0.0417410553453569,-0.0762311219907551
1493002804.0,40.4494283059946,-79.9445936302789,11.7799997329712,0.119491577148438,-1.01211547851562,0.306900024414062,0.0180719448411687,-0.0501039138004238,0.0525588156932588
1493002804.2,40.4495356156297,-79.9446386225032,12.0500001907349,0.355743408203125,-0.944168090820312,0.290512084960938,-0.294069709675967,0.0157443420484394,0.0193390768878284
1493002804.4,40.4495356156297,-79.9446386225032,12.0500001907349,-0.237594604492188,-1.14541625976562,0.3121337890625,0.38569123960629,0.0474878906616389,0.0123560021935316
1493002804.6,40.4495356156297,-79.9446386225032,12.0500001907349,-0.0833892822265625,-0.895034790039062,0.294967651367188,0.00328634078515778,0.148873900728738,-0.158150223437702
1493002804.8,40.4495356156297,-79.9446386225032,12.0500001907349,0.078216552734375,-0.98553466796875,0.27825927734375,-0.0164865650442445,0.0979590543763846,-0.0643944362097889
1493002805.0,40.4495356156297,-79.9446386225032,12.0500001907349,0.014892578125,-0.931716918945312,0.238861083984375,-0.0607070233644652,-0.015562181829878,-0.00804487702091136
1493002805.2,40.4496356911384,-79.9446805816409,12.0600004196167,0.0867919921875,-0.975051879882812,0.275375366210938,0.0248203950434295,0.00302614994665704,-0.0221441844640089
1493002805.4,40.4496356911384,-79.9446805816409,12.0600004196167,0.0924072265625,-0.957733154296875,0.245285034179688,-0.0201819673728385,-0.0168903002655005,-0.0129576102837805
1493002805.6,40.4496356911384,-79.9446805816409,12.0600004196167,0.117523193359375,-0.931411743164062,0.245407104492188,-0.00516520093420868,0.00747842265705151,-0.00753568062048821
1493002805.8,40.4496356911384,-79.9446805816409,12.0600004196167,0.170333862304688,-0.943115234375,0.280624389648438,0.013175456860949,0.091385041225524,-0.0566102826595963
1493002806.0,40.4496356911384,-79.9446805816409,12.0600004196167,0.17169189453125,-1.02545166015625,0.252487182617188,0.00610849259231475,0.111638913947795,-0.0737943295933326
1493002806.2,40.4497386209811,-79.9447237375287,12.0100002288818,0.045745849609375,-0.965316772460938,0.286849975585938,-0.042483544657271,0.0683465672674665,-0.0485909719851498
1493002806.4,40.4497386209811,-79.9447237375287,12.0100002288818,0.0998077392578125,-0.980438232421875,0.205810546875,-0.074849474017222,-0.0399343668618472,0.000402936272928989
1493002806.6,40.4497386209811,-79.9447237375287,12.0100002288818,-0.0419158935546875,-0.94769287109375,0.31634521484375,-0.0477805720654386,0.0173177376204583,-0.0783675098172167
1493002806.8,40.4497386209811,-79.9447237375287,12.0100002288818,0.129837036132812,-0.94268798828125,0.189239501953125,-0.0335347907623868,-0.00829867627279591,-0.0440367002050052
1493002807.0,40.4497386209811,-79.9447237375287,12.0100002288818,0.0949554443359375,-0.898452758789062,0.264556884765625,-0.035322570802157,-0.0635968194633102,-0.0215218037172573
1493002807.2,40.4498436060905,-79.9447677551381,11.7799997329712,0.11065673828125,-0.955184936523438,0.225540161132812,-0.00997273933401972,-0.0265258834055162,0.0138271323796914
1493002807.4,40.4498436060905,-79.9447677551381,11.7799997329712,0.0655059814453125,-0.965087890625,0.19921875,0.0241905574456258,-0.0554720476096965,-0.00813888660739116
1493002807.6,40.4498436060905,-79.9447677551381,11.7799997329712,0.122207641601562,-0.927459716796875,0.245315551757812,0.0463342092774166,-0.0141248737895623,0.0303648301168655
1493002807.8,40.4498436060905,-79.9447677551381,11.7799997329712,-0.0139923095703125,-0.905899047851562,0.23602294921875,-0.0593805028254968,-0.0581139034110551,0.0272635790274682
1493002808.0,40.4498436060905,-79.9447677551381,11.7799997329712,0.060455322265625,-0.9766845703125,0.183929443359375,-0.00291855823861784,0.0308663033501274,-0.00330817870609643
1493002808.2,40.4499395270214,-79.944807972366,11.3100004196167,0.10321044921875,-0.931900024414062,0.226516723632812,-0.0167480874632903,0.0384027829189426,-0.000270577166752051
1493002808.4,40.4499395270214,-79.944807972366,11.3100004196167,0.142745971679688,-0.8912353515625,0.176071166992188,0.0225945250043413,-0.0384344745359146,0.0397804361508406
1493002808.6,40.4499395270214,-79.944807972366,11.3100004196167,0.08648681640625,-0.90185546875,0.189849853515625,-0.0807843285064636,-0.0803134816257376,0.0228368726635385
1493002808.8,40.4499395270214,-79.944807972366,11.3100004196167,-0.0352783203125,-0.940032958984375,0.199874877929688,-0.0114718327116253,0.0606966370362139,-0.0621145040005721
1493002809.0,40.4499395270214,-79.944807972366,11.3100004196167,0.127578735351562,-0.999801635742188,0.151626586914062,-0.0523151364535166,0.0567114827810194,-0.0369332506294369
1493002809.2,40.4500345316711,-79.9448478054203,10.8999996185303,0.0776519775390625,-0.891189575195312,0.189010620117188,0.0183236135641812,-0.0224493827249319,0.0492913833518406
1493002809.4,40.4500345316711,-79.9448478054203,10.8999996185303,0.131423950195312,-0.944107055664062,0.216293334960938,-0.0220664201601786,0.000140082273338168,-0.0215505658570302
1493002809.6,40.4500345316711,-79.9448478054203,10.8999996185303,0.075469970703125,-1.00729370117188,0.318161010742188,0.000394414157440735,-0.0691300692601679,0.0886782042935675
1493002809.8,40.4500345316711,-79.9448478054203,10.8999996185303,0.0819549560546875,-0.939437866210938,0.16107177734375,-0.0874784502224868,0.0090813793171702,0.0161403541025342
1493002810.0,40.4500345316711,-79.9448478054203,10.8999996185303,0.0742645263671875,-1.02818298339844,0.159957885742188,0.0174391777661659,0.0243495481627035,-0.0158775001029434
1493002810.2,40.4501259471939,-79.9448861336441,10.3699998855591,-0.0168609619140625,-0.967910766601562,0.16473388671875,0.00208152670800593,-0.0180977775037425,-0.00632926864668232
1493002810.4,40.4501259471939,-79.9448861336441,10.3699998855591,0.136947631835938,-0.946441650390625,0.114776611328125,0.0487616806110238,0.108169347679639,-0.0797459619974417
1493002810.6,40.4501259471939,-79.9448861336441,10.3699998855591,0.061798095703125,-0.93023681640625,0.126571655273438,-0.00149749548095156,-0.0127509489831904,0.0245404968128622
1493002810.8,40.4501259471939,-79.9448861336441,10.3699998855591,0.0892486572265625,-0.976287841796875,0.136032104492188,0.0425040509976646,0.0156817577628226,0.0153216983834439
1493002811.0,40.4501259471939,-79.9448861336441,10.3699998855591,-0.0331878662109375,-0.927947998046875,0.155288696289062,-0.00985129918831211,-0.133948214399388,0.101535147088143
1493002811.2,40.4502065545257,-79.944919930266,9.27000045776367,-0.0182037353515625,-0.91925048828125,0.116729736328125,0.00303919943599843,-0.0765999698017311,0.0471422123521466
1493002811.4,40.4502065545257,-79.944919930266,9.27000045776367,0.093292236328125,-0.970046997070312,0.078643798828125,-0.0346727594961776,0.0268153690160078,-0.0196160456411966
1493002811.6,40.4502065545257,-79.944919930266,9.27000045776367,0.115921020507812,-1.01832580566406,0.0858917236328125,-0.0256062938811119,0.0607919782032388,-0.040935182799499
1493002811.8,40.4502065545257,-79.944919930266,9.27000045776367,0.0203399658203125,-1.00059509277344,0.070648193359375,-0.0028165591688678,-0.0329518247997684,0.0320426216036154
1493002812.0,40.4502065545257,-79.944919930266,9.27000045776367,0.128631591796875,-1.00848388671875,0.0131988525390625,-0.0322556744908217,0.0299877265065102,-0.0387913381219852
1493002812.2,40.4502836730978,-79.9449522641389,7.67000007629395,0.0350189208984375,-0.975494384765625,-0.014892578125,-0.0203223159622857,-0.0466620444076054,0.0585541239392452
1493002812.4,40.4502836730978,-79.9449522641389,7.67000007629395,-0.0239105224609375,-1.00025939941406,0.0191650390625,-0.0279014061085422,-0.00939030600361939,0.0104007093211955
1493002812.6,40.4502836730978,-79.9449522641389,7.67000007629395,0.062957763671875,-1.02394104003906,-0.02996826171875,-0.0345143014113179,0.0225572407490802,-0.0334642169934997
1493002812.8,40.4502836730978,-79.9449522641389,7.67000007629395,0.071197509765625,-1.01792907714844,0.0061492919921875,-0.00686243349691618,-0.00846033015096372,0.0298055662879488
1493002813.0,40.4502836730978,-79.9449522641389,7.67000007629395,0.0599212646484375,-1.00234985351562,-0.05364990234375,-0.0277256374765969,0.00230842803288068,0.00397503424305227
1493002813.2,40.4503320704619,-79.9449725559334,5.15999984741211,0.0434417724609375,-1.02302551269531,-0.020111083984375,-0.0106499811992269,-0.00418595660138655,-0.00223066372905037
1493002813.4,40.4503320704619,-79.9449725559334,5.15999984741211,0.0150299072265625,-1.02914428710938,-0.0006866455078125,-0.00923504371206777,0.00537505802810693,-0.0224989175212074
1493002813.6,40.4503320704619,-79.9449725559334,5.15999984741211,0.017303466796875,-1.02156066894531,0.01239013671875,-0.0303778796062068,0.0140212768231582,-0.0291349823254669
1493002813.8,40.4503320704619,-79.9449725559334,5.15999984741211,0.014739990234375,-1.01467895507812,-0.0128326416015625,0.00281336337555971,-0.0351196379270929,0.00864914827225034
1493002814.0,40.4503320704619,-79.9449725559334,5.15999984741211,0.0729827880859375,-0.983932495117188,0.147430419921875,0.00445466955537554,0.00847923859470329,-0.00957219990607181
1493002814.2,40.4503649047122,-79.9449863225068,3.40000009536743,0.0755462646484375,-0.932052612304688,0.232772827148438,-0.00813702239462811,0.0117503993616476,-0.0214379141429199
1493002814.4,40.4503649047122,-79.9449863225068,3.40000009536743,0.114456176757812,-0.901275634765625,0.352096557617188,-0.00520381677001483,-0.0074142404747806,-0.0128287132870207
1493002814.6,40.4503649047122,-79.9449863225068,3.40000009536743,0.0984649658203125,-0.9373779296875,0.374862670898438,-0.0177640834191555,-0.00519502833841757,0.049943591502801
1493002814.8,40.4503649047122,-79.9449863225068,3.40000009536743,0.0645294189453125,-0.949386596679688,0.376358032226562,-0.0107831392537308,0.00539077067853839,0.012670255202161
1493002815.0,40.4503649047122,-79.9449863225068,3.40000009536743,0.125259399414062,-0.8282470703125,0.460296630859375,-0.0491547631879195,-0.00180588953518273,0.0112297513685371
1493002815.2,40.450391458492,-79.9449974558371,2.97000002861023,0.14599609375,-0.984619140625,0.34393310546875,-0.0295621533643156,0.0140188799781771,-0.0110009858308993
1493002815.4,40.450391458492,-79.9449974558371,2.97000002861023,0.22406005859375,-0.7930908203125,0.410263061523438,0.0812812743658724,-0.0707319606558505,0.0138092892003879
1493002815.6,40.450391458492,-79.9449974558371,2.97000002861023,0.1800537109375,-0.924880981445312,0.39117431640625,0.0826245728197084,-0.149441154040924,0.105720571057312
1493002815.8,40.450391458492,-79.9449974558371,2.97000002861023,-0.00396728515625,-0.938491821289062,0.480178833007812,0.0334357211698358,-0.0725367849265972,0.0847604280139519
1493002816.0,40.450391458492,-79.9449974558371,2.97000002861023,0.0974273681640625,-0.937911987304688,0.342178344726562,-0.0655521123356464,0.0280675873605631,-0.0967028412901942
1493002816.2,40.450391458492,-79.9449974558371,2.97000002861023,0.256332397460938,-0.888412475585938,0.422271728515625,0.109774701184739,-0.0209151356209373,0.0598196580892508
1493002816.4,40.4504332982033,-79.9450149981732,4.94999980926514,0.043121337890625,-0.896163940429688,0.389068603515625,0.0494293350963067,-0.0832791778156498,0.0774884003413815
1493002816.6,40.4504332982033,-79.9450149981732,4.94999980926514,0.117141723632812,-0.897476196289062,0.408798217773438,-0.0483792506784885,0.0715705900831165,-0.0827785035307149
1493002816.8,40.4504332982033,-79.9450149981732,4.94999980926514,0.0856170654296875,-0.79437255859375,0.351104736328125,-0.087082171852283,-0.0175086862706169,0.0503318803897345
1493002817.0,40.4504332982033,-79.9450149981732,4.94999980926514,0.051116943359375,-0.822906494140625,0.401412963867188,-0.0738446633379351,-0.0186639655514933,0.0163515427769775
1493002817.2,40.4504426957893,-79.945018938344,6.3600001335144,0.178024291992188,-0.950164794921875,0.448165893554688,-0.0545271580549364,0.0418334670351827,-0.0390499310638319
1493002817.4,40.4504426957893,-79.945018938344,6.3600001335144,0.100692749023438,-0.853805541992188,0.357528686523438,-0.0281237800595638,-0.0136415100517129,0.0242701859622191
1493002817.6,40.4504426957893,-79.945018938344,6.3600001335144,0.067413330078125,-0.95550537109375,0.310745239257812,-0.0967648929435931,0.0421040442019347,-0.0650722107072141
1493002817.8,40.4504426957893,-79.945018938344,6.3600001335144,0.131637573242188,-0.997848510742188,0.376693725585938,0.0348264238910752,0.0125304392449318,-0.0476554034942049
1493002818.0,40.4504426957893,-79.945018938344,6.3600001335144,0.0583648681640625,-0.925552368164062,0.461990356445312,0.0652170866705144,0.177179574690754,-0.232224184945492
1493002818.2,40.4504426957893,-79.945018938344,7.94000005722046,0.234344482421875,-0.940048217773438,0.371322631835938,0.0728592937346058,-0.0462106386028369,0.0200570651177138
1493002818.4,40.4504426957893,-79.945018938344,7.94000005722046,0.3363037109375,-0.8206787109375,0.376480102539062,0.108873221155747,-0.127279925345939,0.0675484178887698
1493002818.6,40.4504426957893,-79.945018938344,7.94000005722046,0.201873779296875,-0.873870849609375,0.387893676757812,-0.00276010015375812,0.0149062452533915,-0.0235234355925609
1493002818.8,40.4504426957893,-79.945018938344,7.94000005722046,0.13458251953125,-0.929046630859375,0.42523193359375,0.0842807927016286,0.0366709292620641,-0.0685356517048622
1493002819.0,40.4504426957893,-79.945018938344,7.94000005722046,0.0539398193359375,-0.909957885742188,0.400665283203125,-0.0516136598223897,0.191777958522132,-0.169485169669297
1493002819.2,40.4506271049923,-79.9450983084728,9.30000019073486,0.193511962890625,-0.845001220703125,0.341781616210938,-0.0578478536181562,0.0737708937757399,-0.0125109981689742
1493002819.4,40.4506271049923,-79.9450983084728,9.30000019073486,0.046173095703125,-0.882354736328125,0.369033813476562,0.0283890309041357,-0.0512309635737453,0.076124062914934
1493002819.6,40.4506271049923,-79.9450983084728,9.30000019073486,-0.0370330810546875,-0.899688720703125,0.416534423828125,-0.0155880144924518,-0.0711660559135334,0.010686200190052
1493002819.8,40.4506271049923,-79.9450983084728,9.30000019073486,0.1201171875,-0.939208984375,0.29486083984375,-0.0199068628322333,-0.014755244019584,0.0456814684942382
1493002820.0,40.4506271049923,-79.9450983084728,9.30000019073486,-0.083282470703125,-0.935287475585938,0.3648681640625,0.0264206885424581,-0.0863258341027005,0.0452742711635651
1493002820.2,40.4507137809373,-79.9451356151427,10.2399997711182,0.0162506103515625,-0.94683837890625,0.375762939453125,0.00542885388212653,-0.0542909356662463,-0.0371218024346145
1493002820.4,40.4507137809373,-79.9451356151427,10.2399997711182,-0.0630340576171875,-0.935134887695312,0.313278198242188,-0.0367881083500276,-0.07209310228899,0.0030080404512445
1493002820.6,40.4507137809373,-79.9451356151427,10.2399997711182,-0.004913330078125,-0.9715576171875,0.284423828125,-0.0244193229832636,-0.108325941551736,0.0906577319318234
1493002820.8,40.4507137809373,-79.9451356151427,10.2399997711182,0.042266845703125,-0.896087646484375,0.233840942382812,-0.0287424323807892,-0.0030045783418274,-0.00241894921811897
1493002821.0,40.4507137809373,-79.9451356151427,10.2399997711182,-0.0118865966796875,-0.930648803710938,0.221893310546875,0.00550475397319379,-0.00322934913783008,-0.0148623030954052
1493002821.2,40.4508046095989,-79.9451747092062,10.4499998092651,0.0796661376953125,-0.958572387695312,0.273788452148438,-0.0275839573066047,0.0225058417400416,-0.0728430484519563
1493002821.4,40.4508046095989,-79.9451747092062,10.4499998092651,0.108169555664062,-0.935791015625,0.260269165039062,-0.0149856074538759,0.041574607777227,-0.049306563370054
1493002821.6,40.4508046095989,-79.9451747092062,10.4499998092651,0.0514678955078125,-0.962020874023438,0.282867431640625,-0.0217854566651752,0.027794080716612,-0.0269501249671659
1493002821.8,40.4508046095989,-79.9451747092062,10.4499998092651,0.100433349609375,-0.901596069335938,0.236709594726562,-0.0273288264741751,0.0161307667226099,-0.0173808545382931
1493002822.0,40.4508046095989,-79.9451747092062,10.4499998092651,0.09881591796875,-0.937255859375,0.237762451171875,-0.000149935969371461,0.0223303394242054,-0.0544360779456557
1493002822.2,40.4508931776184,-79.9452128302543,10.2200002670288,0.09051513671875,-0.9407958984375,0.249176025390625,-0.0706925458717173,0.03555799424252,-0.0285371026607441
1493002822.4,40.4508931776184,-79.9452128302543,10.2200002670288,0.04620361328125,-1.00080871582031,0.211639404296875,-0.0482932305752789,0.0641347780035062,-0.0155869492280158
1493002822.6,40.4508931776184,-79.9452128302543,10.2200002670288,-0.029327392578125,-0.911575317382812,0.302947998046875,-0.00541873386998423,-0.0744180419206292,0.0438513441931357
1493002822.8,40.4508931776184,-79.9452128302543,10.2200002670288,0.0770416259765625,-1.0125732421875,0.271926879882812,-0.00652767414789322,0.0276907500663169,-0.0523827807452046
1493002823.0,40.4508931776184,-79.9452128302543,10.2200002670288,0.113784790039062,-0.932754516601562,0.30419921875,-0.0360450864058955,-0.0199798334461015,-0.0227079756667786
1493002823.2,40.4509779419959,-79.9452493141559,9.98999977111816,0.100509643554688,-0.9501953125,0.292892456054688,-0.0455504409686063,0.0215697406168788,-0.00585309544377615
1493002823.4,40.4509779419959,-79.9452493141559,9.98999977111816,0.0697479248046875,-0.907821655273438,0.263961791992188,-0.000766990393942821,-0.0319004088014051,0.0384581766696163
1493002823.6,40.4509779419959,-79.9452493141559,9.98999977111816,-0.0852508544921875,-0.991073608398438,0.299911499023438,0.0286806470434993,-0.0533638892907898,0.053742058165581
1493002823.8,40.4509779419959,-79.9452493141559,9.98999977111816,0.0827789306640625,-0.88519287109375,0.221664428710938,-0.0223553731384522,0.00652820678011124,0.00295291301667986
1493002824.0,40.4509779419959,-79.9452493141559,9.98999977111816,0.174713134765625,-1.0072021484375,0.209732055664062,-0.0357303007650481,0.0895746243164881,-0.0635036088251574
1493002824.2,40.4510584511679,-79.9452839665512,9.81999969482422,0.0633697509765625,-0.980422973632812,0.192535400390625,0.0519409623203604,-0.06947042124748,0.0572204128653335
1493002824.4,40.4510584511679,-79.9452839665512,9.81999969482422,0.0187835693359375,-0.986801147460938,0.2398681640625,-0.00190362754718864,-0.0297645536071616,0.0448383116931191
1493002824.6,40.4510584511679,-79.9452839665512,9.81999969482422,0.02490234375,-0.971282958984375,0.198501586914062,-0.0920923768110491,0.0314431440422385,-0.0234145123039767
1493002824.8,40.4510584511679,-79.9452839665512,9.81999969482422,0.142257690429688,-0.978790283203125,0.217147827148438,-0.0250363774078349,0.0820578521397395,-0.0708382207833447
1493002825.0,40.4510584511679,-79.9452839665512,9.81999969482422,0.154449462890625,-0.923126220703125,0.212295532226562,-0.0166772473782942,-0.0679548162711159,0.0916990279180444
1493002825.2,40.451139376719,-79.9453187981624,9.43000030517578,-0.06500244140625,-1.00997924804688,0.273178100585938,0.014519021630894,-0.124531010468759,0.11562113872579
1493002825.4,40.451139376719,-79.9453187981624,9.43000030517578,-0.102447509765625,-0.940170288085938,0.12646484375,-0.0199012701939441,-0.178557494238761,0.111143299668931
1493002825.6,40.451139376719,-79.9453187981624,9.43000030517578,-0.011993408203125,-0.979934692382812,0.134307861328125,-0.05713545802656,0.0535455168771332,-0.0753581377854272
1493002825.8,40.451139376719,-79.9453187981624,9.43000030517578,0.058074951171875,-0.9559326171875,0.0283050537109375,-0.0105080347131256,-0.0626857520543941,0.033106820775211
1493002826.0,40.451139376719,-79.9453187981624,9.43000030517578,0.003875732421875,-0.999176025390625,0.060943603515625,0.00975116433132513,-0.0511159150146539,0.0375492397895722
1493002826.2,40.4512138372373,-79.9453508471234,8.10999965667725,0.0155181884765625,-0.98577880859375,0.028045654296875,-0.00741530573921663,0.0649278673761318,-0.0450244666533156
1493002826.4,40.4512138372373,-79.9453508471234,8.10999965667725,0.055267333984375,-1.03175354003906,0.0330657958984375,-0.0531513690358014,0.00779134408513582,-0.00269671691981424
1493002826.6,40.4512138372373,-79.9453508471234,8.10999965667725,0.0999298095703125,-0.979736328125,0.0008392333984375,-0.00194437391186685,0.00320191857860227,-0.0117565246321548
1493002826.8,40.4512138372373,-79.9453508471234,8.10999965667725,0.0399169921875,-1.02711486816406,-0.03546142578125,-0.0250307847695458,-0.0349366787602045,0.0200919525279938
1493002827.0,40.4512138372373,-79.9453508471234,8.10999965667725,0.0503997802734375,-0.99786376953125,0.0081939697265625,-0.0320804384910945,-0.0104278735643143,0.00396331633425592
1493002827.2,40.4512729096871,-79.9453762728212,5.71000003814697,0.0142669677734375,-1.04025268554688,-0.0399932861328125,-0.0231924046690641,0.0192967326264961,-0.00668453433609889
1493002827.4,40.4512729096871,-79.9453762728212,5.71000003814697,0.0167999267578125,-1.02787780761719,0.0037841796875,-0.00844062275889714,0.0181387901845297,0.00413162811514893
1493002827.6,40.4512729096871,-79.9453762728212,5.71000003814697,0.028656005859375,-1.012939453125,0.0092926025390625,-0.00330072185504421,-0.00636016131532724,0.00424747562256738
1493002827.8,40.4512729096871,-79.9453762728212,5.71000003814697,0.0436248779296875,-1.02487182617188,0.00506591796875,-0.00880148108660287,0.00325198600709576,0.0222919899045083
1493002828.0,40.4512729096871,-79.9453762728212,5.71000003814697,0.0183258056640625,-1.00381469726562,-0.0096588134765625,-0.008906675949661,-0.012703278399678,0.0212658739365007
1493002828.2,40.4513049522638,-79.9453900644428,3.00999999046326,0.0182647705078125,-1.01466369628906,0.014892578125,-0.0139533662153612,-0.00309938687663422,0.00626242330332133
1493002828.4,40.4513049522638,-79.9453900644428,3.00999999046326,0.0361480712890625,-0.982955932617188,0.12725830078125,-0.00405519539186366,-0.00210363094505359,-0.0160293002850779
1493002828.6,40.4513049522638,-79.9453900644428,3.00999999046326,0.059112548828125,-0.962310791015625,0.228195190429688,0.00208285828855097,-0.0159701781088782,-0.00526853158450376
1493002828.8,40.4513049522638,-79.9453900644428,3.00999999046326,0.059051513671875,-0.916259765625,0.31817626953125,-0.0032567796970579,-0.00636096026365426,0.00104928546949122
1493002829.0,40.4513049522638,-79.9453900644428,3.00999999046326,0.0708160400390625,-0.900527954101562,0.428314208984375,0.0192517252040738,-0.00225383323053406,-0.00726057607988303
1493002829.2,40.4513213814543,-79.9453971358209,1.26999998092651,0.0753021240234375,-0.866607666015625,0.471572875976562,-0.00638839082288208,4.15453130052361e-05,-6.55137628159493e-05
1493002829.4,40.4513213814543,-79.9453971358209,1.26999998092651,0.096832275390625,-0.865310668945312,0.463836669921875,-0.00140348589447176,-0.0776327436724638,0.0598939602836641
1493002829.6,40.4513213814543,-79.9453971358209,1.26999998092651,0.112319946289062,-0.819320678710938,0.5045166015625,-0.0103477124155029,0.0224038426702916,-0.00975968644681338
1493002829.8,40.4513213814543,-79.9453971358209,1.26999998092651,0.130355834960938,-0.926559448242188,0.514068603515625,-0.0158210410878337,-0.069034195460925,0.02880395140197
1493002830.0,40.4513213814543,-79.9453971358209,1.26999998092651,0.0260772705078125,-0.782501220703125,0.559280395507812,-0.01152962330728,-0.0243948219012348,-0.0267104404690587
1493002830.2,40.4513428972876,-79.945406396569,3.16000008583069,0.08099365234375,-0.945785522460938,0.482131958007812,-0.0255069579724519,0.00442058109342253,-0.00133877107998283
1493002830.4,40.4513428972876,-79.945406396569,3.16000008583069,0.0909423828125,-0.876129150390625,0.565032958984375,0.0318926856342439,0.0380903941230763,0.0247511528550874
1493002830.6,40.4513428972876,-79.945406396569,3.16000008583069,-0.0398101806640625,-0.85430908203125,0.5955810546875,-0.0413349232791199,0.0502533171375772,-0.0645257300515299
1493002830.8,40.4513428972876,-79.945406396569,3.16000008583069,0.103652954101562,-0.870620727539062,0.557632446289062,-0.0307480589977279,0.0193470663710986,0.000701476631126871
1493002831.0,40.4513428972876,-79.945406396569,3.16000008583069,0.11053466796875,-0.850189208984375,0.465850830078125,0.0152945341403251,0.019057048128389,0.0598153970315067
1493002831.2,40.451380369997,-79.9454225254039,5.42000007629395,0.023406982421875,-0.861297607421875,0.498550415039062,-0.0207172627519444,-0.0413482390845703,0.0126891636459005
1493002831.4,40.451380369997,-79.9454225254039,5.42000007629395,-0.004180908203125,-0.832290649414062,0.54803466796875,-0.0524741271705943,0.0205572067704306,0.0324623357914119
1493002831.6,40.451380369997,-79.9454225254039,5.42000007629395,0.128204345703125,-0.866317749023438,0.442367553710938,-0.0538400624936959,0.0747991402726195,-0.0711143905883859
1493002831.8,40.451380369997,-79.9454225254039,5.42000007629395,0.07806396484375,-0.876800537109375,0.483627319335938,0.000145674911627334,0.0499840715513702,-0.06090170044015
1493002832.0,40.451380369997,-79.9454225254039,5.42000007629395,0.0439605712890625,-0.834075927734375,0.460174560546875,-0.087990576100109,-0.00900654449053898,-0.0339302701842635
1493002832.2,40.4513774712241,-79.9454212777271,7.63000011444092,0.0731964111328125,-1.08320617675781,0.418350219726562,-0.136566900699263,0.0519295107276731,-0.108153635029208
1493002832.4,40.4513774712241,-79.9454212777271,7.63000011444092,0.085662841796875,-0.794754028320312,0.359619140625,0.1328605794102,-0.0582947320490715,0.0644173393951636
1493002832.6,40.4513774712241,-79.9454212777271,7.63000011444092,0.154266357421875,-0.957778930664062,0.447174072265625,-0.153691026508473,0.0701391409971989,-0.0145491153512119
1493002832.8,40.4513774712241,-79.9454212777271,7.63000011444092,0.0020904541015625,-0.953704833984375,0.435028076171875,-0.0549945428262453,0.0439695885455352,-0.0038751657021743
1493002833.0,40.4513774712241,-79.9454212777271,7.63000011444092,-0.11181640625,-1.0103759765625,0.461334228515625,0.0164665913360689,-0.118171115469541,0.054850465811272
1493002833.2,40.4515207874555,-79.9454836353437,9.77000045776367,-0.024200439453125,-0.896438598632812,0.374191284179688,0.0119006016471281,-0.0309177023591659,0.0471150481090278
1493002833.4,40.4515207874555,-79.9454836353437,9.77000045776367,0.2164306640625,-0.945281982421875,0.294891357421875,0.00719319810430402,-0.194683999903627,0.145581168356964
1493002833.6,40.4515207874555,-79.9454836353437,9.77000045776367,0.102127075195312,-0.886810302734375,0.366485595703125,-0.00599637351042241,0.06916975036041,-0.0684775947930985
1493002833.8,40.4515207874555,-79.9454836353437,9.77000045776367,0.0600128173828125,-0.925399780273438,0.381072998046875,-0.0921451074006326,0.103770870823265,-0.0577205545180504
1493002834.0,40.4515207874555,-79.9454836353437,9.77000045776367,0.071075439453125,-0.851821899414062,0.313995361328125,-0.0553998759441553,-0.0815403999399371,0.0348282881038383
1493002834.2,40.451609161379,-79.9455220974339,11.0900001525879,0.0391387939453125,-0.8765869140625,0.315216064453125,-0.057709102925363,-0.0293965047445126,0.0762524272794758
1493002834.4,40.451609161379,-79.9455220974339,11.0900001525879,0.155960083007812,-0.939926147460938,0.33636474609375,-0.0206472216152753,-0.0743152439025521,0.067151873202457
1493002834.6,40.451609161379,-79.9455220974339,11.0900001525879,0.172958374023438,-0.916397094726562,0.311248779296875,-0.00891786122623934,-0.0467326181764925,0.0810615635759409
1493002834.8,40.451609161379,-79.9455220974339,11.0900001525879,0.111358642578125,-0.861465454101562,0.306472778320312,-0.0230485939701998,0.0384427303352938,-0.00673247123572031
1493002835.0,40.451609161379,-79.9455220974339,11.0900001525879,0.0963897705078125,-0.868118286132812,0.364852905273438,-0.0350735652402346,0.0183121619714939,0.00492471748777453
1493002835.2,40.4517085258064,-79.9455653428101,12.0,0.0555572509765625,-0.877105712890625,0.359268188476562,-0.0375878556253784,-0.0465595127056373,-0.00239711129718032
1493002835.4,40.4517085258064,-79.9455653428101,12.0,0.0361328125,-0.932952880859375,0.325057983398438,-0.0457594991141775,0.015190670857812,0.00588958075071024
1493002835.6,40.4517085258064,-79.9455653428101,12.0,0.007232666015625,-0.922088623046875,0.314041137695312,0.0441589392990399,-0.0683521599057557,0.0816607748212087
1493002835.8,40.4517085258064,-79.9455653428101,12.0,-0.0052947998046875,-0.989944458007812,0.326950073242188,-0.00376597609748105,-0.0520831751225707,0.0907240446429664
1493002836.0,40.4517085258064,-79.9455653428101,12.0,0.0045166015625,-0.92974853515625,0.27490234375,-0.0223732163177557,-0.0381391299710248,0.0574449173452272
1493002836.2,40.4518137297839,-79.9456111296747,12.6300001144409,0.0332183837890625,-0.953567504882812,0.275604248046875,0.0734539776060205,-0.0600385699308554,0.0467541897813221
1493002836.4,40.4518137297839,-79.9456111296747,12.6300001144409,0.0575714111328125,-0.962860107421875,0.298202514648438,-0.0441906309160118,-0.0145997154119234,0.0305054450224216
1493002836.6,40.4518137297839,-79.9456111296747,12.6300001144409,0.0388946533203125,-0.88775634765625,0.294815063476562,0.0228022515693674,-0.0224810743419039,0.0333441084283371
1493002836.8,40.4518137297839,-79.9456111296747,12.6300001144409,0.0279388427734375,-0.891372680664062,0.323135375976562,-0.0272840853678618,0.00124902255124716,0.0487632785076779
1493002837.0,40.4518137297839,-79.9456111296747,12.6300001144409,0.0092620849609375,-0.960891723632812,0.31207275390625,-0.00439741159193884,0.0127959564056127,0.0169813803747813
1493002837.2,40.4519277934902,-79.9456607724695,13.0799999237061,-0.0089874267578125,-1.0030517578125,0.31988525390625,0.0154894775321189,0.0307429989916567,-0.025509887449651
1493002837.4,40.4519277934902,-79.9456607724695,13.0799999237061,-0.005584716796875,-0.96759033203125,0.291351318359375,0.0659140359277882,0.0325382358824791,-0.0516536072387409
1493002837.6,40.4519277934902,-79.9456607724695,13.0799999237061,-0.019622802734375,-0.971725463867188,0.325637817382812,-0.00262800736369019,-0.0637933607517581,0.0790375611474806
1493002837.8,40.4519277934902,-79.9456607724695,13.0799999237061,0.0381927490234375,-0.966018676757812,0.289520263671875,-0.0957587506837611,0.0420981852475366,-0.0607970382093099
1493002838.0,40.4519277934902,-79.9456607724695,13.0799999237061,0.0407867431640625,-0.974090576171875,0.314605712890625,0.067385698746166,0.011260111404964,-0.0153323510278042
1493002838.2,40.4520397871608,-79.9457095143437,13.2200002670288,0.0278167724609375,-0.904495239257812,0.275558471679688,-0.0583605121279964,-0.00813329396910199,-0.0197683784555492
1493002838.4,40.4520397871608,-79.9457095143437,13.2200002670288,-0.023223876953125,-0.865325927734375,0.303070068359375,-0.0673097986550987,-0.00700624419578046,0.0121235082303677
1493002838.6,40.4520397871608,-79.9457095143437,13.2200002670288,0.0184478759765625,-0.885971069335938,0.24542236328125,-0.053203300677058,-0.0283773129953393,-0.0185971202081323
1493002838.8,40.4520397871608,-79.9457095143437,13.2200002670288,0.04779052734375,-0.917938232421875,0.25616455078125,-0.034719364815254,-0.000842890485010079,-0.0312735006808005
1493002839.0,40.4520397871608,-79.9457095143437,13.2200002670288,-0.025604248046875,-1.01805114746094,0.341827392578125,0.00642780560701525,-0.0702414063830579,0.0364983564234269
1493002839.2,40.4521522311945,-79.9457584522248,13.5100002288818,0.011016845703125,-0.926361083984375,0.230300903320312,-0.048195226247164,-0.041171937820407,-0.00251961670732397
1493002839.4,40.4521522311945,-79.9457584522248,13.5100002288818,-0.037200927734375,-0.884521484375,0.2484130859375,-0.00996075510911437,-0.00737748885173751,0.0233737659392984
1493002839.6,40.4521522311945,-79.9457584522248,13.5100002288818,-0.0626983642578125,-0.883285522460938,0.229766845703125,-0.0492066948291761,-0.0262726167858497,0.00169643361438047
1493002839.8,40.4521522311945,-79.9457584522248,13.5100002288818,-0.104812622070312,-0.901214599609375,0.36004638671875,-0.0289898400460575,0.118237161864575,-0.150938116889658
1493002840.0,40.4521522311945,-79.9457584522248,13.5100002288818,0.101791381835938,-0.89764404296875,0.301239013671875,-0.115711153570635,0.0922114201117756,-0.131500769357606
1493002840.2,40.4522720614669,-79.9458106047441,13.539999961853,0.167160034179688,-0.99359130859375,0.249267578125,0.0189925996300091,0.0211423032619211,-0.053170810111759
1493002840.4,40.4522720614669,-79.9458106047441,13.539999961853,0.176406860351562,-1.05729675292969,0.28973388671875,0.0357755745035794,-0.0640439642103345,0.0741003268025827
1493002840.6,40.4522720614669,-79.9458106047441,13.539999961853,-0.0192413330078125,-0.907119750976562,0.250213623046875,-0.0317906865644939,0.00340884619530142,0.0679034172620774
1493002840.8,40.4522720614669,-79.9458106047441,13.539999961853,0.0702667236328125,-0.975723266601562,0.196029663085938,-0.0194621149301901,-0.00625283592339704,0.0179425152121909
1493002841.0,40.4522720614669,-79.9458106047441,13.539999961853,0.012481689453125,-0.924163818359375,0.2618408203125,-0.0187835414844379,-0.0264651633326624,0.0350610483831112
1493002841.2,40.4523840559298,-79.945859346963,13.4399995803833,-0.0103607177734375,-0.878890991210938,0.31292724609375,-0.0696869362441034,-0.0165621988192028,0.0249183993715444
1493002841.4,40.4523840559298,-79.945859346963,13.4399995803833,0.125656127929688,-0.894500732421875,0.235305786132812,-0.0612298018864478,0.0312426080121556,-0.0220317990660075
1493002841.6,40.4523840559298,-79.945859346963,13.4399995803833,0.0783538818359375,-0.89691162109375,0.218231201171875,0.0140055641727267,-0.121342674011716,0.0772239484451367
1493002841.8,40.4523840559298,-79.945859346963,13.4399995803833,0.0087432861328125,-0.884140014648438,0.302032470703125,-0.0105312042146093,-0.104161556555179,0.0897229623892056
1493002842.0,40.4523840559298,-79.945859346963,13.4399995803833,-0.0029144287109375,-0.872116088867188,0.279220581054688,-0.0258909858016413,-0.110451676733837,0.0416023046525638
1493002842.2,40.4524842044042,-79.945902933572,13.539999961853,-0.0645599365234375,-0.851486206054688,0.306686401367188,-0.0430449390150597,0.0885567641478599,-0.0742380122309398
1493002842.4,40.4524842044042,-79.945902933572,13.539999961853,0.0189666748046875,-0.940536499023438,0.24822998046875,-0.0163845659744945,0.0809486455457215,-0.00357529376343138
1493002842.6,40.4524842044042,-79.945902933572,13.539999961853,0.0629425048828125,-0.980697631835938,0.202789306640625,-0.0142945171510003,0.127730798518489,-0.0527204695714266
1493002842.8,40.4524842044042,-79.945902933572,13.539999961853,0.117050170898438,-0.947174072265625,0.2010498046875,-0.0153912068878949,0.135184986409621,-0.0463536503533742
1493002843.0,40.4524842044042,-79.945902933572,13.539999961853,0.12823486328125,-0.87078857421875,0.23895263671875,0.0330626123011157,0.0189329448215913,0.00668693118107996
1493002843.2,40.4526174159445,-79.9459642823792,13.789999961853,0.044219970703125,-0.98626708984375,0.190521240234375,-0.0585770271246199,0.02483637400997,-0.0635704541685184
1493002843.4,40.4526174159445,-79.9459642823792,13.789999961853,-0.005523681640625,-1.00318908691406,0.202529907226562,0.0141539022454441,-0.0436995440110012,0.0311778931976666
1493002843.6,40.4526174159445,-79.9459642823792,13.789999961853,0.034088134765625,-0.921707153320312,0.270645141601562,-0.0160929498351308,0.0437099303392525,-0.0450585551152686
1493002843.8,40.4526174159445,-79.9459642823792,13.789999961853,-0.012603759765625,-0.89111328125,0.238433837890625,0.00204504140107185,-0.0340418566339379,0.0651478444821724
1493002844.0,40.4526174159445,-79.9459642823792,13.789999961853,-0.06396484375,-0.908218383789062,0.246337890625,-0.0153171710095907,0.026687270967575,-0.0332783283494121
1493002844.2,40.4527402274663,-79.9460209148214,14.1099996566772,0.07501220703125,-0.928939819335938,0.212371826171875,-0.0623770916840539,0.039761527707101,-0.0114033894716103
1493002844.4,40.4527402274663,-79.9460209148214,14.1099996566772,-0.00225830078125,-0.922866821289062,0.212127685546875,0.00969390636788843,-0.0723911100149699,0.0301400593208628
1493002844.6,40.4527402274663,-79.9460209148214,14.1099996566772,-0.0334625244140625,-0.958984375,0.179946899414062,0.0163659238468639,-0.0639273177545891,0.0141933170295773
1493002844.8,40.4527402274663,-79.9460209148214,14.1099996566772,0.007354736328125,-0.975448608398438,0.258453369140625,-0.0519566749707919,-0.0581618403106765,0.0294721385194709
1493002845.0,40.4527402274663,-79.9460209148214,14.1099996566772,-0.0327911376953125,-0.89031982421875,0.222183227539062,-0.000134489635049002,0.00744912788506064,0.0138401818690328
1493002845.2,40.4528594709711,-79.9460759019332,14.0500001907349,0.029022216796875,-0.8802490234375,0.190185546875,-0.0282430896763993,0.022517825964947,-0.024870196155814
1493002845.4,40.4528594709711,-79.9460759019332,14.0500001907349,0.0846099853515625,-0.934555053710938,0.143218994140625,-0.0685039600878902,0.0993593444775483,-0.0755927622774631
1493002845.6,40.4528594709711,-79.9460759019332,14.0500001907349,0.114517211914062,-0.9610595703125,0.158920288085938,-0.0267280173322532,-0.0742792912278361,0.0446990283681079
1493002845.8,40.4528594709711,-79.9460759019332,14.0500001907349,-0.0065155029296875,-0.949615478515625,0.217208862304688,0.0149709600678804,-0.0649782011207343,0.0376384556860899
1493002846.0,40.4528594709711,-79.9460759019332,14.0500001907349,-0.0463714599609375,-0.936004638671875,0.151138305664062,-0.00350631789119832,-0.0701726968269339,0.0619856070038123
1493002846.2,40.4529737751446,-79.9461286113566,13.7299995422363,0.155990600585938,-1.01593017578125,0.182571411132812,-0.0684893127018948,0.0642532886720148,-0.0957600822643062
1493002846.4,40.4529737751446,-79.9461286113566,13.7299995422363,0.146804809570312,-1.020751953125,0.177993774414062,-0.0236081241152254,0.101192930888068,-0.0868661894878776
1493002846.6,40.4529737751446,-79.9461286113566,13.7299995422363,0.0301666259765625,-0.959365844726562,0.188003540039062,0.000490820588901604,-0.0276555963399279,0.0267317457577794
1493002846.8,40.4529737751446,-79.9461286113566,13.7299995422363,0.0314788818359375,-0.951080322265625,0.174102783203125,-0.0140625558200544,-0.0254374494680009,0.00205409614877812
1493002847.0,40.4529737751446,-79.9461286113566,13.7299995422363,0.0241851806640625,-0.927947998046875,0.173248291015625,-0.0696150308946713,-0.00698919996480395,0.0248944309217337
1493002847.2,40.453087830007,-79.9461812058144,13.289999961853,0.0727691650390625,-0.932785034179688,0.1163330078125,-0.0305608387730953,-0.0487278584651798,0.0275344225103292
1493002847.4,40.453087830007,-79.9461812058144,13.289999961853,-0.0029754638671875,-0.946197509765625,0.10882568359375,-0.0396467454641186,-0.0391002648084344,-0.00350365473010825
1493002847.6,40.453087830007,-79.9461812058144,13.289999961853,-0.0201416015625,-1.03932189941406,0.105133056640625,0.0278015375676642,-0.0448622801429298,-0.0326522191771345
1493002847.8,40.453087830007,-79.9461812058144,13.289999961853,0.0735626220703125,-0.928985595703125,0.078338623046875,-0.0593307017131123,0.025913888987016,-0.00813782134295513
1493002848.0,40.453087830007,-79.9461812058144,13.289999961853,0.0894775390625,-1.00088500976562,0.0959625244140625,-0.0204144613360024,0.0490578241242406,-0.0376531030720853
1493002848.2,40.4531955568441,-79.946230882211,12.3800001144409,-0.0064544677734375,-0.950393676757812,0.110305786132812,-0.0329174700217064,0.00234065228207064,-0.00567413101852282
1493002848.4,40.4531955568441,-79.946230882211,12.3800001144409,0.0313262939453125,-0.976470947265625,0.10595703125,-0.0298423179109919,-0.0753237830073651,0.0382725543416377
1493002848.6,40.4531955568441,-79.946230882211,12.3800001144409,-0.0649566650390625,-1.00679016113281,0.0046539306640625,-0.0161760404611413,-0.011594338121769,0.00839401743982075
1493002848.8,40.4531955568441,-79.946230882211,12.3800001144409,0.052276611328125,-1.03541564941406,-0.040191650390625,-0.0226757514175887,0.037372139577082,-0.0344474560679569
1493002849.0,40.4531955568441,-79.946230882211,12.3800001144409,-0.02099609375,-1.00038146972656,0.047210693359375,-0.00231721646447795,-0.0308332801526104,-0.00314279640240251
1493002849.2,40.4532985969486,-79.9462783974008,11.210000038147,0.0121917724609375,-1.00605773925781,0.032501220703125,-0.00248632719369798,-0.00849015755517261,0.0213207350549564
1493002849.4,40.4532985969486,-79.9462783974008,11.210000038147,0.0044097900390625,-0.985427856445312,-0.0071868896484375,-0.0423860729613741,-0.0539686931743468,0.0327579466724107
1493002849.6,40.4532985969486,-79.9462783974008,11.210000038147,-0.0924224853515625,-0.972518920898438,0.0418548583984375,-0.0483438306359904,0.0300937203178954,-0.0304266154541553
1493002849.8,40.4532985969486,-79.9462783974008,11.210000038147,-0.0232391357421875,-0.987548828125,-0.009490966796875,-0.0696698920131269,0.0780918726443935,-0.0798146715535658
1493002850.0,40.4532985969486,-79.9462783974008,11.210000038147,0.0585784912109375,-1.00736999511719,-0.0062713623046875,-0.000291616139363677,-0.0446747936021882,-0.00308633738729283
1493002850.2,40.4533834686728,-79.9463175345513,9.3100004196167,-0.03302001953125,-1.04620361328125,0.026214599609375,0.00525787894014344,-0.0978916764008056,0.0290942359607887
1493002850.4,40.4533834686728,-79.9463175345513,9.3100004196167,0.0183258056640625,-0.966293334960938,-0.0223388671875,-0.0324412968188002,-0.0604204672311727,0.00302242152113093
1493002850.6,40.4533834686728,-79.9463175345513,9.3100004196167,0.0636749267578125,-1.00498962402344,0.0080108642578125,-0.0222736140929867,0.0480029460164603,-0.0579274821347495
1493002850.8,40.4533834686728,-79.9463175345513,9.3100004196167,0.0680694580078125,-1.01234436035156,-0.0173187255859375,-0.0113338809671592,0.0192179030582298,-0.0172250596145235
1493002851.0,40.4533834686728,-79.9463175345513,9.3100004196167,0.148468017578125,-1.00254821777344,-0.0263214111328125,0.0109541141957139,0.0967196192050617,-0.0470508659267569
1493002851.2,40.4534499308145,-79.9463481824363,7.25,0.0572509765625,-0.95977783203125,-0.0704345703125,-0.0391740343706296,0.0608894498991357,0.01650121243024
1493002851.4,40.4534499308145,-79.9463481824363,7.25,0.04180908203125,-1.04689025878906,-0.090545654296875,-0.0596742494937325,0.038685876942818,0.0238121222547255
1493002851.6,40.4534499308145,-79.9463481824363,7.25,0.0456695556640625,-0.987380981445312,-0.109710693359375,-0.0414600918503536,0.0842975706164961,-0.0368933032130857
1493002851.8,40.4534499308145,-79.9463481824363,7.25,0.0702056884765625,-1.03913879394531,-0.14697265625,-0.0340895272174503,0.0810591667309598,-0.0325446274690953
1493002852.0,40.4534499308145,-79.9463481824363,7.25,0.0363006591796875,-1.01669311523438,-0.104446411132812,-0.0136058236931058,0.0256172128415812,-0.00340405250533928
1493002852.2,40.4534831995905,-79.9463635237659,4.03000020980835,0.0264434814453125,-1.06468200683594,-0.112319946289062,0.00444002216938011,0.0435852944002368,0.0105951200807712
1493002852.4,40.4534831995905,-79.9463635237659,4.03000020980835,0.0117950439453125,-1.03788757324219,-0.095306396484375,-0.0241426205460043,0.038450187186346,-0.0046112634274722
1493002852.6,40.4534831995905,-79.9463635237659,4.03000020980835,0.0090789794921875,-1.03083801269531,-0.04864501953125,-0.0282164580654985,0.0416659542026167,-0.0163896259805656
1493002852.8,40.4534831995905,-79.9463635237659,4.03000020980835,0.033935546875,-1.02598571777344,-0.064971923828125,-0.0322436902659164,0.049136121060289,-0.0292447045623781
1493002853.0,40.4534831995905,-79.9463635237659,4.03000020980835,0.0479583740234375,-1.00306701660156,0.0582122802734375,-0.0189055142623635,0.017140903724077,-0.00983372232511759
1493002853.2,40.4535024355037,-79.9463723940797,1.12000000476837,0.0315093994140625,-0.96209716796875,0.142440795898438,0.00619531164385133,-0.0159952118231249,0.00543577810096073
1493002853.4,40.4535024355037,-79.9463723940797,1.12000000476837,0.060760498046875,-0.958114624023438,0.152740478515625,-0.0318767066677034,-0.000857271554896507,-0.00565522257478326
1493002853.6,40.4535024355037,-79.9463723940797,1.12000000476837,0.0293426513671875,-0.964767456054688,0.16607666015625,-0.00940814918292292,0.00963345261114363,-0.00758468278454567
1493002853.8,40.4535024355037,-79.9463723940797,1.12000000476837,0.0550079345703125,-0.940292358398438,0.273635864257812,-0.00312761638418906,0.00108337393144423,-0.00429967357993293
1493002854.0,40.4535024355037,-79.9463723940797,1.12000000476837,0.073944091796875,-0.927749633789062,0.286575317382812,-0.0105341336918084,0.00538624330468526,-0.00545282233193724
1493002854.2,40.4535081952683,-79.9463750500971,0.409999996423721,0.0717926025390625,-0.927017211914062,0.372528076171875,-0.00814767503898842,0.0181334638623495,-0.0171896395720255
1493002854.4,40.4535081952683,-79.9463750500971,0.409999996423721,0.118408203125,-0.899276733398438,0.414627075195312,0.00895860759091755,0.0254680758205368,-0.0180996417165055
1493002854.6,40.4535081952683,-79.9463750500971,0.409999996423721,0.127212524414062,-0.884918212890625,0.421005249023438,-0.0112965967118981,0.055386826454814,-0.000258592941846694
1493002854.8,40.4535081952683,-79.9463750500971,0.409999996423721,0.0424346923828125,-0.91192626953125,0.445358276367188,-0.0060901167807932,0.055354335889515,0.00832450893536968
1493002855.0,40.4535081952683,-79.9463750500971,0.409999996423721,0.0586395263671875,-0.877853393554688,0.456634521484375,-0.0349497282495459,0.0289480284169433,0.00169989572379758
1493002855.2,40.4535168828961,-79.9463790562487,1.97000002861023,0.093597412109375,-0.871536254882812,0.404922485351562,-0.0143283392968443,0.0458303391991736,-0.0173243955231835
1493002855.4,40.4535168828961,-79.9463790562487,1.97000002861023,0.178558349609375,-0.857955932617188,0.418106079101562,-0.0293525625865263,0.0959161435041848,-0.0591898204914471
1493002855.6,40.4535168828961,-79.9463790562487,1.97000002861023,0.2532958984375,-0.984542846679688,0.394393920898438,0.127075128258112,0.0948998812322106,-0.051188352996304
1493002855.8,40.4535168828961,-79.9463790562487,1.97000002861023,0.28692626953125,-0.849853515625,0.36541748046875,0.0540259511377835,0.228334105541214,-0.0874656670492544
1493002856.0,40.4535168828961,-79.9463790562487,1.97000002861023,0.095489501953125,-0.822341918945312,0.398956298828125,0.053709301284173,0.158153152914901,0.0523862428546217
1493002856.2,40.4535472501303,-79.9463930595817,3.77999997138977,0.156051635742188,-1.05519104003906,0.372116088867188,0.162387579048127,0.275503748452588,-0.0427631765717294
1493002856.4,40.4535472501303,-79.9463930595817,3.77999997138977,0.3690185546875,-0.933731079101562,0.1904296875,-0.160440808291279,0.353111458410805,-0.144360375313271
1493002856.6,40.4535472501303,-79.9463930595817,3.77999997138977,0.31817626953125,-0.832275390625,0.173812866210938,0.00780572515502225,0.53601922629021,-0.276386586353949
1493002856.8,40.4535472501303,-79.9463930595817,3.77999997138977,0.403732299804688,-0.876571655273438,0.131515502929688,0.000509729032641166,0.564787757649682,-0.272270670889232
1493002857.0,40.4535472501303,-79.9463930595817,3.77999997138977,0.612197875976562,-1.00230407714844,0.265533447265625,-0.270578498332596,0.780334695216881,-0.421673741726568
1493002857.2,40.4535711048296,-79.9464040597701,5.1399998664856,0.54949951171875,-0.88140869140625,0.208511352539062,-0.151633734566387,0.582796851889125,-0.272808629429428
1493002857.4,40.4535711048296,-79.9464040597701,5.1399998664856,0.385910034179688,-0.8995361328125,0.264572143554688,-0.112039986007961,0.551711370381284,-0.148642205713901
1493002857.6,40.4535711048296,-79.9464040597701,5.1399998664856,0.567581176757812,-0.867019653320312,0.133270263671875,0.0202248442663888,0.647630443362668,-0.266951539244017
1493002857.8,40.4535711048296,-79.9464040597701,5.1399998664856,0.482025146484375,-0.753616333007812,0.246383666992188,-0.114479707882582,0.524071753007897,-0.141132357755986
1493002858.0,40.4535711048296,-79.9464040597701,5.1399998664856,0.420440673828125,-0.96429443359375,0.286773681640625,-0.02561215283551,0.537330034178747,-0.0912108704902328
1493002858.2,40.4535572453147,-79.9464493283529,5.71000003814697,0.12548828125,-0.898391723632812,0.324981689453125,-0.045371476543353,0.311974674316787,0.0616369992171209
1493002858.4,40.4535572453147,-79.9464493283529,5.71000003814697,0.126815795898438,-0.841445922851562,0.476287841796875,-0.0240571330750128,0.317130021554963,-0.0916929026475372
1493002858.6,40.4535572453147,-79.9464493283529,5.71000003814697,0.38873291015625,-0.99554443359375,0.373123168945312,-0.0128356375058549,0.230906452838121,-0.0252502292433683
1493002858.8,40.4535572453147,-79.9464493283529,5.71000003814697,0.267715454101562,-0.951766967773438,0.431488037109375,0.0749610604668964,0.238840276041576,-0.0552920179200071
1493002859.0,40.4535572453147,-79.9464493283529,5.71000003814697,0.001708984375,-0.998428344726562,0.290435791015625,0.0134489635049002,0.473213898302872,-0.333742287802659
1493002859.2,40.4535334595484,-79.9465205755873,6.92000007629395,0.130096435546875,-0.973800659179688,0.47808837890625,-0.118753282483832,0.453888137220494,-0.178312483418473
1493002859.4,40.4535334595484,-79.9465205755873,6.92000007629395,0.32666015625,-0.65936279296875,0.337020874023438,0.0154141100732696,-0.0957994970484394,0.22111134634881
1493002859.6,40.4535334595484,-79.9465205755873,6.92000007629395,0.117996215820312,-0.5162353515625,0.442947387695312,-0.128491397325816,-0.118290425086377,0.0640287841921211
1493002859.8,40.4535334595484,-79.9465205755873,6.92000007629395,-0.29132080078125,-0.688323974609375,0.527328491210938,-0.105606587762656,-0.38219610699167,0.347490856930193
1493002860.0,40.4535334595484,-79.9465205755873,6.92000007629395,-0.568130493164062,-1.20564270019531,0.454559326171875,0.385639840597251,-0.181180974228598,0.201665476701269
1493002860.2,40.45350027244,-79.9466199833453,9.31999969482422,-0.301910400390625,-0.967987060546875,0.419097900390625,-0.104911502718145,-0.16206187444681,0.0291980992433017
1493002860.4,40.45350027244,-79.9466199833453,9.31999969482422,0.314071655273438,-1.12432861328125,0.2454833984375,0.164663782831817,0.242471762504008,-0.303877066706292
1493002860.6,40.45350027244,-79.9466199833453,9.31999969482422,0.131484985351562,-0.837448120117188,0.373886108398438,0.0359587999865769,-0.150203617061014,0.091383975961088
1493002860.8,40.45350027244,-79.9466199833453,9.31999969482422,0.00128173828125,-1.08026123046875,0.404815673828125,0.00575615638009727,-0.164896010478872,0.111370733626024
1493002861.0,40.45350027244,-79.9466199833453,9.31999969482422,0.042510986328125,-0.739913940429688,0.4390869140625,0.000262321367372805,-0.0138343229146346,-0.0266169635147969
1493002861.2,40.4534634387801,-79.946730313884,10.9700002670288,0.0769500732421875,-0.807937622070312,0.293014526367188,-0.117861656150874,-0.0439173905881697,-0.0490730041424541
1493002861.4,40.4534634387801,-79.946730313884,10.9700002670288,0.188919067382812,-1.04750061035156,0.280242919921875,0.0613829336491274,0.00279658546069221,0.029409021601636
1493002861.6,40.4534634387801,-79.946730313884,10.9700002670288,0.0863800048828125,-0.9388427734375,0.383026123046875,0.0227362051743335,0.00516679883086273,-0.0243034754758451
1493002861.8,40.4534634387801,-79.946730313884,10.9700002670288,-0.0487823486328125,-0.791000366210938,0.253860473632812,-0.13356392025409,-0.0608020982153811,0.154456685321871
1493002862.0,40.4534634387801,-79.946730313884,10.9700002670288,-0.0814208984375,-0.81072998046875,0.180374145507812,-0.0759032868605664,-0.101603856644267,0.121033481009158
1493002862.2,40.453422651966,-79.9468579129094,12.1800003051758,0.0261688232421875,-0.91192626953125,0.405197143554688,-0.160408051409871,0.143552372238541,-0.183269158839329
1493002862.4,40.453422651966,-79.9468579129094,12.1800003051758,-0.233779907226562,-0.9361572265625,0.342941284179688,0.228085898927618,-0.175926291081762,0.0454377892544959
1493002862.6,40.453422651966,-79.9468579129094,12.1800003051758,0.568618774414062,-1.05058288574219,-0.029052734375,-0.216727783194539,0.396028299377432,-0.132252846049444
1493002862.8,40.453422651966,-79.9468579129094,12.1800003051758,0.0181121826171875,-1.0068359375,0.219268798828125,0.102646750527142,-0.0719106757543196,0.163301043302024
1493002863.0,40.453422651966,-79.9468579129094,12.1800003051758,-0.10772705078125,-0.99688720703125,0.304031372070312,0.140100116517471,-0.170027122951128,0.0967662245241381
1493002863.2,40.4533780374106,-79.9469982296661,12.7799997329712,0.05377197265625,-0.890396118164062,0.381210327148438,-0.0268782196177337,0.0969598363353869,-0.0836901035718491
1493002863.4,40.4533780374106,-79.9469982296661,12.7799997329712,-0.03759765625,-0.844329833984375,0.304168701171875,0.101653924072761,0.170581859406191,-0.0974911369728577
1493002863.6,40.4533780374106,-79.9469982296661,12.7799997329712,-0.0099639892578125,-0.84063720703125,0.286712646484375,-0.0371484340455153,0.000240217130325147,-0.00891067069129612
1493002863.8,40.4533780374106,-79.9469982296661,12.7799997329712,0.175277709960938,-0.95037841796875,0.394027709960938,-0.150585514361331,0.108404771120002,-0.0647281302943759
1493002864.0,40.4533780374106,-79.9469982296661,12.7799997329712,0.243988037109375,-0.9288330078125,0.203628540039062,-0.192274638065432,0.107601561735235,-0.131258155382299
1493002864.2,40.4533317087755,-79.947143937356,13.4700002670288,-0.022918701171875,-1.0062255859375,0.241119384765625,0.0249857773471234,-0.092695050165734,0.068732725625528
1493002864.4,40.4533317087755,-79.947143937356,13.4700002670288,0.0589599609375,-0.918197631835938,0.2044677734375,0.142545164714273,-0.1572809676579,0.080765153746615
1493002864.6,40.4533317087755,-79.947143937356,13.4700002670288,-0.0381622314453125,-0.840133666992188,0.197296142578125,-0.0427437354957718,-0.362417874840087,0.20094589057473
1493002864.8,40.4533317087755,-79.947143937356,13.4700002670288,0.0615997314453125,-0.797027587890625,0.246307373046875,-0.134860879704959,-0.237371276384289,0.152766643294106
1493002865.0,40.4533317087755,-79.947143937356,13.4700002670288,-0.163665771484375,-0.89471435546875,0.206893920898438,-0.131294907005342,-0.0278651871177171,0.00725738028657493
1493002865.2,40.4532827290147,-79.9472979830731,13.9300003051758,-0.0754241943359375,-0.954788208007812,0.3079833984375,-0.135629734311664,-0.0906010066006047,-0.0214128804286731
1493002865.4,40.4532827290147,-79.9472979830731,13.9300003051758,0.078216552734375,-0.978164672851562,0.25921630859375,0.118902419504877,0.00561367726177803,0.0299906559837093
1493002865.6,40.4532827290147,-79.9472979830731,13.9300003051758,0.0366058349609375,-0.896011352539062,0.240325927734375,-0.048935052397988,0.00989204555299032,0.00160588613731778
1493002865.8,40.4532827290147,-79.9472979830731,13.9300003051758,0.29815673828125,-0.970291137695312,0.24237060546875,-0.0142939845187823,0.156441272966198,-0.114634970174134
1493002866.0,40.4532827290147,-79.9472979830731,13.9300003051758,0.24200439453125,-0.948516845703125,0.272109985351562,0.109423163920849,-0.00920681420451294,0.0917722648480215
1493002866.2,40.4532491907502,-79.9474034639066,14.4700002670288,-0.062408447265625,-1.00729370117188,0.31109619140625,0.00628053279873387,-0.276568480256402,0.24494104546673
1493002866.4,40.4532491907502,-79.9474034639066,14.4700002670288,-0.120391845703125,-0.76727294921875,0.462417602539062,-0.157604009098126,0.0584337490579736,-0.201146426604813
1493002866.6,40.4532491907502,-79.9474034639066,14.4700002670288,0.148651123046875,-0.924560546875,0.044342041015625,-0.230301382638455,0.101462442790384,-0.157220780217264
1493002866.8,40.4532491907502,-79.9474034639066,14.4700002670288,0.248458862304688,-0.66436767578125,0.12725830078125,0.137352799536946,-0.185959217856418,0.133030489087747
1493002867.0,40.4532491907502,-79.9474034639066,14.4700002670288,0.5023193359375,-0.878311157226562,0.43243408203125,-0.213625733156815,-0.0220315327498985,-0.12048007613464
1493002867.2,40.4531864187019,-79.9476162416916,14.8900003433228,0.120620727539062,-1.09120178222656,0.288330078125,-0.00472817619932668,-0.00527039579726681,0.108719024128632
1493002867.4,40.4531864187019,-79.9476162416916,14.8900003433228,-0.0999298095703125,-0.48590087890625,0.46368408203125,0.115806761053769,-0.047557931798308,-0.00615509791139114
1493002867.6,40.4531864187019,-79.9476162416916,14.8900003433228,-0.162033081054688,-0.986190795898438,0.593505859375,-0.0617334056485818,-0.178281857065937,0.13310479128216
1493002867.8,40.4531864187019,-79.9476162416916,14.8900003433228,0.0612030029296875,-0.964080810546875,0.259262084960938,0.0176333222096327,0.144531882887472,-0.119608423509857
1493002868.0,40.4531864187019,-79.9476162416916,14.8900003433228,-0.009124755859375,-0.81610107421875,0.316314697265625,0.0323835062231455,-0.0363729215360842,0.026014556476221
1493002868.2,40.453136891167,-79.9477830285934,15.3999996185303,-0.01068115234375,-1.04078674316406,0.168838500976562,-0.0400909607339438,0.00451166120270324,-0.0249450309824452
1493002868.4,40.453136891167,-79.9477830285934,15.3999996185303,0.015960693359375,-1.07014465332031,0.265060424804688,-0.0523044838091562,0.0503284182803174,-0.0411815252003313
1493002868.6,40.453136891167,-79.9477830285934,15.3999996185303,0.04376220703125,-1.04335021972656,0.1845703125,-0.0211196663926554,0.0618239531256445,-0.0568851208840925
1493002868.8,40.453136891167,-79.9477830285934,15.3999996185303,0.134246826171875,-0.927474975585938,0.259933471679688,-0.0524504250368926,0.0673396260593076,-0.0988024774936127
1493002869.0,40.453136891167,-79.9477830285934,15.3999996185303,-0.00665283203125,-0.85107421875,0.282760620117188,-0.00541553807667613,-0.0765581581726169,-0.0350429388876986
1493002869.2,40.4530867407165,-79.9479559908716,15.9099998474121,0.0742034912109375,-0.930801391601562,0.204177856445312,-0.14018640293679,0.0349494619334369,-0.00898896762734445
1493002869.4,40.4530867407165,-79.9479559908716,15.9099998474121,0.131210327148438,-1.05802917480469,0.282516479492188,0.034047981904445,0.0369998296566889,-0.0551900188502571
1493002869.6,40.4530867407165,-79.9479559908716,15.9099998474121,0.130279541015625,-0.886550903320312,0.333206176757812,-0.0798327810489783,-0.0271277578118741,0.060026852022059
1493002869.8,40.4530867407165,-79.9479559908716,15.9099998474121,-0.299896240234375,-0.54144287109375,0.31573486328125,-0.0934085110217662,-0.00469009299573855,0.130200081481211
1493002870.0,40.4530867407165,-79.9479559908716,15.9099998474121,0.0085296630859375,-1.02656555175781,0.433868408203125,0.033475934902296,-0.10023392657953,-0.165727982003413
1493002870.2,40.4530356410523,-79.9481322690317,16.1800003051758,0.116256713867188,-0.782211303710938,0.293991088867188,-0.231415116606326,0.0259644890477275,-0.0397538045399398
1493002870.4,40.4530356410523,-79.9481322690317,16.1800003051758,-0.142349243164062,-1.1165771484375,0.36956787109375,0.170573869922921,-0.0893708924930971,0.170438847655654
1493002870.6,40.4530356410523,-79.9481322690317,16.1800003051758,0.364456176757812,-0.681381225585938,0.178298950195312,0.0487110805503123,-0.123678532603825,0.185272921243505
1493002870.8,40.4530356410523,-79.9481322690317,16.1800003051758,0.493087768554688,-1.10615539550781,0.136322021484375,-0.102237955299815,-0.337539955517112,0.359138458273764
1493002871.0,40.4530356410523,-79.9481322690317,16.1800003051758,0.0733795166015625,-0.763534545898438,0.10491943359375,0.0449815897597654,0.0496911238314615,-0.0689716111753081
1493002871.2,40.4529833790832,-79.948313317986,16.3899993896484,0.366867065429688,-0.857467651367188,0.15435791015625,-0.238568633610388,0.0483475590615165,-0.0494807341053452
1493002871.4,40.4529833790832,-79.948313317986,16.3899993896484,0.089141845703125,-1.10006713867188,0.2335205078125,-0.335162285295889,0.113864783986883,-0.0367779883378853
1493002871.6,40.4529833790832,-79.948313317986,16.3899993896484,0.010284423828125,-0.952362060546875,0.054290771484375,0.0885295999047411,-0.0675604021136752,0.185535775243095
1493002871.8,40.4529833790832,-79.948313317986,16.3899993896484,-0.062042236328125,-0.963088989257812,0.206085205078125,-0.0789012072996686,-0.181384972368098,-0.0142005075645205
1493002872.0,40.4529833790832,-79.948313317986,16.3899993896484,-0.0839385986328125,-0.96331787109375,0.087921142578125,-0.0773954560193378,0.162173993528702,-0.0918391101913825
1493002872.2,40.4529358768206,-79.9484831740495,15.5100002288818,-0.0331268310546875,-1.0120849609375,0.208877563476562,0.0218357904097777,0.0381364668099347,-0.0958341181426104
1493002872.4,40.4529358768206,-79.9484831740495,15.5100002288818,0.131423950195312,-0.989578247070312,0.205078125,-0.179374019428979,0.0947504778950572,-0.147086120688967
1493002872.6,40.4529358768206,-79.9484831740495,15.5100002288818,0.0375823974609375,-0.667282104492188,0.261505126953125,0.113146795756998,-0.0219905200691113,0.123829800153741
1493002872.8,40.4529358768206,-79.9484831740495,15.5100002288818,-0.112197875976562,-1.02874755859375,0.200927734375,0.169390094818381,-0.190411490566812,0.201607686105615
1493002873.0,40.4529358768206,-79.9484831740495,15.5100002288818,0.0753631591796875,-0.967422485351562,0.229248046875,0.0626423425286258,-0.0929320715027511,0.118164723882925
1493002873.2,40.4528903563147,-79.948645943853,14.8800001144409,-0.0070648193359375,-1.14547729492188,0.0513458251953125,-0.168585553853068,0.0510623854767433,-0.18098176977906
1493002873.4,40.4528903563147,-79.948645943853,14.8800001144409,0.19378662109375,-1.00418090820312,0.134628295898438,0.0826725097193298,0.14836310643166,-0.123217273103023
1493002873.6,40.4528903563147,-79.948645943853,14.8800001144409,0.121810913085938,-0.961074829101562,0.111328125,-0.101961252862556,0.0304468554784399,-0.00325491548429484
1493002873.8,40.4528903563147,-79.948645943853,14.8800001144409,0.193817138671875,-1.03118896484375,0.03564453125,-0.060666010683678,0.070580959422043,-0.119153022963453
1493002874.0,40.4528903563147,-79.948645943853,14.8800001144409,0.063720703125,-1.13331604003906,0.24853515625,0.081603783173881,-0.149435028770417,0.102511461943766
1493002874.2,40.4528452276841,-79.9488073124097,14.0900001525879,-0.0750885009765625,-1.14088439941406,0.155044555664062,0.103384446149094,-0.0400097343206964,0.126974993401125
1493002874.4,40.4528452276841,-79.9488073124097,14.0900001525879,0.175689697265625,-1.02139282226562,0.123306274414062,0.102937834034288,0.106754676508589,-0.0706579247775463
1493002874.6,40.4528452276841,-79.9488073124097,14.0900001525879,0.19366455078125,-1.08412170410156,0.0987548828125,0.148273091586816,0.120282203265647,-0.107546167984561
1493002874.8,40.4528452276841,-79.9488073124097,14.0900001525879,0.0411376953125,-1.060546875,0.12860107421875,0.043792754649154,-0.103451291492455,0.0892111028276923
1493002875.0,40.4528452276841,-79.9488073124097,14.0900001525879,0.0606842041015625,-0.929229736328125,0.226181030273438,-0.00075420722071044,-0.132950327938936,0.0600433636208175
1493002875.2,40.452805458896,-79.9489495155266,12.7600002288818,0.0352325439453125,-0.963897705078125,0.133743286132812,0.0801899109511579,-0.00795965586602883,0.0498873988038003
1493002875.4,40.452805458896,-79.9489495155266,12.7600002288818,0.1785888671875,-1.06488037109375,0.0543365478515625,-0.0412124178689762,0.0821654438477787,-0.0560771178093625
1493002875.6,40.452805458896,-79.9489495155266,12.7600002288818,0.0846710205078125,-0.999481201171875,-0.0087738037109375,-0.0326191959796175,0.0108457235393477,-0.022752450456983
1493002875.8,40.452805458896,-79.9489495155266,12.7600002288818,0.131484985351562,-1.01123046875,0.116256713867188,0.148954328193658,0.0809212149864937,-0.101040331757606
1493002876.0,40.452805458896,-79.9489495155266,12.7600002288818,0.16729736328125,-1.08486938476562,0.005950927734375,-0.0197385510513403,0.0362922277550548,-0.0162889584913607
1493002876.2,40.4527700576207,-79.9490761015238,11.6400003433228,0.041900634765625,-1.01225280761719,0.0807342529296875,0.0111101754355926,-0.0255967065011876,0.0300337991933686
1493002876.4,40.4527700576207,-79.9490761015238,11.6400003433228,0.0496978759765625,-0.995742797851562,0.156021118164062,-0.0308306169915203,-0.00724672764221462,-0.0077604514164909
1493002876.6,40.4527700576207,-79.9490761015238,11.6400003433228,0.04595947265625,-0.927337646484375,0.156021118164062,-0.0994363098330516,0.077233535825061,-0.00654844680439584
1493002876.8,40.4527700576207,-79.9490761015238,11.6400003433228,0.211441040039062,-0.86767578125,0.0711669921875,-0.161898888988097,0.211650999208521,-0.115222463510605
1493002877.0,40.4527700576207,-79.9490761015238,11.6400003433228,0.236099243164062,-1.03254699707031,0.111053466796875,-0.0383529818065581,0.0342916611441873,0.0197769005710374
1493002877.2,40.452731545789,-79.9492027796298,10.4200000762939,0.17181396484375,-1.14164733886719,0.146392822265625,0.0723016278023432,0.129291144601167,-0.076360817935842
1493002877.4,40.452731545789,-79.9492027796298,10.4200000762939,0.0109405517578125,-0.822982788085938,0.09197998046875,-0.0762771946776135,-0.0303589711624673,-0.0454835956252453
1493002877.6,40.452731545789,-79.9492027796298,10.4200000762939,-0.041839599609375,-1.03480529785156,0.0689849853515625,-0.0511409487289006,-0.116673886304698,0.0157707073432312
1493002877.8,40.452731545789,-79.9492027796298,10.4200000762939,-0.0834503173828125,-1.01258850097656,0.059661865234375,0.0470572575133731,-0.0173294555292546,-0.023996413002159
1493002878.0,40.452731545789,-79.9492027796298,10.4200000762939,-0.0148162841796875,-1.0228271484375,-0.039306640625,0.0100012351576836,0.0999159451453748,-0.0534661546766488
1493002878.2,40.4526996713205,-79.9493076076335,9.06999969482422,0.0210418701171875,-1.00247192382812,-0.02032470703125,-0.0229380727849615,-0.00730318665732429,-0.0396659202239672
1493002878.4,40.4526996713205,-79.9493076076335,9.06999969482422,0.080841064453125,-1.02243041992188,-0.0977630615234375,0.0444372396329532,-0.0566552900820187,0.0677726560525545
1493002878.6,40.4526996713205,-79.9493076076335,9.06999969482422,0.0610198974609375,-1.00474548339844,-0.0153961181640625,0.0728062968289132,-0.151502174408537,0.121618577500649
1493002878.8,40.4526996713205,-79.9493076076335,9.06999969482422,-0.0177764892578125,-1.06181335449219,-0.03143310546875,-0.0320777753300044,-0.0412784642640102,-0.0130164661438713
1493002879.0,40.4526996713205,-79.9493076076335,9.06999969482422,-0.003814697265625,-1.07795715332031,-0.044464111328125,-0.0483390369460283,-0.013510216209972,0.0229966623289432
1493002879.2,40.4526749605447,-79.9493888758529,6.69000005722046,0.024017333984375,-1.05731201171875,-0.0269622802734375,0.021141504313594,-0.0224757480197237,-0.000791757792080558
1493002879.4,40.4526749605447,-79.9493888758529,6.69000005722046,-0.00732421875,-1.03152465820312,0.0133056640625,0.0421666284875516,-0.0598303107336112,0.0762873146897558
1493002879.6,40.4526749605447,-79.9493888758529,6.69000005722046,0.0093231201171875,-1.08210754394531,0.0219573974609375,-0.0543505904746641,0.0152473961890307,0.0111325459887492
1493002879.8,40.4526749605447,-79.9493888758529,6.69000005722046,0.075958251953125,-1.03717041015625,0.0063018798828125,-0.0414334602394528,0.0683399093647414,-0.0475139896403217
1493002880.0,40.4526749605447,-79.9493888758529,6.69000005722046,0.0819091796875,-0.941741943359375,0.0546875,0.00852051759159951,0.0393055945284795,0.021310082410596
1493002880.2,40.4526577098362,-79.9494456095781,4.26000022888184,0.084808349609375,-1.04353332519531,0.05340576171875,-0.0282841023571865,-0.0987311047763986,0.0671366931842435
1493002880.4,40.4526577098362,-79.9494456095781,4.26000022888184,0.0680389404296875,-0.993637084960938,0.062713623046875,-0.0311288910336092,-0.0157517988994917,0.00931786802196924
1493002880.6,40.4526577098362,-79.9494456095781,4.26000022888184,0.0029144287109375,-0.983673095703125,0.0334320068359375,-0.0274952740423051,0.01932522845016,-0.00353002002490003
1493002880.8,40.4526577098362,-79.9494456095781,4.26000022888184,0.0461273193359375,-0.99847412109375,0.00994873046875,0.021477062610944,-0.00120561302547887,-0.0136377816261868
1493002881.0,40.4526577098362,-79.9494456095781,4.26000022888184,0.0548858642578125,-1.02865600585938,0.037506103515625,-0.00649891200812037,-0.00102025701360936,0.00739959308878516
1493002881.2,40.45264733706,-79.9494797233209,2.52999997138977,0.0380096435546875,-1.01559448242188,0.077850341796875,-0.00852717549432471,0.00856605764623987,0.00522165994931836
1493002881.4,40.45264733706,-79.9494797233209,2.52999997138977,0.0443115234375,-0.981857299804688,0.0898284912109375,-0.00665071219025488,-0.0212299212617847,0.00745019314949667
1493002881.6,40.45264733706,-79.9494797233209,2.52999997138977,0.030670166015625,-0.974945068359375,0.13580322265625,0.00434015362850213,-0.0106672917463124,-0.0116563897751678
1493002881.8,40.45264733706,-79.9494797233209,2.52999997138977,0.0339813232421875,-0.967803955078125,0.138137817382812,-0.0188575773627421,0.000119043300726542,-0.0225838723599809
1493002882.0,40.45264733706,-79.9494797233209,2.52999997138977,0.0608673095703125,-0.96929931640625,0.148117065429688,-0.00106739496490376,-0.0042482745708944,-0.00213239308482645
1493002882.2,40.4526417063329,-79.9494982415243,1.28999996185303,0.0386810302734375,-0.968841552734375,0.140090942382812,-0.0077034597691632,-0.0137765323189799,0.0106188222144729
1493002882.4,40.4526417063329,-79.9494982415243,1.28999996185303,0.0363311767578125,-0.981002807617188,0.133956909179688,-0.0129418976333491,-0.00629677808138335,0.00841345851577833
1493002882.6,40.4526417063329,-79.9494982415243,1.28999996185303,0.027587890625,-0.972213745117188,0.1412353515625,-0.015090003368607,-0.0126654615121988,0.00627547279266272
1493002882.8,40.4526417063329,-79.9494982415243,1.28999996185303,0.048675537109375,-0.967971801757812,0.189453125,-0.00423762192653408,-0.00103650229625884,-0.00217313944950466
1493002883.0,40.4526417063329,-79.9494982415243,1.28999996185303,0.0342864990234375,-0.949554443359375,0.220855712890625,-0.00542885388212653,-0.00421871348279452,0.00528637476380729
1493002883.2,40.4526401566857,-79.9495033379675,0.469999998807907,0.0298919677734375,-0.949127197265625,0.238601684570312,-0.0224565732598752,-0.0147461892718777,-0.00125807729895343
1493002883.4,40.4526401566857,-79.9495033379675,0.469999998807907,0.05792236328125,-0.9522705078125,0.2183837890625,-0.0033206955632198,-0.0148702925786754,0.00107059075821185
1493002883.6,40.4526401566857,-79.9495033379675,0.469999998807907,0.0252685546875,-0.948715209960938,0.218994140625,-0.00983958127951576,-0.0126987510258248,0.0116603845168029
1493002883.8,40.4526401566857,-79.9495033379675,0.469999998807907,0.0611114501953125,-0.959442138671875,0.201217651367188,-0.0127102026185122,0.00114569190095209,-0.00439794422415685
1493002884.0,40.4526401566857,-79.9495033379675,0.469999998807907,0.03656005859375,-0.94573974609375,0.216506958007812,-0.0065002435886654,-0.00314785640847366,0.0063388560266066
1493002884.2,40.4526380277044,-79.9495103397113,0.479999989271164,0.0391387939453125,-0.959320068359375,0.243438720703125,-0.0011326424116107,-0.00318327645097171,0.00319526067587707
1493002884.4,40.4526380277044,-79.9495103397113,0.479999989271164,0.0390472412109375,-0.962890625,0.2413330078125,-0.019055982863953,-0.000941161129234003,-0.00872238520222752
1493002884.6,40.4526380277044,-79.9495103397113,0.479999989271164,0.0380096435546875,-0.934783935546875,0.202499389648438,-0.034079407205308,-0.0125440213664912,-0.00671382910808976
1493002884.8,40.4526380277044,-79.9495103397113,0.479999989271164,0.0369110107421875,-0.941696166992188,0.187911987304688,-0.0276643847715251,-0.00513936827163491,-0.00453483070418693
1493002885.0,40.4526380277044,-79.9495103397113,0.479999989271164,0.0322418212890625,-0.961196899414062,0.188644409179688,-0.0192384093986234,-0.0115759623102474,-0.0012333099008157
1493002885.2,40.4526364288025,-79.9495155981423,0.46000000834465,0.040863037109375,-0.967330932617188,0.18438720703125,-0.0127581395181336,-0.0052363073353138,-0.00438196525761638
1493002885.4,40.4526364288025,-79.9495155981423,0.46000000834465,0.04254150390625,-0.965927124023438,0.18487548828125,-0.0127927606123046,-0.00204424245274482,-0.00012570120345174
1493002885.6,40.4526364288025,-79.9495155981423,0.46000000834465,0.036865234375,-0.961135864257812,0.170822143554688,-0.0223953205548033,-0.0104920557465852,-0.00340085671203119
1493002885.8,40.4526364288025,-79.9495155981423,0.46000000834465,0.0393524169921875,-0.96783447265625,0.178817749023438,-0.0160109244735564,-0.00521446941437515,-0.000150468601589477
1493002886.0,40.4526364288025,-79.9495155981423,0.46000000834465,0.0473480224609375,-0.9771728515625,0.199371337890625,-0.0116827550699596,7.56337749582504e-05,-0.00225223533388001
1493002886.2,40.4526360429555,-79.9495168671069,0.0,0.041046142578125,-0.942733764648438,0.240447998046875,-0.0128473554146513,-0.00736230883352405,0.000953677986357375
1493002886.4,40.4526360429555,-79.9495168671069,0.0,0.040924072265625,-0.95758056640625,0.22601318359375,-0.0117746341275673,-0.00630556651298061,0.000961933785736621
1493002886.6,40.4526360429555,-79.9495168671069,0.0,0.044708251953125,-0.960968017578125,0.218170166015625,-0.0149315452837473,-0.00522165994931836,-0.00120561302547887
1493002886.8,40.4526360429555,-79.9495168671069,0.0,0.0447998046875,-0.947189331054688,0.232894897460938,-0.0127861027095794,-0.00310817530823148,-0.00118910142672038
1493002887.0,40.4526360429555,-79.9495168671069,0.0,0.0419158935546875,-0.959991455078125,0.218460083007812,-0.012839365931381,-0.00629864229414641,0.000951014825267296
1493002887.2,40.4526360400829,-79.9495168765542,0.0,0.0435028076171875,-0.953506469726562,0.223220825195312,-0.0139107556379199,-0.00522778521982554,0.00200349608806661
1493002887.4,40.4526360400829,-79.9495168765542,0.0,0.0428619384765625,-0.95330810546875,0.226119995117188,-0.0128020816761199,-0.00523550838698677,-0.00118377510454022
1493002887.6,40.4526360400829,-79.9495168765542,0.0,0.04376220703125,-0.963104248046875,0.223159790039062,-0.0138734713826588,-0.00416465131266591,-0.000131293841740906
1493002887.8,40.4526360400829,-79.9495168765542,0.0,0.0432586669921875,-0.953292846679688,0.230361938476562,-0.0117519972583017,-0.00524216628971197,-0.000106792759712177
1493002888.0,40.4526360400829,-79.9495168765542,0.0,0.0451507568359375,-0.9512939453125,0.220382690429688,-0.0149448610891977,-0.00309379423834505,0.000921187421058408
1493002888.2,40.452636037215,-79.949516885986,0.0,0.04241943359375,-0.954086303710938,0.219757080078125,-0.0139027661546497,-0.0041641186804479,0.00200083292697653
1493002888.4,40.452636037215,-79.949516885986,0.0,0.0454254150390625,-0.95501708984375,0.229293823242188,-0.0117440077750314,-0.00417849975033432,-0.000109455920802257
1493002888.6,40.452636037215,-79.949516885986,0.0,0.04461669921875,-0.959381103515625,0.224761962890625,-0.0138734713826588,-0.00416465131266591,-0.000131293841740906
1493002888.8,40.452636037215,-79.949516885986,0.0,0.0434417724609375,-0.958175659179688,0.224822998046875,-0.0138894503491993,-0.00629198439142121,-0.000125967519560748
1493002889.0,40.452636037215,-79.949516885986,0.0,0.045135498046875,-0.950286865234375,0.223526000976562,-0.0138961082519245,-0.00522805153593455,0.000937432703707892
1493002889.2,40.4526359255125,-79.9495172533505,0.0,0.0437164306640625,-0.9560546875,0.221527099609375,-0.0127874342901245,-0.00523577470309578,-0.00224983848889894
1493002889.4,40.4526359255125,-79.9495172533505,0.0,0.0412750244140625,-0.956527709960938,0.226837158203125,-0.0107099023237537,-0.00631249073181482,0.000972852746205946
1493002889.6,40.4526359255125,-79.9495172533505,0.0,0.0446624755859375,-0.952911376953125,0.22564697265625,-0.0117519972583017,-0.00524216628971197,-0.000106792759712177
1493002889.8,40.4526359255125,-79.9495172533505,0.0,0.0459136962890625,-0.951278686523438,0.218292236328125,-0.0128074079983001,-0.00204397613663582,0.000940362180906979
1493002890.0,40.4526359255125,-79.9495172533505,0.0,0.0419921875,-0.952392578125,0.222747802734375,-0.0149461926697427,-0.00522139363320935,-0.000139549641120152
1493002890.2,40.4526364467406,-79.949515539148,0.0,0.044342041015625,-0.959823608398438,0.230056762695312,-0.0128100711593901,-0.00629917492636442,-0.00118111194345014
1493002890.4,40.4526364467406,-79.949515539148,0.0,0.0433349609375,-0.958740234375,0.222793579101562,-0.0128167290621153,-0.00523524207087777,-0.000117711720181502
1493002890.6,40.4526364467406,-79.949515539148,0.0,0.0422821044921875,-0.94915771484375,0.2196044921875,-0.0138588239966633,-0.00416491762877492,-0.00119735722609963
1493002890.8,40.4526364467406,-79.949515539148,0.0,0.0460052490234375,-0.952880859375,0.223709106445312,-0.0128167290621153,-0.00523524207087777,-0.000117711720181502
1493002891.0,40.4526364467406,-79.949515539148,0.0,0.041534423828125,-0.957809448242188,0.227447509765625,-0.0138668134799336,-0.00522858416815257,-0.00119469406500955
1493002891.2,40.4526362442974,-79.9495162049383,0.0,0.044097900390625,-0.955612182617188,0.226318359375,-0.013881460865929,-0.00522831785204356,-0.000128630680650827
1493002891.4,40.4526362442974,-79.9495162049383,0.0,0.0398406982421875,-0.957916259765625,0.220291137695312,-0.0149608400557381,-0.00522112731710035,0.000926513743238567
1493002891.6,40.4526362442974,-79.9495162049383,0.0,0.044403076171875,-0.953598022460938,0.222259521484375,-0.0138961082519245,-0.00522805153593455,0.000937432703707892
1493002891.8,40.4526362442974,-79.9495162049383,0.0,0.0417022705078125,-0.953170776367188,0.22265625,-0.0138881187686542,-0.0041643849965569,0.000934769542617813
1493002892.0,40.4526362442974,-79.9495162049383,0.0,0.0445556640625,-0.955734252929688,0.224685668945312,-0.0149382031864725,-0.00415772709383171,-0.000142212802210231
1493002892.2,40.4526362414486,-79.9495162143075,0.0,0.044158935546875,-0.955291748046875,0.223739624023438,-0.0128167290621153,-0.00523524207087777,-0.000117711720181502
1493002892.4,40.4526362414486,-79.9495162143075,0.0,0.044219970703125,-0.956802368164062,0.22314453125,-0.0138734713826588,-0.00416465131266591,-0.000131293841740906
1493002892.6,40.4526362414486,-79.9495162143075,0.0,0.044036865234375,-0.954208374023438,0.223770141601562,-0.0117666446442971,-0.00524189997360296,0.000959270624646542
1493002892.8,40.4526362414486,-79.9495162143075,0.0,0.0423583984375,-0.955032348632812,0.222274780273438,-0.0139040977351947,-0.0062917180753122,0.000940095864797971
1493002893.0,40.4526362414486,-79.9495162143075,0.0,0.0439300537109375,-0.955780029296875,0.224761962890625,-0.0117666446442971,-0.00524189997360296,0.000959270624646542
1493002893.2,40.4526362386035,-79.9495162236644,0.0,0.0423736572265625,-0.951690673828125,0.221084594726562,-0.0138588239966633,-0.00416491762877492,-0.00119735722609963
1493002893.4,40.4526362386035,-79.9495162236644,0.0,0.044342041015625,-0.95379638671875,0.224746704101562,-0.013881460865929,-0.00522831785204356,-0.000128630680650827
1493002893.6,40.4526362386035,-79.9495162236644,0.0,0.0449066162109375,-0.95892333984375,0.224533081054688,-0.0117519972583017,-0.00524216628971197,-0.000106792759712177
1493002893.8,40.4526362386035,-79.9495162236644,0.0,0.04296875,-0.954757690429688,0.22509765625,-0.0138974398324695,-0.00735565093079886,-0.000123304358470669
1493002894.0,40.4526362386035,-79.9495162236644,0.0,0.0431060791015625,-0.955856323242188,0.224838256835938,-0.0128167290621153,-0.00523524207087777,-0.000117711720181502
1493002894.2,40.4526362357477,-79.9495162330564,0.0,0.0432891845703125,-0.956375122070312,0.222198486328125,-0.0138881187686542,-0.0041643849965569,0.000934769542617813
1493002894.4,40.4526362357477,-79.9495162330564,0.0,0.0439605712890625,-0.954727172851562,0.226669311523438,-0.0149608400557381,-0.00522112731710035,0.000926513743238567
1493002894.6,40.4526362357477,-79.9495162330564,0.0,0.046722412109375,-0.953598022460938,0.222015380859375,-0.0128233869648405,-0.00417130921539111,0.000945688503087137
1493002894.8,40.4526362357477,-79.9495162330564,0.0,0.042144775390625,-0.95391845703125,0.222030639648438,-0.0138881187686542,-0.0041643849965569,0.000934769542617813
1493002895.0,40.4526362357477,-79.9495162330564,0.0,0.044281005859375,-0.95623779296875,0.227264404296875,-0.0159962770875609,-0.00521473573048416,-0.0012165319859482
1493002895.2,40.4526362328904,-79.9495162424534,0.0,0.044158935546875,-0.9559326171875,0.224090576171875,-0.0139187451211901,-0.00629145175920319,0.00200615924915669
1493002895.4,40.4526362328904,-79.9495162424534,0.0,0.0466156005859375,-0.953598022460938,0.224334716796875,-0.0128087395788451,-0.00417157553150012,-0.000120374881271582
1493002895.6,40.4526362328904,-79.9495162424534,0.0,0.0436553955078125,-0.954132080078125,0.2236328125,-0.0138894503491993,-0.00629198439142121,-0.000125967519560748
1493002895.8,40.4526362328904,-79.9495162424534,0.0,0.0469512939453125,-0.958038330078125,0.244873046875,-0.0160162507957365,-0.00202293716402419,0.00197366868385772
1493002896.0,40.4526362328904,-79.9495162424534,0.0,0.0489349365234375,-0.933197021484375,0.274810791015625,-0.00448263274682137,-0.0180530363974291,0.00639797820280636
1493002896.2,40.4526362883886,-79.9495160599323,0.0,0.03741455078125,-0.93280029296875,0.312332153320312,-0.00661209635444873,-0.0180391879597607,0.00637614028186771
1493002896.4,40.4526362883886,-79.9495160599323,0.0,0.071807861328125,-0.924209594726562,0.34521484375,-0.0105114968225428,0.0064496435279539,-0.00652154887738604
1493002896.6,40.4526362883886,-79.9495160599323,0.0,0.06036376953125,-0.902359008789062,0.408859252929688,0.0041777008020073,-0.00109003183416943,0.00537665592476097
1493002896.8,40.4526362883886,-79.9495160599323,0.0,0.058074951171875,-0.912033081054688,0.424667358398438,-0.00892611702561858,0.0309009244442984,-0.0310913404622391
1493002897.0,40.4526362883886,-79.9495160599323,0.0,0.096099853515625,-0.896835327148438,0.416168212890625,-0.0265384002626396,-0.0242960186247929,-0.0194008622251182
1493002897.2,40.4526302789016,-79.949535823792,1.19000005722046,0.069793701171875,-0.933364868164062,0.41864013671875,-0.00895993917146259,-0.0275956752154011,0.017038904654327
1493002897.4,40.4526302789016,-79.949535823792,1.19000005722046,0.0531463623046875,-0.92529296875,0.38812255859375,0.00259365258562817,-0.0351156431854578,0.0246400990376311
1493002897.6,40.4526302789016,-79.949535823792,1.19000005722046,0.0542449951171875,-0.905975341796875,0.395919799804688,-0.0454865251024444,0.0183771431020918,-0.0122414862666582
1493002897.8,40.4526302789016,-79.949535823792,1.19000005722046,0.0491485595703125,-0.940414428710938,0.348892211914062,0.00976101802735842,-0.0192141746327037,-0.0233071869120465
1493002898.0,40.4526302789016,-79.949535823792,1.19000005722046,0.116912841796875,-0.866424560546875,0.375167846679688,-0.010554107399984,-0.0148258177884711,-0.0149967927304542
1493002898.2,40.4526227857774,-79.9495604670029,2.86999988555908,0.057891845703125,-0.941741943359375,0.395645141601562,0.00564243940155088,0.0339891260443543,-0.0821284259086266
1493002898.4,40.4526227857774,-79.9495604670029,2.86999988555908,0.209304809570312,-0.940689086914062,0.412216186523438,-0.0228350084507754,0.0331073534074291,-0.102675778983024
1493002898.6,40.4526227857774,-79.9495604670029,2.86999988555908,0.07379150390625,-0.91558837890625,0.473220825195312,-0.0047457530625212,0.0457680212296658,-0.0172261248789595
1493002898.8,40.4526227857774,-79.9495604670029,2.86999988555908,0.161087036132812,-1.00636291503906,0.374710083007812,-0.0618247520739715,0.205681257309,-0.116314892189756
1493002899.0,40.4526227857774,-79.9495604670029,2.86999988555908,0.408706665039062,-0.966796875,0.29443359375,-0.0842230021059739,0.328140861081895,-0.202157362554607
1493002899.2,40.4526107119188,-79.9496001752258,4.46999979019165,0.44622802734375,-0.926589965820312,0.24151611328125,-0.0604154072251016,0.449256101136519,-0.163842463951637
1493002899.4,40.4526107119188,-79.9496001752258,4.46999979019165,0.29205322265625,-0.880081176757812,0.268768310546875,-0.0573527719715104,0.370540516164829,-0.0420595694117304
1493002899.6,40.4526107119188,-79.9496001752258,4.46999979019165,0.259613037109375,-0.84600830078125,0.361602783203125,-0.0427690355261275,0.449146645215717,-0.130608876708538
1493002899.8,40.4526107119188,-79.9496001752258,4.46999979019165,0.317626953125,-0.935775756835938,0.252655029296875,-0.10875977049331,0.544254785645171,-0.0814178945297935
1493002900.0,40.4526107119188,-79.9496001752258,4.46999979019165,0.358154296875,-0.810516357421875,0.363525390625,-0.0407887089395446,0.503389910298451,-0.0902124513975621
1493002900.2,40.4525950782597,-79.9496515908368,5.46999979019165,0.359451293945312,-0.936996459960938,0.287017822265625,-0.000260723470718757,0.275494693704882,-0.0636202552809029
1493002900.4,40.4525950782597,-79.9496515908368,5.46999979019165,0.32421875,-0.99371337890625,0.26556396484375,-0.0625046571002687,0.340785283621483,-0.0708233070812402
1493002900.6,40.4525950782597,-79.9496515908368,5.46999979019165,0.232666015625,-0.912734985351562,0.286239624023438,-0.0201603957680088,0.300087921107328,-0.0745496020784791
1493002900.8,40.4525950782597,-79.9496515908368,5.46999979019165,0.28741455078125,-0.987808227539062,0.2896728515625,-0.0637624680831132,0.278030822010964,-0.0909323038402105
1493002901.0,40.4525950782597,-79.9496515908368,5.46999979019165,0.331024169921875,-0.983078002929688,0.203155517578125,-0.0864480731967351,0.283501221206096,-0.0645233332065488
1493002901.2,40.4525805191507,-79.9496994724928,6.01999998092651,0.2825927734375,-1.05490112304688,0.315231323242188,0.0512328277865084,0.193266665571486,0.0192176367421208
1493002901.4,40.4525805191507,-79.9496994724928,6.01999998092651,0.70458984375,-1.27565002441406,0.108871459960938,-0.132105040608945,0.368901606829994,-0.0278936829413809
1493002901.6,40.4525805191507,-79.9496994724928,6.01999998092651,0.362716674804688,-0.91326904296875,0.166000366210938,0.13487925551648,0.241663493113169,0.0807233421175008
1493002901.8,40.4525805191507,-79.9496994724928,6.01999998092651,0.159133911132812,-1.02276611328125,0.284881591796875,-0.0372895815832895,0.452300626894698,-0.14015684184869
1493002902.0,40.4525805191507,-79.9496994724928,6.01999998092651,0.337600708007812,-0.901687622070312,0.274703979492188,-0.0576033754300869,0.400306933984754,-0.162621138275727
1493002902.2,40.4524994162114,-79.949699069867,6.5,0.33465576171875,-0.905776977539062,0.235198974609375,-0.0725663460146971,0.513156520964098,-0.174793914986261
1493002902.4,40.4524994162114,-79.949699069867,6.5,0.25341796875,-0.95184326171875,0.292251586914062,-0.107765878774492,0.183654251932954,-0.039960998472748
1493002902.6,40.4524994162114,-79.949699069867,6.5,-0.033050537109375,-0.795333862304688,0.236175537109375,-0.0904508043151242,0.136767969361564,0.146924733126909
1493002902.8,40.4524994162114,-79.949699069867,6.5,-0.201019287109375,-1.00782775878906,0.349945068359375,0.0969081710102394,-0.354792712006972,0.349493554069933
1493002903.0,40.4524994162114,-79.949699069867,6.5,-0.151397705078125,-0.803421020507812,0.325424194335938,-0.00722755288236604,0.0723711363067943,-0.0546376792401747
1493002903.2,40.4524351781099,-79.9496704854252,7.26000022888184,-0.131439208984375,-0.772003173828125,0.463394165039062,-0.0183454514851198,0.0416108267680521,0.0402209229951397
1493002903.4,40.4524351781099,-79.9496704854252,7.26000022888184,0.003326416015625,-0.948104858398438,0.329925537109375,0.0399103984120365,0.00398968162904771,-0.034786742790833
1493002903.6,40.4524351781099,-79.9496704854252,7.26000022888184,0.0087738037109375,-0.987136840820312,0.303131103515625,-0.0318846961509737,0.0214829215653422,0.0070816116546297
1493002903.8,40.4524351781099,-79.9496704854252,7.26000022888184,0.035247802734375,-0.896621704101562,0.326065063476562,-0.0755653317182353,-0.0207851733597414,-0.0145808069681838
1493002904.0,40.4524351781099,-79.9496704854252,7.26000022888184,-0.046844482421875,-0.967849731445312,0.4215087890625,0.0160724434947372,-0.0575266763906926,0.116530341921943
1493002904.2,40.452367503938,-79.9496403720129,8.57999992370605,0.0947418212890625,-0.955062866210938,0.311172485351562,0.0122287030934258,-0.017106548946015,-0.0467440697691798
1493002904.4,40.452367503938,-79.9496403720129,8.57999992370605,0.106643676757812,-0.809127807617188,0.292831420898438,-0.0458987824391886,0.0779456651005482,-0.0273264296291941
1493002904.6,40.452367503938,-79.9496403720129,8.57999992370605,0.145599365234375,-0.922073364257812,0.33026123046875,-0.207209379142487,0.116221947867712,-0.0472023997927824
1493002904.8,40.452367503938,-79.9496403720129,8.57999992370605,-0.0571441650390625,-0.893112182617188,0.354324340820312,-0.127862624992448,0.0805936461724139,-0.106006061926168
1493002905.0,40.452367503938,-79.9496403720129,8.57999992370605,-0.0555572509765625,-0.976516723632812,0.354934692382812,-0.104750647788305,0.0570555631938576,-0.0182791387739769
1493002905.2,40.4522898374271,-79.9496058122452,9.60000038146973,0.1319580078125,-0.927825927734375,0.24969482421875,-0.0312820227962887,0.229929339034171,-0.233348305241615
1493002905.4,40.4522898374271,-79.9496058122452,9.60000038146973,0.09765625,-0.92242431640625,0.23431396484375,0.121528030023586,-0.0837569489152101,0.0227846747061729
1493002905.6,40.4522898374271,-79.9496058122452,9.60000038146973,0.125381469726562,-0.8848876953125,0.266433715820312,0.107885188391328,-0.208111658119806,0.0954684661249425
1493002905.8,40.4522898374271,-79.9496058122452,9.60000038146973,-0.0364990234375,-0.9766845703125,0.33355712890625,0.00099415803492658,0.0627592553004803,0.0392981376774273
1493002906.0,40.4522898374271,-79.9496058122452,9.60000038146973,-0.045135498046875,-0.92803955078125,0.266708374023438,-0.0349172376842469,0.0619131690221621,-0.0602252575232699
1493002906.2,40.452206192665,-79.9495685922966,10.1099996566772,0.0140228271484375,-1.01210021972656,0.32421875,-0.0101391869021497,-0.0467352813375825,0.0149437958247616
1493002906.4,40.452206192665,-79.9495685922966,10.1099996566772,0.142745971679688,-1.08723449707031,0.191848754882812,0.00113104451495665,-0.106352006551769,0.169814070063922
1493002906.6,40.452206192665,-79.9495685922966,10.1099996566772,-0.0587005615234375,-1.07688903808594,0.334320068359375,-0.0686203402275267,0.0142689508045356,-0.0359244452085149
1493002906.8,40.452206192665,-79.9495685922966,10.1099996566772,0.0233917236328125,-0.963607788085938,0.242874145507812,-0.0415160182332452,0.0183422556918117,-0.0687100887562624
1493002907.0,40.452206192665,-79.9495685922966,10.1099996566772,0.106124877929688,-0.95098876953125,0.208831787109375,-0.0173281239487096,-0.00627920121818883,-0.0598691928855263
1493002907.2,40.4521197376215,-79.9495301218389,10.3699998855591,-0.0388336181640625,-0.90081787109375,0.244491577148438,0.0818812845594672,-0.134559143553453,0.0129139344419032
1493002907.4,40.4521197376215,-79.9495301218389,10.3699998855591,0.0358734130859375,-0.867294311523438,0.2911376953125,-0.232030573134244,-0.0123464148136073,-0.170805564937758
1493002907.6,40.4521197376215,-79.9495301218389,10.3699998855591,0.284515380859375,-1.03314208984375,0.096160888671875,-0.0160423497744193,0.0309432687056307,-0.0556872310257749
1493002907.8,40.4521197376215,-79.9495301218389,10.3699998855591,0.392059326171875,-1.07566833496094,0.397232055664062,-0.109201855234263,-0.300279402389704,0.266210381512648
1493002908.0,40.4521197376215,-79.9495301218389,10.3699998855591,0.0512542724609375,-0.932540893554688,0.264358520507812,0.0151714960979634,-0.0649694126891371,0.100547114323724
1493002908.2,40.4520305430822,-79.9494904323701,10.539999961853,-0.503219604492188,-0.517181396484375,0.571014404296875,-0.170424999217986,-0.457331604509966,0.141241813676788
1493002908.4,40.4520305430822,-79.9494904323701,10.539999961853,0.383819580078125,-1.19198608398438,0.060455322265625,-0.196278168132148,0.0927685534118202,0.0745184430937252
1493002908.6,40.4520305430822,-79.9494904323701,10.539999961853,0.168914794921875,-0.917800903320312,0.241424560546875,-0.0419871314300803,-0.0763035599724053,0.0690709470839681
1493002908.8,40.4520305430822,-79.9494904323701,10.539999961853,0.0165863037109375,-1.14515686035156,0.661056518554688,0.0699790850156851,0.125053256358524,-0.0646453059844744
1493002909.0,40.4520305430822,-79.9494904323701,10.539999961853,0.758758544921875,-0.6962890625,0.32366943359375,-0.370525868778833,-0.303893578305051,0.294464390149516
1493002909.2,40.4519364837066,-79.9494485781638,10.8800001144409,0.218338012695312,-1.01077270507812,0.190155029296875,-0.034281807448154,0.36505067589374,-0.174019734057375
1493002909.4,40.4519364837066,-79.9494485781638,10.8800001144409,-0.101165771484375,-1.17356872558594,0.272293090820312,0.291770602706901,-0.0337997752908497,0.0606500317171375
1493002909.6,40.4519364837066,-79.9494485781638,10.8800001144409,-0.100051879882812,-1.16647338867188,0.611846923828125,-0.0188764858064816,0.0139240714433703,-0.168691015032235
1493002909.8,40.4519364837066,-79.9494485781638,10.8800001144409,0.600234985351562,-0.729461669921875,0.262115478515625,-0.285556648935419,0.374119005721568,-0.250184543336987
1493002910.0,40.4519364837066,-79.9494485781638,10.8800001144409,0.201828002929688,-0.925094604492188,0.291351318359375,0.0476655235063472,0.296459097805986,-0.0525215314379977
1493002910.2,40.4518407157127,-79.9494059636626,11.3800001144409,0.132949829101562,-0.944015502929688,0.295379638671875,0.0126249814636296,0.0265149644450469,0.0256499697229892
1493002910.4,40.4518407157127,-79.9494059636626,11.3800001144409,-0.0283660888671875,-0.778030395507812,0.220382690429688,-0.124295587028396,-0.14170839949977,0.133436088521766
1493002910.6,40.4518407157127,-79.9494059636626,11.3800001144409,0.0946197509765625,-1.02142333984375,0.269027709960938,0.00258246730904984,-0.104250772451697,0.0653345320745869
1493002910.8,40.4518407157127,-79.9494059636626,11.3800001144409,0.04046630859375,-0.890151977539062,0.265151977539062,0.0327422340219792,0.0146710881291375,-0.0498146945060412
1493002911.0,40.4518407157127,-79.9494059636626,11.3800001144409,0.115280151367188,-0.839553833007812,0.31201171875,-0.135348770816661,0.0189665006513263,0.0177571592003213
1493002911.2,40.4517411365138,-79.9493616532649,11.8699998855591,0.19122314453125,-1.01512145996094,0.204208374023438,0.03740755961958,-0.0236363536227803,0.0548209047231721
1493002911.4,40.4517411365138,-79.9493616532649,11.8699998855591,0.0725555419921875,-1.07875061035156,0.307601928710938,0.0710440831356078,0.0229452633199047,0.034787009106942
1493002911.6,40.4517411365138,-79.9493616532649,11.8699998855591,-0.007171630859375,-0.93914794921875,0.232269287109375,-0.132508243197983,0.008301605749995,-0.03976179402321
1493002911.8,40.4517411365138,-79.9493616532649,11.8699998855591,-0.174102783203125,-0.871994018554688,0.261642456054688,0.100787597770158,-0.0612636240322918,0.149393749773521
1493002912.0,40.4517411365138,-79.9493616532649,11.8699998855591,0.040069580078125,-0.884811401367188,0.25897216796875,-0.0609957100266298,-0.0995731963130816,0.122247083517907
1493002912.2,40.4516379005311,-79.9493157156846,12.1899995803833,-0.0281524658203125,-1.10006713867188,0.210906982421875,-0.110261527032006,0.0198477406560335,-0.102470449262979
1493002912.4,40.4516379005311,-79.9493157156846,12.1899995803833,-0.135543823242188,-1.03994750976562,0.232467651367188,0.0205284446306578,-0.117131417379974,0.0698163658730813
1493002912.6,40.4516379005311,-79.9493157156846,12.1899995803833,-0.126129150390625,-0.80908203125,0.308074951171875,0.0456106284092421,-0.121544275306235,0.102070975099467
1493002912.8,40.4516379005311,-79.9493157156846,12.1899995803833,-0.0582275390625,-0.93463134765625,0.262191772460938,-0.087686709419731,-0.117496004133206,0.0399215836886148
1493002913.0,40.4516379005311,-79.9493157156846,12.1899995803833,0.014007568359375,-0.838424682617188,0.191085815429688,-0.0458548402812023,0.0311371468329884,-0.055992961918916
1493002913.2,40.4515316328188,-79.949268429056,12.2600002288818,0.05859375,-1.03546142578125,0.375503540039062,0.034717234286382,-0.0449134128358593,-0.0709649872512325
1493002913.4,40.4515316328188,-79.949268429056,12.2600002288818,0.448638916015625,-0.797119140625,0.15264892578125,0.20689459350164,-0.178968686311069,0.113466375087807
1493002913.6,40.4515316328188,-79.949268429056,12.2600002288818,0.119338989257812,-0.906387329101562,0.230697631835938,0.0332860515165734,-0.164009444151985,0.123378660665082
1493002913.8,40.4515316328188,-79.949268429056,12.2600002288818,-0.0183258056640625,-0.964767456054688,0.232192993164062,-0.0243253133967838,0.0597048758462684,-0.134746097461976
1493002914.0,40.4515316328188,-79.949268429056,12.2600002288818,0.132736206054688,-0.773513793945312,0.156158447265625,-0.0585003280852256,0.0493150854855423,0.0216642828355766
1493002914.2,40.4514289016968,-79.9492220867836,12.2799997329712,-0.177383422851562,-0.595672607421875,0.147918701171875,-0.170688652165904,-0.258394003713265,0.26867140867599
1493002914.4,40.4514289016968,-79.9492220867836,12.2799997329712,-0.043701171875,-0.57220458984375,0.07733154296875,-0.0559908313900439,-0.0879498297354308,-0.158145962379957
1493002914.6,40.4514289016968,-79.9492220867836,12.2799997329712,0.732147216796875,-1.05023193359375,0.554611206054688,-0.100895455794306,0.519706299349039,-0.279589836513097
1493002914.8,40.4514289016968,-79.9492220867836,12.2799997329712,-0.00079345703125,-1.00068664550781,0.437881469726562,0.108257498311721,-0.0389599162189872,0.237908435976158
1493002915.0,40.4514289016968,-79.9492220867836,12.2799997329712,0.08685302734375,-1.14155578613281,0.375015258789062,-0.0288114082530222,-0.133827306885899,0.0864137184186731
1493002915.2,40.4514289016968,-79.9492220867836,12.2799997329712,0.166778564453125,-0.881927490234375,0.250289916992188,0.00387037201221216,0.106323244411996,-0.146306080805683
1493002915.4,40.4513216104846,-79.9491728400093,12.6599998474121,0.0541534423828125,-0.91961669921875,0.274658203125,0.0355851584856388,-0.0757424319307256,0.0815920652650846
1493002915.6,40.4513216104846,-79.9491728400093,12.6599998474121,0.0167083740234375,-0.916107177734375,0.205581665039062,-0.0172708659852729,-0.0318117255371055,-0.0779283545534626
1493002915.8,40.4513216104846,-79.9491728400093,12.6599998474121,0.190689086914062,-0.969924926757812,0.242218017578125,-0.0984943497554905,0.0655020449071529,-0.158977134956171
