timestamp,latitude,longitude,speed,accelerometerX,accelerometerY,accelerometerZ,gyroX,gyroY,gyroZ
1493003115.9,40.4474621425683,-79.9441896004389,0.550000011920929,0.0634765625,-0.962478637695312,0.209671020507812,-0.0171302510797167,0.001176318253488,0.00728507716191176
1493003116.1,40.4474621425683,-79.9441896004389,0.550000011920929,0.05975341796875,-0.95684814453125,0.20611572265625,-0.0246153316394934,0.00867205145762502,0.0135863826171482
1493003116.3,40.4474545463914,-79.9441891872662,0.680000007152557,0.0599365234375,-0.9525146484375,0.208175659179688,-0.030585073539015,0.0150764212470476,-0.090980240739832
1493003116.5,40.4474545463914,-79.9441891872662,0.680000007152557,0.275741577148438,-0.83538818359375,0.233428955078125,-0.0308838802133219,0.211899472138226,0.115354289984564
1493003116.7,40.4474545463914,-79.9441891872662,0.680000007152557,0.155960083007812,-0.917831420898438,0.205490112304688,-0.0484450307574134,0.0673289734149473,-0.00280217809898137
1493003116.9,40.4474545463914,-79.9441891872662,0.680000007152557,0.047515869140625,-0.944854736328125,0.221786499023438,-0.000623179695078542,-0.0361582707522238,0.025676068701672
1493003117.1,40.4474579285019,-79.9441893712266,0.660000026226044,0.0609588623046875,-0.939788818359375,0.2681884765625,-0.0170516878275593,-0.002016545577408,-0.00016937704532904
1493003117.3,40.4474579285019,-79.9441893712266,0.660000026226044,0.06756591796875,-0.943572998046875,0.236297607421875,-0.0254350526230198,0.00229165011801318,-0.00772982506395499
1493003117.5,40.4474579285019,-79.9441893712266,0.660000026226044,0.0675506591796875,-0.974700927734375,0.153244018554688,-0.0265437265848198,0.00229937328517441,-0.00454255387134816
1493003117.7,40.4474579285019,-79.9441893712266,0.660000026226044,0.0620880126953125,-0.9764404296875,0.1343994140625,-0.0170530194081044,-0.0041441449722723,-0.0012301141075076
1493003117.9,40.4474579285019,-79.9441893712266,0.660000026226044,0.06268310546875,-0.94842529296875,0.241317749023438,-0.0128926291531826,-0.00948910928006133,0.00309113107725497
1493003118.1,40.4474620668058,-79.944189596318,0.620000004768372,0.0579071044921875,-0.972076416015625,0.18231201171875,-0.0106419917159566,-0.0031222900620089,-0.00223332689014045
1493003118.3,40.4474620668058,-79.944189596318,0.620000004768372,0.0651397705078125,-0.947494506835938,0.216049194335938,-0.0159949455070159,-0.00308713633561985,-0.000155794923769635
1493003118.5,40.4474620668058,-79.944189596318,0.620000004768372,0.0602569580078125,-0.964630126953125,0.201385498046875,-0.011729360389036,-0.00417876606644333,-0.00117551930516098
1493003118.7,40.4474620668058,-79.944189596318,0.620000004768372,0.060943603515625,-0.962753295898438,0.203598022460938,-0.0128313764481108,-0.00523497575476876,0.000948351664177217
1493003118.9,40.4474620668058,-79.944189596318,0.620000004768372,0.059417724609375,-0.949111938476562,0.20867919921875,-0.0128020816761199,-0.00523550838698677,-0.00118377510454022
1493003119.1,40.4474620668058,-79.944189596318,0.620000004768372,0.0653076171875,-0.961318969726562,0.201263427734375,-0.0139187451211901,-0.00629145175920319,0.00200615924915669
1493003119.3,40.4474634686195,-79.9441896725657,0.0,0.059722900390625,-0.958633422851562,0.209625244140625,-0.0149528505724679,-0.0041574607777227,0.000923850582148488
1493003119.5,40.4474634686195,-79.9441896725657,0.0,0.0624542236328125,-0.959808349609375,0.204452514648438,-0.0117360182917612,-0.00311483321095668,-0.000112119081892336
1493003119.7,40.4474634686195,-79.9441896725657,0.0,0.0584564208984375,-0.958786010742188,0.203964233398438,-0.0128247185453856,-0.00629890861025541,-0.000115048559091423
1493003119.9,40.4474634686195,-79.9441896725657,0.0,0.0594635009765625,-0.956512451171875,0.210678100585938,-0.0116920761337749,-0.0031156321592837,-0.00331030923496849
1493003120.1,40.4474634686195,-79.9441896725657,0.0,0.0609588623046875,-0.963363647460938,0.203643798828125,-0.0149461926697427,-0.00522139363320935,-0.000139549641120152
1493003120.3,40.4474611808338,-79.944189548128,0.0,0.062774658203125,-0.965805053710938,0.199066162109375,-0.00748374897923167,-0.00207859723080685,0.000994956983253603
1493003120.5,40.4474611808338,-79.944189548128,0.0,0.06170654296875,-0.95904541015625,0.201690673828125,-0.0181909881418952,-0.00413588917289306,0.00408928385381667
1493003120.7,40.4474611808338,-79.944189548128,0.0,0.0590057373046875,-0.958587646484375,0.201889038085938,-0.0117506656777566,-0.00311456689484767,0.000953944302466383
1493003120.9,40.4474611808338,-79.944189548128,0.0,0.059356689453125,-0.957061767578125,0.2059326171875,-0.018115088050828,0.00011797803629051,0.000880441056380196
1493003121.1,40.4474611879547,-79.9441895485153,0.0,0.059814453125,-0.953964233398438,0.209991455078125,-0.0107005812599384,-0.00312122479757287,0.00203092664729443
1493003121.3,40.4474611879547,-79.9441895485153,0.0,0.065643310546875,-0.960342407226562,0.208267211914062,-0.0128367027702909,-0.0020434435044178,0.00307248894962442
1493003121.5,40.4474611879547,-79.9441895485153,0.0,0.05841064453125,-0.961013793945312,0.203079223632812,-0.0117440077750314,-0.00417849975033432,-0.000109455920802257
1493003121.7,40.4474611879547,-79.9441895485153,0.0,0.062225341796875,-0.958251953125,0.199966430664062,-0.0160335613428221,-0.00627786963764379,0.000918257943859321
1493003121.9,40.4474611879547,-79.9441895485153,0.0,0.0586090087890625,-0.9576416015625,0.188644409179688,-0.0180405195403058,0.00224424585060977,-0.00338913880323484
1493003122.1,40.4474611950756,-79.9441895489027,0.0,0.0699310302734375,-0.918243408203125,0.374465942382812,0.0148196925179639,-0.00966967160196871,0.00124289728073998
1493003122.3,40.4474611950756,-79.9441895489027,0.0,0.0612335205078125,-0.886138916015625,0.449539184570312,0.0167653980103758,-0.0224459206155148,0.0076930734409119
1493003122.5,40.4474611950756,-79.9441895489027,0.0,0.062347412109375,-0.889892578125,0.467147827148438,-0.0172341143622298,-0.0360552064180378,-0.0054144728122401
1493003122.7,40.4474611950756,-79.9441895489027,0.0,0.106796264648438,-0.844940185546875,0.48089599609375,-0.00632580653726521,-0.0169805814264542,-0.013881727182038
1493003122.9,40.4474611950756,-79.9441895489027,0.0,0.08355712890625,-0.88311767578125,0.580154418945312,0.0063657539536164,-0.00110494553627388,0.00113424030826475
1493003123.1,40.4474611950756,-79.9441895489027,0.0,0.084716796875,-0.83880615234375,0.60540771484375,-0.0420811410165601,-0.0348256249427482,0.0209833125448433
1493003123.3,40.4474859893733,-79.9441908975187,2.08999991416931,0.06719970703125,-0.835372924804688,0.565292358398438,-0.00104342651509305,-0.0127592047825696,-0.00850746810225813
1493003123.5,40.4474859893733,-79.9441908975187,2.08999991416931,0.128509521484375,-0.867477416992188,0.543899536132812,0.010117348981211,-0.0394206430875709,0.0172647407147657
1493003123.7,40.4474859893733,-79.9441908975187,2.08999991416931,0.0822906494140625,-0.86578369140625,0.564056396484375,0.00671462805641678,-0.00536653591261867,-0.0265727550407016
1493003123.9,40.4474859893733,-79.9441908975187,2.08999991416931,0.094635009765625,-0.833023071289062,0.514755249023438,-0.0528517634131675,0.0886355937161262,0.0194882139088728
1493003124.1,40.4474859893733,-79.9441908975187,2.08999991416931,0.1436767578125,-0.858932495117188,0.56329345703125,0.0298431168593189,0.037038978124713,0.0183355977890865
1493003124.3,40.4475321503972,-79.9441934083175,5.07999992370605,0.172042846679688,-0.878387451171875,0.485763549804688,-0.0327182655721685,-0.0348839481706209,0.037072533954448
1493003124.5,40.4475321503972,-79.9441934083175,5.07999992370605,0.107772827148438,-0.822723388671875,0.49102783203125,-0.0195326886990772,-0.0136982353829316,0.0190272207241801
1493003124.7,40.4475321503972,-79.9441934083175,5.07999992370605,0.041290283203125,-0.870697021484375,0.51007080078125,-0.0324381010254921,0.0193529253254968,-0.0313022628205733
1493003124.9,40.4475321503972,-79.9441934083175,5.07999992370605,0.154266357421875,-0.893692016601562,0.463394165039062,0.0225604365423883,-0.00653193520563735,-0.0178778003977019
1493003125.1,40.4475969723066,-79.9441969341227,6.8600001335144,0.096832275390625,-0.938934326171875,0.407791137695312,0.0328562173166346,0.00510714402244495,0.014183995965762
1493003125.3,40.4475969723066,-79.9441969341227,6.8600001335144,0.040191650390625,-0.90185546875,0.459884643554688,-0.0160162507957365,-0.0488306564832569,-0.023494673452788
1493003125.5,40.4475969723066,-79.9441969341227,6.8600001335144,0.0404052734375,-0.942977905273438,0.395034790039062,-0.04318715181727,-0.0890723521348992,-0.00554336980899993
1493003125.7,40.4475969723066,-79.9441969341227,6.8600001335144,0.189178466796875,-0.779830932617188,0.519989013671875,-0.0617858699220563,0.118472851621047,-0.0116004633922762
1493003125.9,40.4475969723066,-79.9441969341227,6.8600001335144,0.103622436523438,-0.9130859375,0.358108520507812,-0.0245881673963746,0.0331267944833866,-0.0525817188786335
1493003126.1,40.4475969723066,-79.9441969341227,6.8600001335144,0.150466918945312,-0.862396240234375,0.327316284179688,-0.0549266322184483,0.0120539997259166,-0.026182601941005
1493003126.3,40.4476862315847,-79.9442017891298,8.97000026702881,0.0979461669921875,-0.931732177734375,0.446517944335938,-0.0487233310913267,0.00882438427197756,-0.0143824014669729
1493003126.5,40.4476862315847,-79.9442017891298,8.97000026702881,0.020843505859375,-0.906463623046875,0.359512329101562,-0.00449861171336185,-0.0318822993059926,3.62189908250776e-05
1493003126.7,40.4476862315847,-79.9442017891298,8.97000026702881,-0.019805908203125,-0.956817626953125,0.403640747070312,-0.0017611484288694,-0.0127461552932282,0.0437296377313191
1493003126.9,40.4476862315847,-79.9442017891298,8.97000026702881,0.116195678710938,-0.920455932617188,0.396331787109375,-0.0196839562489937,-0.0520051445026313,-0.0683050219544613
1493003127.1,40.4476862315847,-79.9442017891298,8.97000026702881,0.122802734375,-0.93133544921875,0.3109130859375,-0.0442159309463676,-0.00821638459511247,0.0358197829776748
1493003127.3,40.4477981187666,-79.9442078749179,12.5299997329712,0.03875732421875,-0.88848876953125,0.37744140625,-0.0827289687344395,0.106903014581307,-0.0437714493604334
1493003127.5,40.4477981187666,-79.9442078749179,12.5299997329712,0.064178466796875,-0.875335693359375,0.2823486328125,0.0380507130228341,0.0093301185629836,0.0259546353516942
1493003127.7,40.4477981187666,-79.9442078749179,12.5299997329712,0.033233642578125,-0.969284057617188,0.37042236328125,0.0608947762213158,-0.0238022685586922,-0.0270366777025934
1493003127.9,40.4477981187666,-79.9442078749179,12.5299997329712,0.0859375,-0.881973266601562,0.223251342773438,-0.0587847536896461,0.0205849036457675,-0.0507670409118535
1493003128.1,40.4477981187666,-79.9442078749179,12.5299997329712,0.0023651123046875,-0.921798706054688,0.331069946289062,-0.0115029916963793,-0.0169486234933733,-0.0245969558279718
1493003128.3,40.447917512291,-79.9442143689924,13.6800003051758,0.0596771240234375,-0.951187133789062,0.293365478515625,-0.026685140438703,0.0778077133560821,-0.108161624512478
1493003128.5,40.447917512291,-79.9442143689924,13.6800003051758,0.0825347900390625,-0.91143798828125,0.30950927734375,-0.024064057293847,0.0118534636958337,-0.0247998887030359
1493003128.7,40.447917512291,-79.9442143689924,13.6800003051758,0.0506439208984375,-1.00868225097656,0.2279052734375,-0.0822786281941071,-0.0249929678820666,0.00668559960053492
1493003128.9,40.447917512291,-79.9442143689924,13.6800003051758,0.0536956787109375,-0.853439331054688,0.2418212890625,0.109214105775278,-0.0623936032828124,0.0780465989058622
1493003129.1,40.447917512291,-79.9442143689924,13.6800003051758,0.09869384765625,-1.06137084960938,0.233306884765625,0.111059676410702,0.0896979286749588,0.0264947244207623
1493003129.3,40.4480545324581,-79.9442218218185,14.5799999237061,0.0529632568359375,-0.952178955078125,0.237655639648438,0.00186634329192753,0.00529756004038562,-0.0554376928316345
1493003129.5,40.4480545324581,-79.9442218218185,14.5799999237061,0.131500244140625,-0.905364990234375,0.194656372070312,0.0728001715584061,-0.0749200477861091,0.0862358192578558
1493003129.7,40.4480545324581,-79.9442218218185,14.5799999237061,0.044891357421875,-1.03564453125,0.201171875,0.0571407843487401,-0.0333331894678678,0.0859681715683028
1493003129.9,40.4480545324581,-79.9442218218185,14.5799999237061,0.0604248046875,-0.960922241210938,0.20550537109375,-0.00224078374119267,0.0489387808235141,-0.0427977976659004
1493003130.1,40.4480545324581,-79.9442218218185,14.5799999237061,0.12237548828125,-0.963607788085938,0.1173095703125,-0.021814218804948,0.0682070176263464,-0.0803654132669941
1493003130.3,40.4481855280036,-79.9442289469523,14.6000003814697,0.204925537109375,-0.899871826171875,0.175506591796875,-0.0474490085097238,0.0673108639195347,-0.0752944882353743
1493003130.5,40.4481855280036,-79.9442289469523,14.6000003814697,0.115432739257812,-0.95513916015625,0.158889770507812,0.00211348464108688,0.00956074831338447,0.00639424977728025
1493003130.7,40.4481855280036,-79.9442289469523,14.6000003814697,0.0432891845703125,-0.88714599609375,0.202682495117188,-0.0759182005626708,0.000497478491626802,0.0226781482625698
1493003130.9,40.4481855280036,-79.9442289469523,14.6000003814697,0.02386474609375,-0.944000244140625,0.26361083984375,-0.0530981058139999,-0.0241239784183738,-0.0239380897742862
1493003131.1,40.4481855280036,-79.9442289469523,14.6000003814697,0.0713348388671875,-0.977691650390625,0.21807861328125,-0.0527226001002987,0.0141664191025675,-0.0304303438796814
1493003131.3,40.448316118034,-79.9442360500292,14.3699998855591,0.124862670898438,-0.941268920898438,0.193756103515625,-0.0193521263771698,-0.0924111571935315,0.0405564812924897
1493003131.5,40.448316118034,-79.9442360500292,14.3699998855591,0.0134429931640625,-0.968826293945312,0.252365112304688,0.00902731714704159,-0.0564342477115421,0.00983398864122659
1493003131.7,40.448316118034,-79.9442360500292,14.3699998855591,0.166244506835938,-1.02877807617188,0.16717529296875,0.00255743359480309,0.0914537507816481,-0.058851599033007
1493003131.9,40.448316118034,-79.9442360500292,14.3699998855591,0.2667236328125,-0.922592163085938,0.176956176757812,0.00177579581486484,0.0829574679559683,-0.00659318791070917
1493003132.1,40.448316118034,-79.9442360500292,14.3699998855591,0.163681030273438,-0.739791870117188,0.19384765625,-0.191184872547371,0.087419061730178,0.0884451776981856
1493003132.3,40.448446109469,-79.9442490553923,14.1800003051758,0.25457763671875,-0.975997924804688,0.151779174804688,-0.023661387337027,0.168214042881002,-0.0465235600309212
1493003132.5,40.448446109469,-79.9442490553923,14.1800003051758,0.079986572265625,-1.0660400390625,0.346328735351562,0.101461910158166,0.00254038936382659,0.0575415900927971
1493003132.7,40.448446109469,-79.9442490553923,14.1800003051758,0.322769165039062,-0.894363403320312,0.20867919921875,0.000319313014700501,0.168051590054507,-0.0867937515062274
1493003132.9,40.448446109469,-79.9442490553923,14.1800003051758,0.138763427734375,-0.841690063476562,0.288619995117188,-0.0340586345488054,0.0395948138228621,0.0976408066261202
1493003133.1,40.448446109469,-79.9442490553923,14.1800003051758,0.162734985351562,-0.989669799804688,0.289169311523438,-0.00552818979078648,0.134066192435679,0.0102595617834213
1493003133.3,40.4485723872651,-79.9442636309297,14.039999961853,0.125167846679688,-0.883819580078125,0.345870971679688,0.0146745502385546,0.0509702401030265,0.0447996958573129
1493003133.5,40.4485723872651,-79.9442636309297,14.039999961853,0.145370483398438,-0.9322509765625,0.268646240234375,-0.0707553964734432,0.178085049461381,-0.101408114304146
1493003133.7,40.4485723872651,-79.9442636309297,14.039999961853,0.2808837890625,-0.928939819335938,0.30224609375,-0.0132231274444614,0.0798522221249359,-0.0792412929708717
1493003133.9,40.4485723872651,-79.9442636309297,14.039999961853,0.305191040039062,-0.944412231445312,0.301803588867188,-0.0120872892395426,0.127703101643153,-0.135862494590937
1493003134.1,40.4485723872651,-79.9442636309297,14.039999961853,0.333984375,-0.936508178710938,0.289337158203125,-0.0390179731307509,0.218293455599397,-0.14170307317759
1493003134.3,40.4487090326609,-79.9442946530962,14.9200000762939,0.225296020507812,-0.875518798828125,0.290725708007812,0.0538504488219472,0.0911304430253124,0.00564723309151302
1493003134.5,40.4487090326609,-79.9442946530962,14.9200000762939,0.21051025390625,-0.952239990234375,0.259979248046875,-0.0359673221020652,0.143833335733545,-0.0167326411289679
1493003134.7,40.4487090326609,-79.9442946530962,14.9200000762939,0.153778076171875,-0.83892822265625,0.293014526367188,-0.0335489055161642,0.0555178539804458,-0.0857838808208694
1493003134.9,40.4487090326609,-79.9442946530962,14.9200000762939,-0.0675201416015625,-0.918533325195312,0.262954711914062,-0.0435067311480795,-0.143320943539813,-0.0118039288995582
1493003135.1,40.4487090326609,-79.9442946530962,14.9200000762939,0.138916015625,-0.834197998046875,0.31103515625,-0.0845060961298493,0.0335198770602823,-0.0318719129777413
1493003135.3,40.4488407294131,-79.9443484213573,15.460000038147,0.152603149414062,-0.95294189453125,0.247314453125,-0.0528552255225846,0.0641555506600088,-0.0710768400170158
1493003135.5,40.4488407294131,-79.9443484213573,15.460000038147,0.044952392578125,-0.868377685546875,0.294570922851562,-0.0371284603373397,0.0321542080532897,0.00700038524138229
1493003135.7,40.4488407294131,-79.9443484213573,15.460000038147,0.0651092529296875,-0.9241943359375,0.251220703125,0.00756710592135115,-0.0564201329577647,0.0386067810584427
1493003135.9,40.4488407294131,-79.9443484213573,15.460000038147,0.18829345703125,-0.884246826171875,0.329559326171875,0.0243072039013712,-0.0724827227564686,0.0516141924546077
1493003136.1,40.4488407294131,-79.9443484213573,15.460000038147,-0.01373291015625,-0.981521606445312,0.333877563476562,0.0177513002459232,-0.150071524270946,0.176494343342276
1493003136.3,40.4489743577043,-79.9444035582817,15.9899997711182,0.0215911865234375,-0.922332763671875,0.255462646484375,0.0915224603377721,-0.099516737297972,0.0278492081511766
1493003136.5,40.4489743577043,-79.9444035582817,15.9899997711182,0.12530517578125,-0.985427856445312,0.255203247070312,-0.0902550619750034,-0.01855211278571,0.0481696599006992
1493003136.7,40.4489743577043,-79.9444035582817,15.9899997711182,0.095062255859375,-0.957870483398438,0.290939331054688,-0.0772226168645916,-0.0431075233006766,0.0163800386006414
1493003136.9,40.4489743577043,-79.9444035582817,15.9899997711182,0.0757904052734375,-0.933547973632812,0.257949829101562,0.0253591525319525,0.00515641250261142,0.0173057533955529
1493003137.1,40.4489743577043,-79.9444035582817,15.9899997711182,0.05731201171875,-0.918487548828125,0.279251098632812,0.00971041796664692,0.0286582764903427,0.0064227456009441
1493003137.3,40.4491168018119,-79.944463024429,16.4400005340576,0.056732177734375,-0.99530029296875,0.241714477539062,0.0771853326093305,0.042044389393517,-0.0142452486708338
1493003137.5,40.4491168018119,-79.944463024429,16.4400005340576,0.0166168212890625,-0.880569458007812,0.2789306640625,-0.0422563770162873,-0.01781388453154,-0.0345055129797207
1493003137.7,40.4491168018119,-79.944463024429,16.4400005340576,-0.0653228759765625,-0.970413208007812,0.271957397460938,-0.0124167222663854,0.0649566295159047,-0.0685324559115541
1493003137.9,40.4491168018119,-79.944463024429,16.4400005340576,0.016510009765625,-0.957534790039062,0.150039672851562,-0.0272667748207763,-0.0413037642943659,0.0243503471110305
1493003138.1,40.4491168018119,-79.944463024429,16.4400005340576,0.016632080078125,-0.96368408203125,0.358978271484375,-0.0979739680784891,-0.0525532230549696,-0.0285890343020006
1493003138.3,40.4492639199989,-79.9445247073755,16.7299995422363,-0.001312255859375,-0.86346435546875,0.3212890625,0.0127916953478686,-0.113886355591713,0.0921192747380589
1493003138.5,40.4492639199989,-79.9445247073755,16.7299995422363,-0.134231567382812,-0.905975341796875,0.225738525390625,-0.137317645810557,-0.0331369144955289,0.0551889535858211
1493003138.7,40.4492639199989,-79.9445247073755,16.7299995422363,-0.115127563476562,-0.933868408203125,0.265380859375,0.0346767542378128,-0.0438364304910313,0.0100640857594094
1493003138.9,40.4492639199989,-79.9445247073755,16.7299995422363,0.011871337890625,-0.932052612304688,0.29351806640625,0.0369542896020485,-0.120422551855094,0.112641594098209
1493003139.1,40.4494086786257,-79.944585401018,16.7399997711182,-0.1583251953125,-0.979461669921875,0.233444213867188,0.0327512887696855,-0.148054978693538,0.0934780195262173
1493003139.3,40.4494086786257,-79.944585401018,16.7399997711182,0.014007568359375,-1.029052734375,0.219207763671875,0.00217633524281275,-0.144668236735284,0.072898175886521
1493003139.5,40.4494086786257,-79.944585401018,16.7399997711182,-0.0829620361328125,-1.08482360839844,0.19647216796875,-0.0354687783460023,-0.13058943563258,0.107661482859761
1493003139.7,40.4494086786257,-79.944585401018,16.7399997711182,-0.110366821289062,-1.08416748046875,0.178955078125,0.000301736151505978,-0.0723322541548791,0.0161829646799755
1493003139.9,40.4494086786257,-79.944585401018,16.7399997711182,-0.124420166015625,-0.865737915039062,0.213577270507812,-0.0509441411243438,-0.00393828262000918,-0.0922058274734864
1493003140.1,40.4494086786257,-79.944585401018,16.7399997711182,-0.037322998046875,-1.22135925292969,0.149337768554688,0.00504322815628305,-0.0340839345791611,-0.0755616032927092
1493003140.3,40.4495556744921,-79.9446470326785,16.4500007629395,0.183822631835938,-1.21208190917969,0.259292602539062,0.197737047777293,-0.0246986885816129,-0.0661494593681512
1493003140.5,40.4495556744921,-79.9446470326785,16.4500007629395,0.078521728515625,-0.920074462890625,0.220672607421875,0.0459898625484694,0.0369319190488918,0.00570662158382179
1493003140.7,40.4495556744921,-79.9446470326785,16.4500007629395,0.092681884765625,-0.918853759765625,0.141098022460938,0.019728431039198,0.0222051708529717,-0.0286430964721292
1493003140.9,40.4495556744921,-79.9446470326785,16.4500007629395,0.159652709960938,-0.991912841796875,0.148223876953125,-0.0523755902102614,-0.0794428942653907,-0.0291190033589264
1493003141.1,40.4495556744921,-79.9446470326785,16.4500007629395,0.11138916015625,-0.9833984375,0.140762329101562,-0.0103615608531713,-0.050986485385676,0.0288132724657853
1493003141.3,40.4496890203263,-79.9447029412248,15.9799995422363,0.0709075927734375,-1.05868530273438,0.135604858398438,-0.098944956611932,0.0665864841030332,-0.0480982871834851
1493003141.5,40.4496890203263,-79.9447029412248,15.9799995422363,0.114242553710938,-0.974700927734375,0.15802001953125,-0.00821824880787552,0.0223899942326232,-0.00973784852587473
1493003141.7,40.4496890203263,-79.9447029412248,15.9799995422363,0.0126190185546875,-1.00857543945312,0.0934295654296875,0.00290923717480256,-0.0340575692843693,0.00225010480500795
1493003141.9,40.4496890203263,-79.9447029412248,15.9799995422363,0.0590972900390625,-0.928314208984375,0.145477294921875,0.0826336275674146,-0.00904302979747306,0.0264585054299372
1493003142.1,40.4496890203263,-79.9447029412248,15.9799995422363,-0.003326416015625,-0.915695190429688,0.152740478515625,0.0187270824693282,-0.00969097689068934,0.0268720943472265
1493003142.3,40.4498167996524,-79.9447565158745,14.8299999237061,0.152725219726562,-0.880050659179688,0.132339477539062,-0.0796692629580474,0.0558217206608239,-0.0617339382807998
1493003142.5,40.4498167996524,-79.9447565158745,14.8299999237061,0.0904693603515625,-0.941299438476562,0.0985565185546875,0.0323014808615711,-0.0225543112718811,-0.0379947866399425
1493003142.7,40.4498167996524,-79.9447565158745,14.8299999237061,0.10748291015625,-1.06423950195312,0.0340423583984375,-0.0730084307556502,0.0770638924636229,0.00758335120400063
1493003142.9,40.4498167996524,-79.9447565158745,14.8299999237061,0.1556396484375,-1.00682067871094,0.08856201171875,-0.0587402788994417,0.0961022984643814,-0.0904113895309911
1493003143.1,40.4498167996524,-79.9447565158745,14.8299999237061,0.0895843505859375,-0.9066162109375,0.115875244140625,0.000436225786554979,-0.0680794522101316,0.00870986834510415
1493003143.3,40.4499346344018,-79.944805921014,13.3900003433228,0.067413330078125,-0.939529418945312,0.122543334960938,-0.0454910524762975,-0.0518219190196339,0.0273895465470289
1493003143.5,40.4499346344018,-79.944805921014,13.3900003433228,0.0175323486328125,-0.977706909179688,0.123046875,0.00807230758013918,0.0297270030357915,-0.0287818471649224
1493003143.7,40.4499346344018,-79.944805921014,13.3900003433228,0.132949829101562,-1.0057373046875,0.104476928710938,-0.0142862613516211,-0.0435181827407668,0.00849575019346178
1493003143.9,40.4499346344018,-79.944805921014,13.3900003433228,0.151397705078125,-0.93310546875,0.165908813476562,-0.018653312907133,0.108611698736702,-0.0559143986667586
1493003144.1,40.4499346344018,-79.944805921014,13.3900003433228,0.034027099609375,-0.9044189453125,0.149017333984375,-0.0249495583562983,-0.0572782034609882,0.00202480137678724
1493003144.3,40.4500431005055,-79.9448513981165,12.0900001525879,0.16363525390625,-0.928329467773438,0.123031616210938,0.0493805992483582,0.0188352068095854,0.0590987403821664
1493003144.5,40.4500431005055,-79.9448513981165,12.0900001525879,0.133407592773438,-0.912078857421875,0.0748748779296875,0.0601166005507947,-0.0780300873071037,0.0775842741406244
1493003144.7,40.4500431005055,-79.9448513981165,12.0900001525879,-0.0076751708984375,-0.945755004882812,0.1834716796875,0.00649038989263211,-0.0872635331225174,0.0226821430042049
1493003144.9,40.4500431005055,-79.9448513981165,12.0900001525879,0.07421875,-1.01470947265625,0.15509033203125,0.0370512286657274,-0.0151318149977212,0.00788189156219851
1493003145.1,40.4500431005055,-79.9448513981165,12.0900001525879,0.0747222900390625,-0.9903564453125,0.090087890625,-0.0790359632508266,0.0334825928050212,-0.0424779520189819
1493003145.3,40.4501354123098,-79.9448901021286,10.8599996566772,0.28594970703125,-1.02458190917969,0.0248870849609375,0.0536781422994191,-0.0248094760829602,0.032600021219769
1493003145.5,40.4501354123098,-79.9448901021286,10.8599996566772,0.0826416015625,-0.957717895507812,0.136428833007812,-0.0180389216436517,-0.0977292235743108,0.0970929943898908
1493003145.7,40.4501354123098,-79.9448901021286,10.8599996566772,-0.042999267578125,-0.959854125976562,0.106781005859375,0.0225702902384215,0.0604755946657374,-0.0596329704968363
1493003145.9,40.4501354123098,-79.9448901021286,10.8599996566772,0.066497802734375,-0.974014282226562,0.0862884521484375,-0.0474988096221082,-0.00501499864872821,-0.0335260023307895
1493003146.1,40.4501354123098,-79.9448901021286,10.8599996566772,0.09442138671875,-1.01512145996094,0.109451293945312,-0.0321784428192094,0.0246672632807499,-0.0473065293914045
1493003146.3,40.4502223848412,-79.9449265675182,9.39999961853027,0.0027008056640625,-0.94384765625,0.07904052734375,0.00631834968621299,0.0680312489944012,-0.0352959391912562
1493003146.5,40.4502223848412,-79.9449265675182,9.39999961853027,0.02789306640625,-0.947189331054688,0.0457763671875,-0.0237695116772842,-0.0764234022214589,0.0607280623370769
1493003146.7,40.4502223848412,-79.9449265675182,9.39999961853027,0.0545196533203125,-1.03733825683594,0.0379180908203125,0.00338594300992674,0.0255072242885609,-3.11589847539271e-05
1493003146.9,40.4502223848412,-79.9449265675182,9.39999961853027,0.06524658203125,-0.99676513671875,0.0759429931640625,0.00667601222061063,0.0148465904449737,-0.0127645311047498
1493003147.1,40.4502223848412,-79.9449265675182,9.39999961853027,0.0859527587890625,-0.974807739257812,0.0477447509765625,-0.0124976823635238,-0.0382067742627128,0.0362219203022767
1493003147.3,40.4502918074336,-79.9449556746608,7.42999982833862,0.012542724609375,-1.00663757324219,0.05987548828125,-0.0108830077946088,-0.00205409614877812,0.0158870874828677
1493003147.5,40.4502918074336,-79.9449556746608,7.42999982833862,-0.0182952880859375,-1.03572082519531,-0.0352783203125,0.00264691580742975,-0.0553290358591592,0.00976581171732057
1493003147.7,40.4502918074336,-79.9449556746608,7.42999982833862,-0.001251220703125,-1.02426147460938,0.007293701171875,-0.0484950981859069,0.0619983901770447,-0.0795563449278281
1493003147.9,40.4502918074336,-79.9449556746608,7.42999982833862,0.072265625,-1.01707458496094,-0.0367431640625,-0.0561325115600361,0.00887205485548997,-0.0176570243433344
1493003148.1,40.4502918074336,-79.9449556746608,7.42999982833862,0.076995849609375,-0.994049072265625,-0.0099334716796875,-0.0168226559738125,0.00117072561519883,-0.0151022539096213
1493003148.3,40.4503412812964,-79.9449764178041,4.82999992370605,0.054473876953125,-1.02891540527344,-0.0046539306640625,-0.034920433477555,0.00554363612510894,-0.0131664021132427
1493003148.5,40.4503412812964,-79.9449764178041,4.82999992370605,0.0310211181640625,-0.99951171875,0.0229034423828125,-0.0190293512530522,-0.0168988223809888,-0.0193430716294635
1493003148.7,40.4503412812964,-79.9449764178041,4.82999992370605,0.07958984375,-0.986404418945312,0.120223999023438,-0.0254457052673801,-0.00302721521109307,-0.00984863602722203
1493003148.9,40.4503412812964,-79.9449764178041,4.82999992370605,0.095123291015625,-0.964981079101562,0.226150512695312,-0.00285730553354601,0.0117165772158036,-0.0181851291874971
1493003149.1,40.4503412812964,-79.9449764178041,4.82999992370605,0.0917816162109375,-0.9393310546875,0.230712890625,-0.0118278973493689,-0.0211979633287037,-0.00326503549643715
1493003149.3,40.4503667933455,-79.944987114363,2.90000009536743,0.105316162109375,-0.92437744140625,0.305709838867188,0.00634178550380569,-0.015997874984215,-0.00522485574262646
1493003149.5,40.4503667933455,-79.944987114363,2.90000009536743,0.07806396484375,-0.913116455078125,0.377120971679688,0.00152146393076227,0.0159419486013233,-0.0245484862961324
1493003149.7,40.4503667933455,-79.944987114363,2.90000009536743,0.108001708984375,-0.88409423828125,0.395980834960938,-0.0257746056620049,-0.00195742340120824,0.0146681586519384
1493003149.9,40.4503667933455,-79.944987114363,2.90000009536743,0.0622406005859375,-0.956329345703125,0.33294677734375,-0.0257333266651087,0.0171904385203525,0.022082665442828
1493003150.1,40.4503667933455,-79.944987114363,2.90000009536743,-0.032958984375,-0.859024047851562,0.410385131835938,-2.23705531566656e-05,-0.114866398872862,0.0941230371422345
1493003150.3,40.4503929575457,-79.9449980843525,3.04999995231628,-0.076507568359375,-1.0032958984375,0.405685424804688,-0.00700358103469038,-0.0701588483892655,0.00650663517528159
1493003150.5,40.4503929575457,-79.9449980843525,3.04999995231628,-0.0072174072265625,-0.824966430664062,0.463531494140625,0.0975931360426077,-0.0527572211944697,-0.000997087512125667
1493003150.7,40.4503929575457,-79.9449980843525,3.04999995231628,0.0679168701171875,-0.911270141601562,0.4261474609375,0.015863917981384,-0.0468972015318594,0.059991431979561
1493003150.9,40.4503929575457,-79.9449980843525,3.04999995231628,0.04205322265625,-0.899017333984375,0.442459106445312,6.92421883420602e-05,0.0404235895540947,0.0169558140283165
1493003151.1,40.4503929575457,-79.9449980843525,3.04999995231628,0.20233154296875,-0.960372924804688,0.421646118164062,-0.03035018273087,0.149100003105285,-0.112647985684826
1493003151.3,40.4504374235406,-79.9450167278231,4.84000015258789,0.098602294921875,-0.887161254882812,0.476089477539062,0.0653257436429897,-0.0855093089124822,0.0819217646080364
1493003151.5,40.4504374235406,-79.9450167278231,4.84000015258789,0.077056884765625,-0.8768310546875,0.351638793945312,0.0453666828533908,-0.0343321411927565,0.0122814336830094
1493003151.7,40.4504374235406,-79.9450167278231,4.84000015258789,0.068389892578125,-0.913497924804688,0.4111328125,-0.00873277153047883,-0.0435445480355586,0.0693268768647247
1493003151.9,40.4504374235406,-79.9450167278231,4.84000015258789,0.099517822265625,-0.773361206054688,0.435089111328125,-0.0229511222743029,-0.0370648107872868,0.100084789558486
1493003152.1,40.4504374235406,-79.9450167278231,4.84000015258789,0.043243408203125,-0.8563232421875,0.41522216796875,-0.0666685094646076,-0.0165797756823973,0.037743916865257
1493003152.3,40.4504420325235,-79.9450186602534,6.40999984741211,0.213485717773438,-0.942901611328125,0.32196044921875,-0.0933238224991017,0.148447528638216,-0.102628907347839
1493003152.5,40.4504420325235,-79.9450186602534,6.40999984741211,0.16796875,-0.860122680664062,0.381744384765625,-0.0187997867670874,0.0735085724083671,-0.0643550214256558
1493003152.7,40.4504420325235,-79.9450186602534,6.40999984741211,0.091827392578125,-0.992721557617188,0.40606689453125,-0.0463222250525112,0.033273268343341,-0.0208181965572584
1493003152.9,40.4504420325235,-79.9450186602534,6.40999984741211,0.037322998046875,-0.876007080078125,0.46099853515625,0.160799003457894,0.0191539871920679,-0.0666408125892708
1493003153.1,40.4504420325235,-79.9450186602534,6.40999984741211,0.220260620117188,-0.877975463867188,0.3905029296875,-0.0312276943100511,0.081032002487841,-0.0858259587660926
1493003153.3,40.4504420325235,-79.9450186602534,7.90999984741211,0.203964233398438,-0.917343139648438,0.386825561523438,-0.0525399072495192,0.190718553040499,-0.180154059312263
1493003153.5,40.4504420325235,-79.9450186602534,7.90999984741211,0.129364013671875,-0.917083740234375,0.435073852539062,-0.0319893583818138,0.0342381316062767,-0.055859004916085
1493003153.7,40.4504420325235,-79.9450186602534,7.90999984741211,0.126602172851562,-0.992630004882812,0.393402099609375,-0.011997008078589,0.0479528785879668,0.0466668380975675
1493003153.9,40.4504420325235,-79.9450186602534,7.90999984741211,0.0212554931640625,-0.910568237304688,0.45697021484375,-0.0330570196628266,-0.0540139669128781,0.128812840869389
1493003154.1,40.4504420325235,-79.9450186602534,7.90999984741211,-0.151214599609375,-0.974929809570312,0.463058471679688,-0.0476657898224562,0.0162767079503463,0.0677076749219565
1493003154.3,40.4506279896667,-79.9450986892504,9.35000038146973,0.143783569335938,-0.941207885742188,0.40972900390625,-0.0666895484372192,0.150401756246116,-0.102361259658286
1493003154.5,40.4506279896667,-79.9450986892504,9.35000038146973,0.0983123779296875,-0.8856201171875,0.374542236328125,-0.0171491595234562,0.0500871358855563,-0.119720808907858
1493003154.7,40.4506279896667,-79.9450986892504,9.35000038146973,-0.0886383056640625,-0.893035888671875,0.411514282226562,0.00806138861966985,-0.118105335390616,0.124068153071303
1493003154.9,40.4506279896667,-79.9450986892504,9.35000038146973,-0.0943450927734375,-0.866195678710938,0.386260986328125,0.00829574679559683,-0.11810959644836,0.107011138921564
1493003155.1,40.4507101539542,-79.945134054033,10.5200004577637,0.06689453125,-0.864913940429688,0.371902465820312,-0.0687415140571253,-0.00381364668099347,-0.0369452348543423
1493003155.3,40.4507101539542,-79.945134054033,10.5200004577637,0.05419921875,-0.924163818359375,0.343536376953125,-0.049977946280863,0.0258433152181289,-0.0688160825676475
1493003155.5,40.4507101539542,-79.945134054033,10.5200004577637,0.100051879882812,-0.958404541015625,0.410125732421875,-0.0335158823186472,-0.0923152833942887,0.0638679292622803
1493003155.7,40.4507101539542,-79.945134054033,10.5200004577637,0.0710906982421875,-0.94482421875,0.36865234375,0.0221303360263405,-0.00333267978812516,0.0151621750341481
1493003155.9,40.4507101539542,-79.945134054033,10.5200004577637,0.130752563476562,-0.929931640625,0.394134521484375,0.00753967536212333,-0.013879596653166,-0.013747770179207
1493003156.1,40.4507101539542,-79.945134054033,10.5200004577637,0.111404418945312,-1.00584411621094,0.322113037109375,-0.0751959512750413,0.0589815612942029,-0.0755570759188561
1493003156.3,40.4508032846495,-79.9451741389274,11.460000038147,0.08404541015625,-0.943984985351562,0.302597045898438,-0.0299709485916427,-0.00724992343552271,0.00717535492500049
1493003156.5,40.4508032846495,-79.9451741389274,11.460000038147,0.169815063476562,-0.935928344726562,0.23968505859375,-0.0258097593883939,-0.0976874119451965,0.0426364101038416
1493003156.7,40.4508032846495,-79.9451741389274,11.460000038147,0.0677642822265625,-0.947097778320312,0.278488159179688,-0.0213785256506111,-0.00517904937187709,0.00299312674914006
1493003156.9,40.4508032846495,-79.9451741389274,11.460000038147,0.01416015625,-0.872543334960938,0.270492553710938,0.0359252441568419,-0.0310809541339878,0.0036466664806455
1493003157.1,40.4508032846495,-79.9451741389274,11.460000038147,0.06915283203125,-0.929168701171875,0.244003295898438,-0.0535822685001763,0.0141696148958756,-0.0453661502211728
1493003157.3,40.4509023574559,-79.9452167813986,11.8199996948242,0.110275268554688,-0.920028686523438,0.260650634765625,-0.0281006105580801,0.016132364619264,-0.0387130411859368
1493003157.5,40.4509023574559,-79.9452167813986,11.8199996948242,0.071441650390625,-1.000732421875,0.241989135742188,-0.0140039662760727,-0.00203465507282054,0.0105240136796661
1493003157.7,40.4509023574559,-79.9452167813986,11.8199996948242,0.089385986328125,-0.923614501953125,0.232803344726562,-0.0444351091040811,-0.00290577506538546,-0.0228379379279745
1493003157.9,40.4509023574559,-79.9452167813986,11.8199996948242,0.0935516357421875,-0.979583740234375,0.2247314453125,-0.0900028606197729,0.00270710324806555,-0.0361135296459105
1493003158.1,40.4509023574559,-79.9452167813986,11.8199996948242,0.139404296875,-0.970626831054688,0.176742553710938,-0.0326439633777553,0.0927472481230995,-0.0538842709677912
1493003158.3,40.4510013981555,-79.9452594100505,11.3900003433228,0.188461303710938,-0.976531982421875,0.19049072265625,-0.00748295003090464,-0.0520653319432671,0.0512360235798165
1493003158.5,40.4510013981555,-79.9452594100505,11.3900003433228,-0.01312255859375,-0.971298217773438,0.237823486328125,-0.0500075073689629,-0.128371555076762,0.0819177698664013
1493003158.7,40.4510013981555,-79.9452594100505,11.3900003433228,0.0064239501953125,-0.940460205078125,0.185287475585938,-0.0508653115560774,-0.0507225661216492,0.0315965421210271
1493003158.9,40.4510013981555,-79.9452594100505,11.3900003433228,0.019134521484375,-0.959381103515625,0.178878784179688,-0.0317067969901564,-0.0497832692051782,0.0328564836327436
1493003159.1,40.4510013981555,-79.9452594100505,11.3900003433228,0.077911376953125,-0.8958740234375,0.156463623046875,-0.0328242593835536,0.022551381794682,-0.00146047754179945
1493003159.3,40.4510932113607,-79.9452989278768,10.4399995803833,0.0279998779296875,-0.998077392578125,0.14324951171875,0.0259051005554188,0.0466351464805956,0.000144875963300311
1493003159.5,40.4510932113607,-79.9452989278768,10.4399995803833,0.10455322265625,-0.994094848632812,0.117431640625,-0.0165651282964019,0.0894499883774725,-0.0633070675367096
1493003159.7,40.4510932113607,-79.9452989278768,10.4399995803833,0.155227661132812,-0.967483520507812,0.087799072265625,0.0198924817623469,-0.0639416988244755,0.0675401620893906
1493003159.9,40.4510932113607,-79.9452989278768,10.4399995803833,0.0754547119140625,-0.974441528320312,0.0998687744140625,-0.00887445170047105,-0.157357400381185,0.0952082752864418
1493003160.1,40.4510932113607,-79.9452989278768,10.4399995803833,-0.019561767578125,-0.973617553710938,0.057769775390625,-0.0266574435633662,-0.0551319619384934,0.0499814083902801
1493003160.3,40.4511782678503,-79.945335537508,8.89999961853027,0.009735107421875,-0.974411010742188,0.11517333984375,0.00470181090453489,-0.0574691521111469,0.0140572294978743
1493003160.5,40.4511782678503,-79.945335537508,8.89999961853027,0.08331298828125,-0.956558227539062,0.0843048095703125,-0.0438923568739229,0.00560728567516184,0.0197942111181229
1493003160.7,40.4511782678503,-79.945335537508,8.89999961853027,0.0092010498046875,-1.03561401367188,0.0457000732421875,-0.0306628378428453,0.015090269684716,-0.00781637779938256
1493003160.9,40.4511782678503,-79.945335537508,8.89999961853027,0.0459747314453125,-1.04096984863281,0.0221710205078125,-0.0321251795974078,0.039559660096473,-0.0430795601092308
1493003161.1,40.4511782678503,-79.945335537508,8.89999961853027,0.0736846923828125,-1.01130676269531,0.05511474609375,-0.0213247297965915,0.0501257517213624,-0.0483273190372319
1493003161.3,40.451245420961,-79.9453644412475,6.98999977111816,0.042633056640625,-1.00167846679688,0.0698699951171875,-0.0164964187402778,0.0309515245050099,-0.0226392661106546
1493003161.5,40.451245420961,-79.9453644412475,6.98999977111816,0.0752105712890625,-1.00177001953125,0.033782958984375,-0.0269445323288767,-0.00620383375933959,0.019998209257623
1493003161.7,40.451245420961,-79.9453644412475,6.98999977111816,0.0523681640625,-1.01289367675781,-0.0094757080078125,-0.0113658389002402,0.0266651667305274,-0.0108473214360017
1493003161.9,40.451245420961,-79.9453644412475,6.98999977111816,0.0116119384765625,-1.04801940917969,0.021942138671875,-0.0138867871881092,-0.0020367856016926,0.00199550660479637
1493003162.1,40.451245420961,-79.9453644412475,6.98999977111816,0.049713134765625,-1.0023193359375,0.0064544677734375,-0.0137962397110465,0.00221681529138196,-0.00227939957699882
1493003162.3,40.4512890136573,-79.9453832042195,4.32000017166138,0.0619964599609375,-1.00843811035156,0.0280914306640625,0.00713487487643129,-0.00536174222265653,0.0203449528315513
1493003162.5,40.4512890136573,-79.9453832042195,4.32000017166138,-0.0090789794921875,-1.01400756835938,0.03985595703125,-0.00705897478536403,0.0096156094318401,-0.0235537956289878
1493003162.7,40.4512890136573,-79.9453832042195,4.32000017166138,0.0717315673828125,-1.02070617675781,0.039520263671875,-0.0185246822264822,0.00543204967543462,-0.0439184558526057
1493003162.9,40.4512890136573,-79.9453832042195,4.32000017166138,0.08587646484375,-0.96820068359375,0.163681030273438,-0.0160894877257137,-0.00202160558347915,0.00730398560565132
1493003163.1,40.4512890136573,-79.9453832042195,4.32000017166138,0.016448974609375,-0.937179565429688,0.2744140625,-5.72579634367036e-05,-0.00957326517050784,-0.00104209493454801
1493003163.3,40.4513159835878,-79.9453948124956,1.94000005722046,0.0284423828125,-0.899749755859375,0.28717041015625,-0.0220943833516244,0.00226821430042049,-0.0183577020261342
1493003163.5,40.4513159835878,-79.9453948124956,1.94000005722046,0.0535430908203125,-0.9200439453125,0.354827880859375,-0.0146905292050951,0.00541207596725903,-0.0129589418643256
1493003163.7,40.4513159835878,-79.9453948124956,1.94000005722046,0.061309814453125,-0.964950561523438,0.380401611328125,-0.0159510033490296,-0.0264917949435632,-0.0160881561451687
1493003163.9,40.4513159835878,-79.9453948124956,1.94000005722046,0.0784759521484375,-0.917495727539062,0.395858764648438,-0.01263563410799,0.00327195971527135,-0.00866752408377189
1493003164.1,40.4513159835878,-79.9453948124956,1.94000005722046,0.031494140625,-0.85479736328125,0.419967651367188,-0.0284361688554301,-0.00513777037498087,-0.0258670173518306
1493003164.3,40.4513376656658,-79.9454041447979,2.4300000667572,0.122222900390625,-0.96978759765625,0.44403076171875,0.0149808137639137,0.00202932875064038,-0.00411671441304449
1493003164.5,40.4513376656658,-79.9454041447979,2.4300000667572,0.08355712890625,-0.857818603515625,0.455856323242188,0.0646538280999627,-0.0312551248692789,0.0828410878163318
1493003164.7,40.4513376656658,-79.9454041447979,2.4300000667572,0.110931396484375,-0.945709228515625,0.511474609375,0.0424555814658252,-0.0545165054105761,0.0581509213502072
1493003164.9,40.4513376656658,-79.9454041447979,2.4300000667572,0.085052490234375,-0.858795166015625,0.503570556640625,-0.0286585428064517,-0.00938897442307435,-0.011997540710807
1493003165.1,40.4513376656658,-79.9454041447979,2.4300000667572,0.095977783203125,-0.91082763671875,0.460067749023438,0.008099738139367,-0.0362173929284236,0.0108385330044045
1493003165.3,40.4513694674677,-79.9454178327863,4.26000022888184,0.131027221679688,-0.884231567382812,0.431625366210938,-0.0010452907278561,-0.0552992084549503,0.045979209904109
1493003165.5,40.4513694674677,-79.9454178327863,4.26000022888184,0.091705322265625,-0.886749267578125,0.43463134765625,-0.0164290407646988,-0.0179726089325087,0.0233348837873833
1493003165.7,40.4513694674677,-79.9454178327863,4.26000022888184,0.120742797851562,-0.752822875976562,0.497940063476562,-0.019695407841681,0.109682023178804,-0.0569940441726768
1493003165.9,40.4513694674677,-79.9454178327863,4.26000022888184,0.0380096435546875,-0.918228149414062,0.416702270507812,-0.0337630236678066,-0.0497707523480549,0.0275043287900113
1493003166.1,40.4513807782154,-79.9454227011074,6.01999998092651,0.123092651367188,-0.888626098632812,0.293304443359375,-0.0685449727686775,-0.0218895862637973,0.0164141270625944
1493003166.3,40.4513807782154,-79.9454227011074,6.01999998092651,0.125640869140625,-0.836029052734375,0.40277099609375,-0.0361896960530868,0.0459666930469857,-0.0537998487612357
1493003166.5,40.4513807782154,-79.9454227011074,6.01999998092651,0.0557861328125,-0.928070068359375,0.441802978515625,-0.038651788480865,-0.11994318285888,0.0350988652705903
1493003166.7,40.4513807782154,-79.9454227011074,6.01999998092651,0.182754516601562,-1.03953552246094,0.364837646484375,-0.0985366940168228,-0.0227686957396324,-0.0489297260758078
1493003166.9,40.4513807782154,-79.9454227011074,6.01999998092651,0.212249755859375,-0.702987670898438,0.436477661132812,-0.00793462215178208,0.0542991914656256,-0.0130159335116533
1493003167.1,40.4513807782154,-79.9454227011074,6.01999998092651,0.329177856445312,-0.901962280273438,0.3375244140625,0.00820386773798909,-0.159596586225724,0.0911240514386963
1493003167.3,40.4513807782154,-79.9454227011074,7.67999982833862,-0.161346435546875,-0.908950805664062,0.4962158203125,0.0418925892113824,-0.16724545119254,0.192779040775893
1493003167.5,40.4513807782154,-79.9454227011074,7.67999982833862,-0.110610961914062,-0.86785888671875,0.5001220703125,-0.0494860604275254,-0.107092365334811,0.133046468054288
1493003167.7,40.4513807782154,-79.9454227011074,7.67999982833862,0.052886962890625,-0.902923583984375,0.459701538085938,0.0320359637008902,-0.088493380913916,0.0229468612165587
1493003167.9,40.4513807782154,-79.9454227011074,7.67999982833862,0.100357055664062,-0.928054809570312,0.371322631835938,-0.0741685037264888,0.0345076435085927,-0.0861455380969021
1493003168.1,40.4513807782154,-79.9454227011074,7.67999982833862,0.027862548828125,-0.915908813476562,0.51104736328125,0.0400699217613322,-0.175760109829741,0.088293377516051
1493003168.3,40.4515425363809,-79.9454931009088,9.22999954223633,0.079132080078125,-0.822250366210938,0.39630126953125,-0.0617198235270224,-0.0261943198498014,-0.0176237348297084
1493003168.5,40.4515425363809,-79.9454931009088,9.22999954223633,0.010589599609375,-0.909866333007812,0.429183959960938,-0.0204908940592877,0.0160934824673488,0.0274702403280583
1493003168.7,40.4515425363809,-79.9454931009088,9.22999954223633,0.125228881835938,-0.904647827148438,0.445098876953125,-0.0176423769573389,0.0298961137650115,-0.0173172049882402
1493003168.9,40.4515425363809,-79.9454931009088,9.22999954223633,0.105987548828125,-0.89825439453125,0.401840209960938,-0.0152351456480163,0.00116673087356371,0.0243639292325899
1493003169.1,40.4516290759737,-79.9455307646618,10.6300001144409,0.0979766845703125,-0.934677124023438,0.427108764648438,0.0122787705219193,-0.0234778955379205,0.0236430115255055
1493003169.3,40.4516290759737,-79.9455307646618,10.6300001144409,0.107666015625,-0.944229125976562,0.332748413085938,-0.0348903397572371,-0.021039771559953,0.0476767087829255
1493003169.5,40.4516290759737,-79.9455307646618,10.6300001144409,0.0630645751953125,-0.88409423828125,0.302597045898438,-0.0549657806864724,0.0269605112954172,0.0622742936659769
1493003169.7,40.4516290759737,-79.9455307646618,10.6300001144409,0.0574951171875,-0.979446411132812,0.28155517578125,0.125240210267047,-0.0401708555666462,0.0088494179862243
1493003169.9,40.4516290759737,-79.9455307646618,10.6300001144409,0.0465545654296875,-0.963836669921875,0.327499389648438,-0.0825276337560295,0.0452231384706355,0.0630111903396018
1493003170.1,40.4516290759737,-79.9455307646618,10.6300001144409,-0.0532684326171875,-0.922042846679688,0.309722900390625,-0.0727905841784818,-0.0707974744186665,-0.011224691362466
1493003170.3,40.4517311584287,-79.9455751929777,12.0900001525879,0.02569580078125,-0.886795043945312,0.37518310546875,0.0434785016405246,-0.16089141514772,0.0808264064516869
1493003170.5,40.4517311584287,-79.9455751929777,12.0900001525879,-0.0770263671875,-0.9329833984375,0.432998657226562,0.0305046460740946,-0.171442859386614,0.0892505176118255
1493003170.7,40.4517311584287,-79.9455751929777,12.0900001525879,0.075286865234375,-0.927734375,0.283660888671875,0.00504535868515512,-0.0819430698967571,-0.0242597996339678
1493003170.9,40.4517311584287,-79.9455751929777,12.0900001525879,0.004913330078125,-0.931930541992188,0.345016479492188,0.116333800633495,-0.21348485193515,0.0977012603828649
1493003171.1,40.4517311584287,-79.9455751929777,12.0900001525879,-0.0509033203125,-0.937393188476562,0.337554931640625,0.0328551520521986,-0.157631173341245,0.0807092273637234
1493003171.3,40.4518344379608,-79.9456201422853,12.9700002670288,-0.0302886962890625,-0.91375732421875,0.359756469726562,0.0134119455657481,0.0201177851905676,-0.0350996642189173
1493003171.5,40.4518344379608,-79.9456201422853,12.9700002670288,0.0970306396484375,-0.915084838867188,0.314895629882812,-0.00816232242498386,0.0298356600082667,-0.00975649065350529
1493003171.7,40.4518344379608,-79.9456201422853,12.9700002670288,0.221221923828125,-0.965805053710938,0.25177001953125,-0.035961995779885,0.117237943823577,-0.0315909494827379
1493003171.9,40.4518344379608,-79.9456201422853,12.9700002670288,0.142791748046875,-0.963241577148438,0.240493774414062,0.0234773629057025,0.0147400640013706,0.00446718641249891
1493003172.1,40.4518344379608,-79.9456201422853,12.9700002670288,0.02557373046875,-0.993850708007812,0.307281494140625,-0.0181342628106766,-0.058378887939518,0.0479446227885875
1493003172.3,40.4519492028629,-79.9456700902546,13.5799999237061,0.0644683837890625,-0.935943603515625,0.294998168945312,-0.0150801496725737,0.0309382086995595,-0.0482138683747945
1493003172.5,40.4519492028629,-79.9456700902546,13.5799999237061,0.046295166015625,-0.959228515625,0.2657470703125,-0.0265690266151755,0.00868270410198534,0.000771784083904963
1493003172.7,40.4519492028629,-79.9456700902546,13.5799999237061,0.0146484375,-0.961502075195312,0.2703857421875,0.00984836971111302,-0.00111852765783328,0.0576792755211542
1493003172.9,40.4519492028629,-79.9456700902546,13.5799999237061,0.07940673828125,-1.00868225097656,0.16302490234375,-0.0658676969248208,0.0972210924383237,-0.0361103338526024
1493003173.1,40.4519492028629,-79.9456700902546,13.5799999237061,0.154098510742188,-0.924301147460938,0.180816650390625,-0.0613062346097331,0.00998019618507195,0.0494586298682976
1493003173.3,40.4520651910015,-79.9457205706007,13.460000038147,0.13885498046875,-0.989013671875,0.181808471679688,-0.0808833980990146,-0.114341223505898,0.0890289426091309
1493003173.5,40.4520651910015,-79.9457205706007,13.460000038147,-0.0185394287109375,-0.999343872070312,0.213180541992188,-0.0306428641346697,-0.0115053885413603,-0.0237407495375114
1493003173.7,40.4520651910015,-79.9457205706007,13.460000038147,0.026214599609375,-0.986846923828125,0.221176147460938,0.0743701050210078,-0.0238856255008117,-0.000243146607524234
1493003173.9,40.4520651910015,-79.9457205706007,13.460000038147,0.071014404296875,-0.881759643554688,0.216506958007812,-0.0329965659060818,-0.0348788881645498,0.0573277382572637
1493003174.1,40.4520651910015,-79.9457205706007,13.460000038147,-0.028961181640625,-0.882858276367188,0.2244873046875,0.0336935151633555,-0.109762450643725,0.123242839449488
1493003174.3,40.4521814276131,-79.9457711590872,13.289999961853,-0.09844970703125,-0.953384399414062,0.21514892578125,0.0226464566455978,-0.0373716069448639,0.0365795828366744
1493003174.5,40.4521814276131,-79.9457711590872,13.289999961853,0.022369384765625,-0.98492431640625,0.25714111328125,-0.0725564923186638,0.12491477198184,-0.0767664173698611
1493003174.7,40.4521814276131,-79.9457711590872,13.289999961853,-0.0252838134765625,-1.02143859863281,0.23699951171875,-0.0329789890428872,0.111889517406371,-0.0965856622022307
1493003174.9,40.4521814276131,-79.9457711590872,13.289999961853,0.023223876953125,-1.05593872070312,0.218994140625,0.0729538359533036,-0.0589780991847858,0.00623019905413137
1493003175.1,40.4521814276131,-79.9457711590872,13.289999961853,-0.06573486328125,-0.926681518554688,0.327987670898438,-0.0100438457351248,-0.1211914064618,0.0449909108235806
1493003175.3,40.4522947902989,-79.945820496784,13.1499996185303,0.0666351318359375,-0.894393920898438,0.27349853515625,-0.071183899092837,-0.0123046031844931,-0.018822689952462
1493003175.5,40.4522947902989,-79.945820496784,13.1499996185303,0.0361175537109375,-0.97198486328125,0.258056640625,-0.0032466596849156,-0.0414544992120644,0.058715511501304
1493003175.7,40.4522947902989,-79.945820496784,13.1499996185303,0.0625762939453125,-0.9141845703125,0.26556396484375,-0.0463768198548579,0.0513590616221781,-0.00700464629912641
1493003175.9,40.4522947902989,-79.945820496784,13.1499996185303,-0.022064208984375,-0.889617919921875,0.292343139648438,-0.00921427105556516,-0.0361015454210051,0.0309190339397109
1493003176.1,40.4522947902989,-79.945820496784,13.1499996185303,0.157638549804688,-0.83843994140625,0.228744506835938,-0.115206484544065,0.126244221998007,-0.149709068046586
1493003176.3,40.4524078291024,-79.9458696935208,13.1700000762939,0.113128662109375,-0.916229248046875,0.258148193359375,-0.0825412158775889,0.0909424238523528,-0.0661188330156153
1493003176.5,40.4524078291024,-79.9458696935208,13.1700000762939,0.084136962890625,-0.934219360351562,0.278213500976562,0.00822490671060072,-0.035155856917918,0.00230736276844465
1493003176.7,40.4524078291024,-79.9458696935208,13.1700000762939,-0.00042724609375,-0.93499755859375,0.263687133789062,-0.0308937339093552,-0.0657427946696961,0.0425019204687926
1493003176.9,40.4524078291024,-79.9458696935208,13.1700000762939,-0.0775299072265625,-0.868515014648438,0.290451049804688,-0.0732880626701086,0.00472977409598073,-0.0114246947603309
1493003177.1,40.4524078291024,-79.9458696935208,13.1700000762939,0.0283966064453125,-0.926925659179688,0.269256591796875,-0.0672328332995954,0.0780724315684359,-0.10218016470416
1493003177.3,40.4524842273014,-79.9459029435374,13.3199996948242,0.0731353759765625,-0.893600463867188,0.221176147460938,-0.0935746922737872,0.0474024031906474,-0.0618545794781804
1493003177.5,40.4524842273014,-79.9459029435374,13.3199996948242,-0.058502197265625,-0.963119506835938,0.284317016601562,-0.077908647161396,0.0398574015063439,-0.0435490754094117
1493003177.7,40.4524842273014,-79.9459029435374,13.3199996948242,-0.003509521484375,-0.931777954101562,0.251129150390625,0.00333800611030532,-0.0042786346073213,-0.0127493510865363
1493003177.9,40.4524842273014,-79.9459029435374,13.3199996948242,0.03216552734375,-0.978363037109375,0.1988525390625,0.0295027648720068,0.024266990168911,-0.0413429127623901
1493003178.1,40.4524842273014,-79.9459029435374,13.3199996948242,0.082305908203125,-0.974365234375,0.225433349609375,-0.0237324937381321,0.050144660165102,-0.0280939526553549
1493003178.3,40.452643849445,-79.9459764717379,13.6099996566772,0.13604736328125,-0.934158325195312,0.22845458984375,0.00483044158518572,-0.0904372221935648,0.0642556855169958
1493003178.5,40.452643849445,-79.9459764717379,13.6099996566772,0.04339599609375,-0.960174560546875,0.274444580078125,-0.0204568055973347,-0.0860206358417774,0.0469259636716322
1493003178.7,40.452643849445,-79.9459764717379,13.6099996566772,0.026092529296875,-0.912063598632812,0.314544677734375,-0.0233388785290184,0.0192993957875862,0.0039760995074883
1493003178.9,40.452643849445,-79.9459764717379,13.6099996566772,0.046905517578125,-0.891204833984375,0.228912353515625,-0.0315970747532451,-0.0104366619959115,-0.0312167753495818
1493003179.1,40.452643849445,-79.9459764717379,13.6099996566772,0.116165161132812,-0.883148193359375,0.208023071289062,-0.0178527666834552,0.00968751478127224,-0.0130023513900939
1493003179.3,40.4527556991473,-79.9460280493236,13.6899995803833,0.0015869140625,-0.9901123046875,0.2144775390625,0.0170911026116925,-0.0330775260032202,0.0557034763084244
1493003179.5,40.4527556991473,-79.9460280493236,13.6899995803833,0.039794921875,-0.876953125,0.247894287109375,0.0636255816030831,0.008099738139367,0.0240872267953307
1493003179.7,40.4527556991473,-79.9460280493236,13.6899995803833,0.0511322021484375,-0.900344848632812,0.232742309570312,0.0373849227503143,-0.0364016836758571,0.0495225457344595
1493003179.9,40.4527556991473,-79.9460280493236,13.6899995803833,-0.0119781494140625,-0.949432373046875,0.201004028320312,-0.00344586413445353,-0.0510376180786055,-0.00949949560831264
1493003180.1,40.4527556991473,-79.9460280493236,13.6899995803833,-0.0101318359375,-0.890869140625,0.273406982421875,-0.0504964637451014,-0.0347720954048376,0.0134335171705777
1493003180.3,40.4528733756692,-79.946082313848,13.8199996948242,0.03759765625,-0.995071411132812,0.223281860351562,0.0524424355536223,-0.0567013627688771,0.105172226188864
1493003180.5,40.4528733756692,-79.946082313848,13.8199996948242,-0.057373046875,-0.9586181640625,0.25860595703125,-0.0249988268364648,-0.0540858722623102,0.0073471288153106
1493003180.7,40.4528733756692,-79.946082313848,13.8199996948242,0.04376220703125,-0.978713989257812,0.203079223632812,0.00172919049578845,0.031895348795334,-0.0309848140186359
1493003180.9,40.4528733756692,-79.946082313848,13.8199996948242,0.053863525390625,-0.95074462890625,0.176376342773438,-0.0273306906869382,-0.0498130966093871,0.0243716523997511
1493003181.1,40.4528733756692,-79.946082313848,13.8199996948242,-0.0123138427734375,-1.01785278320312,0.228713989257812,0.0670695815247735,-0.0302103667736409,0.0626050582733647
1493003181.3,40.4529947770027,-79.9461382960059,13.9300003051758,-0.0144195556640625,-0.850296020507812,0.2174072265625,0.0809355960563801,-0.0569085567016852,-0.0310109129973187
1493003181.5,40.4529947770027,-79.9461382960059,13.9300003051758,-0.0695343017578125,-0.904373168945312,0.233505249023438,-0.0447765263558293,-0.0613967820867958,0.0476796382601246
1493003181.7,40.4529947770027,-79.9461382960059,13.9300003051758,0.06036376953125,-0.922805786132812,0.1475830078125,-0.0401002817977591,-0.0220834643911551,-0.0387372759518566
1493003181.9,40.4529947770027,-79.9461382960059,13.9300003051758,0.079986572265625,-0.996368408203125,0.104248046875,-0.0566393111154782,0.0344003181166625,-0.0443834437789336
1493003182.1,40.4529947770027,-79.9461382960059,13.9300003051758,-0.00079345703125,-0.9910888671875,0.136825561523438,-0.0189933985783361,-0.0296652176985016,-0.028905684155611
1493003182.3,40.4531112405565,-79.9461920011907,13.6499996185303,0.0005035400390625,-1.02787780761719,0.126602172851562,-0.0317235749050239,0.0214799920881431,-0.00464508557331621
1493003182.5,40.4531112405565,-79.9461920011907,13.6499996185303,0.00347900390625,-0.994308471679688,0.110153198242188,0.0327829803866574,-0.0182953840566264,0.00678014181923273
1493003182.7,40.4531112405565,-79.9461920011907,13.6499996185303,0.143783569335938,-0.926651000976562,0.100387573242188,-0.0341414588587068,0.0799962991399092,-0.0293437741549291
1493003182.9,40.4531112405565,-79.9461920011907,13.6499996185303,0.0614471435546875,-1.00518798828125,0.0958709716796875,-0.0282271107098589,0.0129432292138941,-0.0312426080121556
1493003183.1,40.4531112405565,-79.9461920011907,13.6499996185303,0.07366943359375,-0.990524291992188,0.049163818359375,-0.015528093367925,-0.0456356621234888,0.0202168547831185
1493003183.3,40.453220817763,-79.9462425308537,12.6899995803833,0.06024169921875,-0.963150024414062,0.009735107421875,0.0113823504989987,0.0392784302853607,-0.0319712488864013
1493003183.5,40.453220817763,-79.9462425308537,12.6899995803833,-0.0055389404296875,-0.974624633789062,0.075439453125,-0.0540129016484421,-0.0230435339641286,0.043221240279223
1493003183.7,40.453220817763,-79.9462425308537,12.6899995803833,-0.0195770263671875,-0.979263305664062,-0.001068115234375,-0.0603946345685989,-0.0591717109960346,0.0229910696906541
1493003183.9,40.453220817763,-79.9462425308537,12.6899995803833,0.1190185546875,-1.01795959472656,0.0130462646484375,-0.0219207452485512,0.0501241538247084,-0.0824522662971802
1493003184.1,40.453220817763,-79.9462425308537,12.6899995803833,0.0696258544921875,-1.03684997558594,0.0101470947265625,-0.0150074453748145,0.0139283325011144,0.0147374008402805
1493003184.3,40.4533180813182,-79.9462873822861,10.9799995422363,0.00128173828125,-0.987625122070312,-0.018798828125,-0.0409445038633142,-0.0369614801369917,0.0146031775213405
1493003184.5,40.4533180813182,-79.9462873822861,10.9799995422363,0.0528106689453125,-1.03875732421875,-0.0290679931640625,-0.085570295301445,0.0856411353864411,-0.0810631614725949
1493003184.7,40.4533180813182,-79.9462873822861,10.9799995422363,0.029876708984375,-1.01150512695312,-0.025909423828125,-0.0280140578226525,0.0140031673277456,-0.0461701585542677
1493003184.9,40.4533180813182,-79.9462873822861,10.9799995422363,0.0884552001953125,-1.04531860351562,-0.0267333984375,-0.0372890489510715,0.0491656821483888,-0.0495545036675404
1493003185.1,40.4533180813182,-79.9462873822861,10.9799995422363,0.084442138671875,-1.03868103027344,-0.056793212890625,0.00554070664790986,0.0191100450340816,-0.0053236590190684
1493003185.3,40.4533954108436,-79.94632304148,8.39999961853027,0.064666748046875,-1.05967712402344,-0.036712646484375,-0.00330817870609643,0.068094365912236,-0.0321960196824039
1493003185.5,40.4533954108436,-79.94632304148,8.39999961853027,0.0975799560546875,-1.0311279296875,-0.0503997802734375,-0.020635503706479,0.0469342194710115,-0.0227228893688831
1493003185.7,40.4533954108436,-79.94632304148,8.39999961853027,0.0462188720703125,-1.04959106445312,-0.012725830078125,-0.000221042370476577,0.00957832517657899,0.0212972992373637
1493003185.9,40.4533954108436,-79.94632304148,8.39999961853027,0.0345611572265625,-1.01438903808594,-0.04046630859375,-0.0149275505421121,0.0128630680650827,0.00834368369521825
1493003186.1,40.4533954108436,-79.94632304148,8.39999961853027,0.045196533203125,-1.01425170898438,-0.019622802734375,-0.0125264445032967,0.025610022306638,-0.00445919692922868
1493003186.3,40.4534521387064,-79.9463492005681,5.84999990463257,0.0662841796875,-1.0087890625,-0.0253143310546875,-0.0117320235501261,0.0266718246332526,0.0158042631729662
1493003186.5,40.4534521387064,-79.9463492005681,5.84999990463257,0.055938720703125,-1.04322814941406,-0.0229034423828125,-0.0341513125547401,0.00128683943872629,0.00604431041004384
1493003186.7,40.4534521387064,-79.9463492005681,5.84999990463257,0.0215911865234375,-1.019775390625,-0.0855865478515625,-0.0194461359636496,-0.0158274326744499,0.0115701033558493
1493003186.9,40.4534521387064,-79.9463492005681,5.84999990463257,-0.012786865234375,-1.02778625488281,-0.111724853515625,-0.0168772507761592,0.00755458906422777,-0.00765578918565079
1493003187.1,40.4534521387064,-79.9463492005681,5.84999990463257,0.010986328125,-1.03764343261719,-0.118942260742188,-0.0127568079375886,0.00859322188935868,0.00304585733872362
1493003187.3,40.4534878345803,-79.9463656611125,3.41000008583069,0.00323486328125,-1.06472778320312,-0.12213134765625,0.00434681153122733,-2.92947719908716e-05,-0.00635270446427501
1493003187.5,40.4534878345803,-79.9463656611125,3.41000008583069,-0.003997802734375,-1.04666137695312,-0.071136474609375,-0.0133866455353923,-0.0382030458371867,0.0234182407295028
1493003187.7,40.4534878345803,-79.9463656611125,3.41000008583069,0.0038299560546875,-1.012451171875,0.0319671630859375,0.00204956877492498,-0.0106505138314449,4.84695318394421e-05
1493003187.9,40.4534878345803,-79.9463656611125,3.41000008583069,0.0349273681640625,-0.992416381835938,0.0796966552734375,-0.00425226931252952,-0.012738165809958,-0.00747416159930738
1493003188.1,40.4534878345803,-79.9463656611125,3.41000008583069,0.0476226806640625,-0.986862182617188,0.11407470703125,-0.0106806075517628,-0.00631302336403283,-0.00115927402251149
1493003188.3,40.4535001137467,-79.946371323441,0.709999978542328,0.0442962646484375,-0.96356201171875,0.248077392578125,-0.00433749046741206,-0.00848136912357535,0.00104369283120205
1493003188.5,40.4535001137467,-79.946371323441,0.709999978542328,0.0395355224609375,-0.947219848632812,0.1785888671875,-0.0181190827924631,-0.0062648201483024,-0.00230177013015549
1493003188.7,40.4535001137467,-79.946371323441,0.709999978542328,0.0453033447265625,-0.957809448242188,0.206375122070312,-0.0149621716362832,-0.00734872671196465,-0.000134223318939994
1493003188.9,40.4535001137467,-79.946371323441,0.709999978542328,0.043731689453125,-0.970840454101562,0.20465087890625,-0.0138441766106679,-0.00416518394488393,-0.00226342061045834
1493003189.1,40.4535001137467,-79.946371323441,0.709999978542328,0.0420684814453125,-0.9649658203125,0.199371337890625,-0.0138974398324695,-0.00735565093079886,-0.000123304358470669
1493003189.3,40.4534987960415,-79.9463707158037,0.0,0.0458221435546875,-0.958908081054688,0.2066650390625,-0.0149461926697427,-0.00522139363320935,-0.000139549641120152
1493003189.5,40.4534987960415,-79.9463707158037,0.0,0.041717529296875,-0.965560913085938,0.202682495117188,-0.0138894503491993,-0.00629198439142121,-0.000125967519560748
1493003189.7,40.4534987960415,-79.9463707158037,0.0,0.0456695556640625,-0.964492797851562,0.203750610351562,-0.0138961082519245,-0.00522805153593455,0.000937432703707892
1493003189.9,40.4534987960415,-79.9463707158037,0.0,0.041015625,-0.962173461914062,0.2061767578125,-0.0149621716362832,-0.00734872671196465,-0.000134223318939994
1493003190.1,40.4534987960415,-79.9463707158037,0.0,0.0452728271484375,-0.964645385742188,0.200103759765625,-0.0149382031864725,-0.00415772709383171,-0.000142212802210231
1493003190.3,40.4534988396522,-79.946370735914,0.0,0.0420684814453125,-0.962554931640625,0.203598022460938,-0.0138748029632038,-0.00629225070753022,-0.00119203090391947
1493003190.5,40.4534988396522,-79.946370735914,0.0,0.0462799072265625,-0.962387084960938,0.2069091796875,-0.0138894503491993,-0.00629198439142121,-0.000125967519560748
1493003190.7,40.4534988396522,-79.946370735914,0.0,0.0562744140625,-0.946197509765625,0.273361206054688,-0.013814881838677,-0.00416571657710194,-0.00439554737917578
1493003190.9,40.4534988396522,-79.946370735914,0.0,0.0523529052734375,-0.938735961914062,0.285049438476562,-0.0107711550288255,-0.0105666242571074,0.0031156321592837
1493003191.1,40.4534988396522,-79.946370735914,0.0,0.04412841796875,-0.92626953125,0.328826904296875,-0.00974503906081795,-0.0137642817779655,0.00420060398738198
1493003191.3,40.4534986965944,-79.9463706699454,0.0,0.0406036376953125,-0.918472290039062,0.355072021484375,-0.00545415391248228,-0.00953731249579177,0.00423362718489897
1493003191.5,40.4534986965944,-79.9463706699454,0.0,0.0393829345703125,-0.93865966796875,0.340805053710938,-0.0054008906906807,-0.018048775339685,-0.00427357460125015
1493003191.7,40.4534986965944,-79.9463706699454,0.0,0.0580291748046875,-0.9144287109375,0.371994018554688,-0.0151539192347689,-0.0328767236570282,-7.03074527780919e-05
1493003191.9,40.4534986965944,-79.9463706699454,0.0,0.0289306640625,-0.917755126953125,0.375686645507812,-0.00904649190689016,-0.0371684077536909,0.0181289364884964
1493003192.1,40.4534986965944,-79.9463706699454,0.0,0.062164306640625,-0.912246704101562,0.365325927734375,0.00291456349698272,-0.0489510313645285,-0.0062411180146007
1493003192.3,40.4535034476047,-79.9463728607929,1.14999997615814,0.092803955078125,-0.940185546875,0.329635620117188,-0.00899456026563362,-0.0244036103328321,0.0212951687084916
1493003192.5,40.4535034476047,-79.9463728607929,1.14999997615814,0.085693359375,-0.9208984375,0.327041625976562,-0.00685577559419098,0.00217766682335779,0.0351092515988416
1493003192.7,40.4535034476047,-79.9463728607929,1.14999997615814,0.0816802978515625,-0.960403442382812,0.296035766601562,-0.018989403836701,0.023525299805324,-0.000255130832429591
1493003192.9,40.4535034476047,-79.9463728607929,1.14999997615814,0.14117431640625,-0.9229736328125,0.244735717773438,-0.0493220097043765,0.0630772367346358,-0.0187933951804712
1493003193.1,40.4535034476047,-79.9463728607929,1.14999997615814,0.13043212890625,-0.928695678710938,0.2518310546875,0.00881266636318121,0.136094722237992,-0.0247839097364954
1493003193.3,40.453522285266,-79.9463815474596,2.42000007629395,0.09307861328125,-1.00408935546875,0.236770629882812,0.0576638291868317,0.132587072766249,-0.0168112043811252
1493003193.5,40.453522285266,-79.9463815474596,2.42000007629395,0.0893096923828125,-0.893905639648438,0.248199462890625,0.0463192955753122,0.111380321005948,-0.0552563315614001
1493003193.7,40.453522285266,-79.9463815474596,2.42000007629395,0.191314697265625,-0.924041748046875,0.207305908203125,-0.00656575735148135,0.158527859680275,-0.0559194586728298
1493003193.9,40.453522285266,-79.9463815474596,2.42000007629395,0.17578125,-0.95928955078125,0.285171508789062,0.051824582180724,0.2421788147841,-0.0747293654520595
1493003194.1,40.453522285266,-79.9463815474596,2.42000007629395,0.2958984375,-1.14117431640625,0.45892333984375,-0.0399825700775776,0.252365405953653,0.0245285125879568
1493003194.3,40.4535458593732,-79.9463924182578,2.74000000953674,0.143218994140625,-0.967391967773438,0.226425170898438,-0.0257564961665923,0.337348474234735,-0.112020544932003
1493003194.5,40.4535458593732,-79.9463924182578,2.74000000953674,0.21051025390625,-0.91510009765625,0.271133422851562,0.016468721864941,0.242411308747264,-0.0590987403821664
1493003194.7,40.4535458593732,-79.9463924182578,2.74000000953674,0.164932250976562,-0.9609375,0.291778564453125,0.0176639485621686,0.240274388288584,-0.0697431289431041
1493003194.9,40.4535458593732,-79.9463924182578,2.74000000953674,0.121963500976562,-0.977874755859375,0.305404663085938,0.0452636185192047,0.321996948447083,-0.0963268029442751
1493003195.1,40.4535458593732,-79.9463924182578,2.74000000953674,0.147369384765625,-0.914932250976562,0.322463989257812,-0.0749546688802802,0.399359647585012,-0.140405847410613
1493003195.3,40.4535680856159,-79.9464026675112,2.95000004768372,0.217987060546875,-0.949661254882812,0.222747802734375,-0.0390019941642104,0.349142016806042,-0.0716704586239944
1493003195.5,40.4535680856159,-79.9464026675112,2.95000004768372,0.14111328125,-0.9503173828125,0.271835327148438,-0.0333520979116073,0.308676615622833,-0.11735538922765
1493003195.7,40.4535680856159,-79.9464026675112,2.95000004768372,0.237884521484375,-0.911865234375,0.30999755859375,-0.0413759359599071,0.360849805590249,-0.125035679495329
1493003195.9,40.4535680856159,-79.9464026675112,2.95000004768372,0.293426513671875,-0.920272827148438,0.268814086914062,-0.10400283215421,0.462304525213471,-0.162189972495243
1493003196.1,40.4535680856159,-79.9464026675112,2.95000004768372,0.183013916015625,-0.916351318359375,0.397705078125,-0.058314173125029,0.308856911628632,-0.00565895100030937
1493003196.3,40.4535723893749,-79.9464070836292,3.72000002861023,0.0611114501953125,-0.887969970703125,0.533477783203125,-0.0688512362940366,0.376983235473949,-0.131755900190035
1493003196.5,40.4535723893749,-79.9464070836292,3.72000002861023,0.331832885742188,-0.95318603515625,0.225173950195312,-0.0936319502372239,0.434568767724732,-0.23451476979907
1493003196.7,40.4535723893749,-79.9464070836292,3.72000002861023,0.24029541015625,-0.949798583984375,0.33856201171875,0.00932639013745749,0.415843016835949,-0.0649505042453975
1493003196.9,40.4535723893749,-79.9464070836292,3.72000002861023,0.097808837890625,-0.885208129882812,0.354629516601562,-0.0866518050201262,0.600458669922422,-0.26472540288882
1493003197.1,40.4535723893749,-79.9464070836292,3.72000002861023,0.132339477539062,-0.93621826171875,0.353775024414062,-0.0552185146739209,0.245009222390636,-0.0331840524468233
1493003197.3,40.4535518193176,-79.9464655812363,4.46999979019165,0.0020904541015625,-0.947906494140625,0.4161376953125,0.0388696350580335,0.124206903764097,0.0288652041070418
1493003197.5,40.4535518193176,-79.9464655812363,4.46999979019165,0.113739013671875,-0.9337158203125,0.334396362304688,-0.00352043264497575,0.0521534825753487,0.0520738540587554
1493003197.7,40.4535518193176,-79.9464655812363,4.46999979019165,0.154983520507812,-0.916412353515625,0.39990234375,0.0230523223957259,0.187060434967166,-0.0258358583670767
1493003197.9,40.4535518193176,-79.9464655812363,4.46999979019165,0.145584106445312,-1.03938293457031,0.376312255859375,-0.0219535021299592,0.224577450507548,-0.0626447393736069
1493003198.1,40.4535275387643,-79.9465383105423,5.92000007629395,0.137832641601562,-0.926040649414062,0.310409545898438,-0.0570861895463935,0.108862834827496,-0.0488450375531433
1493003198.3,40.4535275387643,-79.9465383105423,5.92000007629395,-0.0770416259765625,-0.884750366210938,0.255752563476562,-0.0532200785919255,0.0779917377874065,-0.0369974328117078
1493003198.5,40.4535275387643,-79.9465383105423,5.92000007629395,0.028594970703125,-0.938034057617188,0.36029052734375,0.0976338824072859,-0.0623198337206172,0.0683319198814711
1493003198.7,40.4535275387643,-79.9465383105423,5.92000007629395,0.142303466796875,-1.01405334472656,0.415557861328125,-0.104458499016723,0.165546620733179,-0.0580060453869069
1493003198.9,40.4535275387643,-79.9465383105423,5.92000007629395,0.141952514648438,-0.965011596679688,0.537826538085938,-0.0976802214102533,0.037877873868088,0.0767357910173252
1493003199.1,40.4535275387643,-79.9465383105423,5.92000007629395,-0.381591796875,-0.9681396484375,0.26153564453125,-0.036667733468756,0.357610070124167,-0.236931588488317
1493003199.3,40.4535047508746,-79.9466065687648,7.55999994277954,-0.170425415039062,-0.615310668945312,0.362564086914062,0.156675631142125,-0.0935475280306684,0.0946061345639749
1493003199.5,40.4535047508746,-79.9466065687648,7.55999994277954,-0.084869384765625,-0.884841918945312,0.27978515625,0.0274681097991863,-0.149097339944195,0.0123943517132288
1493003199.7,40.4535047508746,-79.9466065687648,7.55999994277954,-0.145645141601562,-0.858856201171875,0.383804321289062,0.135498706786033,-0.0881045593947644,0.0112105766086886
1493003199.9,40.4535047508746,-79.9466065687648,7.55999994277954,-0.067657470703125,-0.916152954101562,0.339019775390625,-0.0278835629292386,0.0118731710879003,-0.0568254660756748
1493003200.1,40.4535047508746,-79.9466065687648,7.55999994277954,0.100296020507812,-0.971633911132812,0.282379150390625,-0.0172940354867566,-0.00307595105904152,0.0168903002655005
1493003200.3,40.4534754539012,-79.9466943241183,8.64999961853027,0.065582275390625,-0.96649169921875,0.311508178710938,0.0657888673565544,-0.0270329492770673,-0.0749578646735883
1493003200.5,40.4534754539012,-79.9466943241183,8.64999961853027,0.1307373046875,-0.874465942382812,0.177719116210938,-0.15675206386541,0.0839870460333929,-0.0167486200955083
1493003200.7,40.4534754539012,-79.9466943241183,8.64999961853027,-0.0108642578125,-0.970108032226562,0.291244506835938,-0.105230016784519,0.0400432901504314,0.00734899302807366
1493003200.9,40.4534754539012,-79.9466943241183,8.64999961853027,0.0867462158203125,-1.04324340820312,0.29180908203125,0.0997902439419231,0.0993279191766853,-0.0781344832218348
1493003201.1,40.4534754539012,-79.9466943241183,8.64999961853027,0.0883636474609375,-0.892730712890625,0.2259521484375,-0.0768878575155687,0.0398512762358367,-0.0403399662958663
1493003201.3,40.4534451934927,-79.9467870177971,8.67000007629395,0.128890991210938,-0.910736083984375,0.174728393554688,-0.0527763959543183,-0.0294364521608638,0.027257187440852
1493003201.5,40.4534451934927,-79.9467870177971,8.67000007629395,-0.140472412109375,-0.928726196289062,0.17376708984375,-0.213087241984401,-0.0922031643123964,0.112141186129384
1493003201.7,40.4534451934927,-79.9467870177971,8.67000007629395,-0.202301025390625,-0.927825927734375,0.2313232421875,0.219051657561743,0.159201905752174,0.0327520877180125
1493003201.9,40.4534451934927,-79.9467870177971,8.67000007629395,0.523239135742188,-0.980072021484375,0.340850830078125,-0.0763403115954484,0.167461433556946,-0.24324434553624
1493003202.1,40.4534451934927,-79.9467870177971,8.67000007629395,0.204452514648438,-0.916549682617188,0.18353271484375,0.108566158682061,-0.0166503494512844,0.0725908470967258
1493003202.3,40.4534152771352,-79.9468811074103,8.61999988555908,-0.277938842773438,-0.730392456054688,0.359786987304688,0.0715974880101263,-0.127049828227756,-0.00960122836195367
1493003202.5,40.4534152771352,-79.9468811074103,8.61999988555908,0.0772857666015625,-0.98333740234375,0.129440307617188,-0.124410635587488,0.0667510674584001,-0.0547567225409012
1493003202.7,40.4534152771352,-79.9468811074103,8.61999988555908,0.0522308349609375,-1.1461181640625,0.3272705078125,-0.167434002997718,0.378670614340623,-0.241523410839831
1493003202.9,40.4534152771352,-79.9468811074103,8.61999988555908,0.283035278320312,-0.955795288085938,0.068084716796875,-0.00871759151226538,-0.0148343399039594,0.00634631287765882
1493003203.1,40.4534152771352,-79.9468811074103,8.61999988555908,0.177764892578125,-1.00381469726562,0.0315399169921875,-0.03996312900162,0.00982839600293743,-0.0313547270940479
1493003203.3,40.4533867030518,-79.9469709754514,7.92999982833862,0.1356201171875,-0.964767456054688,0.0288543701171875,0.119064339699154,-0.0560779167576895,0.0621379398181648
1493003203.5,40.4533867030518,-79.9469709754514,7.92999982833862,0.01715087890625,-0.96356201171875,0.199981689453125,-0.0373993038202008,-0.0305933293383943,0.0700661703833307
1493003203.7,40.4533867030518,-79.9469709754514,7.92999982833862,-0.01641845703125,-0.953338623046875,0.20465087890625,0.00405599434019068,-0.0361811739375985,0.0726374524158022
1493003203.9,40.4533867030518,-79.9469709754514,7.92999982833862,0.0168914794921875,-1.07061767578125,0.00823974609375,0.0259162858319971,0.0455586967679855,-0.0787520702786241
1493003204.1,40.4533867030518,-79.9469709754514,7.92999982833862,0.16448974609375,-0.978912353515625,0.0045166015625,0.034281008499827,0.0582718288636968,-0.0605735989938523
1493003204.3,40.453361918421,-79.9470489253262,6.46999979019165,0.0689849853515625,-0.993759155273438,0.0291748046875,-0.121402861452352,0.0263088357766748,-0.06315127261294
1493003204.5,40.453361918421,-79.9470489253262,6.46999979019165,0.0764312744140625,-0.912567138671875,0.053741455078125,0.0126249814636296,-0.0319946847039939,-0.00618545794781804
1493003204.7,40.453361918421,-79.9470489253262,6.46999979019165,0.0107421875,-1.03793334960938,-0.004425048828125,-0.0165337029955389,0.0181864607680421,-0.0268715617150085
1493003204.9,40.453361918421,-79.9470489253262,6.46999979019165,0.0693359375,-1.07221984863281,-0.012786865234375,-0.0418808713025861,0.00877458315959307,-0.0473648526192773
1493003205.1,40.453361918421,-79.9470489253262,6.46999979019165,0.072723388671875,-0.996246337890625,0.036102294921875,-0.0097703390911737,0.0277248385282699,0.0286161985451194
1493003205.3,40.4533436401687,-79.9471064120603,4.55999994277954,0.0518341064453125,-1.00947570800781,0.104476928710938,-0.0200453472089174,-0.0487947038085408,0.037238182574251
1493003205.5,40.4533436401687,-79.9471064120603,4.55999994277954,0.0863494873046875,-1.01113891601562,0.109710693359375,-0.0259378574368267,0.0342027115637786,-0.0312740333130185
1493003205.7,40.4533436401687,-79.9471064120603,4.55999994277954,0.004669189453125,-0.956619262695312,0.211929321289062,-0.0443610732257769,-0.0411919115285826,0.0284398972809562
1493003205.9,40.4533436401687,-79.9471064120603,4.55999994277954,0.021697998046875,-0.952545166015625,0.2255859375,-0.0259503742939501,-0.0136561574377083,0.0210938337300816
1493003206.1,40.4533436401687,-79.9471064120603,4.55999994277954,-0.0028839111328125,-0.943939208984375,0.27166748046875,-0.0148348725361774,-0.0658482558488632,0.0362693245696801
1493003206.3,40.4533309823236,-79.947146222112,3.21000003814697,0.0654144287109375,-0.916641235351562,0.303634643554688,-0.0151192981405979,-0.0126649288799808,0.00840759956138015
1493003206.5,40.4533309823236,-79.947146222112,3.21000003814697,0.07000732421875,-0.939117431640625,0.31640625,-0.00837803847328028,0.0245205231046866,0.00304958576424974
1493003206.7,40.4533309823236,-79.947146222112,3.21000003814697,0.0213775634765625,-0.927703857421875,0.349899291992188,-0.0212480307571972,-0.00730904561172247,-0.00766218077226698
1493003206.9,40.4533309823236,-79.947146222112,3.21000003814697,0.0902862548828125,-0.927200317382812,0.41522216796875,-0.00108337393144423,-0.0063756076496497,-0.00212706676264629
1493003207.1,40.4533309823236,-79.947146222112,3.21000003814697,0.0803680419921875,-1.0059814453125,0.357009887695312,0.0591589278228022,-0.0312298248389232,0.017745707607634
1493003207.3,40.4533184558144,-79.9471856191009,3.92000007629395,0.106399536132812,-0.90911865234375,0.425186157226562,0.0139027661546497,0.0041641186804479,-0.00200083292697653
1493003207.5,40.4533184558144,-79.9471856191009,3.92000007629395,0.097412109375,-0.939178466796875,0.415298461914062,-0.0622732284015408,0.0184834032295859,-0.0305392671682656
1493003207.7,40.4533184558144,-79.9471856191009,3.92000007629395,0.188186645507812,-0.918869018554688,0.542922973632812,0.036668266100974,0.032734244538709,-0.0157022641032162
1493003207.9,40.4533184558144,-79.9471856191009,3.92000007629395,0.0371551513671875,-0.977157592773438,0.454238891601562,-0.0190168343959288,0.0543639062801145,-0.0589767676042408
1493003208.1,40.4533184558144,-79.9471856191009,3.92000007629395,-0.0156707763671875,-0.956069946289062,0.407928466796875,0.0229122401223877,-0.0735336061226139,0.0750593311111203
1493003208.3,40.4533014807858,-79.9472390070802,5.46000003814697,0.0070648193359375,-0.885910034179688,0.417190551757812,0.0136729353525758,0.0158577927108768,-0.0564102792617314
1493003208.5,40.4533014807858,-79.9472390070802,5.46000003814697,0.0824737548828125,-0.939788818359375,0.41534423828125,-0.0869077348008828,-0.0313414112885975,0.0301112971810899
1493003208.7,40.4533014807858,-79.9472390070802,5.46000003814697,-0.0111541748046875,-0.95440673828125,0.426132202148438,-0.0299291369625285,0.0640122725933626,-0.0345904678184942
1493003208.9,40.4533014807858,-79.9472390070802,5.46000003814697,0.170150756835938,-0.86297607421875,0.388275146484375,0.0700786872404541,-0.0919288587201182,0.0425370741951816
1493003209.1,40.4532785038588,-79.9473112715653,7.11999988555908,0.103988647460938,-0.8955078125,0.37158203125,-0.0378829338741591,0.013006878763947,-0.0260105617345859
1493003209.3,40.4532785038588,-79.9473112715653,7.11999988555908,0.04669189453125,-1.0589599609375,0.520050048828125,-0.173912142349335,-0.0839697354863074,-0.0218219419721093
1493003209.5,40.4532785038588,-79.9473112715653,7.11999988555908,0.0496368408203125,-0.97772216796875,0.400970458984375,0.0434835616465958,-0.0151741592590535,0.00474921517193831
1493003209.7,40.4532785038588,-79.9473112715653,7.11999988555908,0.177520751953125,-0.86468505859375,0.339187622070312,-0.0916516236506409,0.056966613613449,-0.0416015057042368
1493003209.9,40.4532785038588,-79.9473112715653,7.11999988555908,0.012115478515625,-0.888885498046875,0.381683349609375,0.0425583794839023,-0.156619438443124,0.150109873790643
1493003210.1,40.4532785038588,-79.9473112715653,7.11999988555908,0.13946533203125,-1.01670837402344,0.32025146484375,-0.0575359974545079,-0.0921645484765902,0.0295027648720068
1493003210.3,40.4532513357588,-79.9473967176631,8.47999954223633,0.172286987304688,-0.91900634765625,0.34478759765625,-0.0118998026988011,0.00433482730632198,0.0158601895558579
1493003210.5,40.4532513357588,-79.9473967176631,8.47999954223633,0.0055084228515625,-0.967422485351562,0.335189819335938,0.00433695783519404,-0.0202291053241329,0.0608708077715051
1493003210.7,40.4532513357588,-79.9473967176631,8.47999954223633,-0.02734375,-0.91326904296875,0.40185546875,-0.0262081682874698,0.0118675784496111,-0.0237556632396158
1493003210.9,40.4532513357588,-79.9473967176631,8.47999954223633,0.22027587890625,-1.02357482910156,0.323928833007812,-0.108482002791615,-0.0684312557901311,0.0299861286098562
1493003211.1,40.4532513357588,-79.9473967176631,8.47999954223633,-0.022857666015625,-0.990707397460938,0.41888427734375,0.0147810766821578,-0.0245623347338008,-0.00405013538579251
1493003211.3,40.4532217692141,-79.9474970129028,9.64999961853027,0.0747833251953125,-0.970809936523438,0.323883056640625,-0.114690363924807,0.162416873820117,-0.0900891470390915
1493003211.5,40.4532217692141,-79.9474970129028,9.64999961853027,0.1104736328125,-0.906967163085938,0.189010620117188,-0.0611951807922768,-0.00705524635983792,-0.0453893197226565
1493003211.7,40.4532217692141,-79.9474970129028,9.64999961853027,-0.176849365234375,-0.550872802734375,0.359298706054688,-0.0288966294079048,0.103342101887762,-0.165825720015419
1493003211.9,40.4532217692141,-79.9474970129028,9.64999961853027,0.344268798828125,-1.08250427246094,0.27325439453125,-0.168721641384771,0.520118823001892,-0.458343073091978
1493003212.1,40.4532217692141,-79.9474970129028,9.64999961853027,0.448440551757812,-0.735992431640625,0.30706787109375,-0.0528879824039926,0.215204987683232,-0.0640034841617653
1493003212.3,40.4531878583387,-79.9476113936297,10.7299995422363,0.312957763671875,-1.00834655761719,0.379730224609375,-0.0999516315039819,-0.0323297103691259,-0.0286614722836508
1493003212.5,40.4531878583387,-79.9476113936297,10.7299995422363,-0.3741455078125,-1.10140991210938,0.485336303710938,0.17178480927058,-0.149980444161665,0.359327542711159
1493003212.7,40.4531878583387,-79.9476113936297,10.7299995422363,0.561111450195312,-0.816543579101562,0.571823120117188,-0.376369909474903,0.560867850841195,-0.204682838216329
1493003212.9,40.4531878583387,-79.9476113936297,10.7299995422363,0.392425537109375,-0.769195556640625,0.31304931640625,-0.208362527894492,0.32043260762277,-0.239659730708994
1493003213.1,40.4531878583387,-79.9476113936297,10.7299995422363,0.310928344726562,-0.879013061523438,0.208999633789062,-0.0326301149400869,-0.160390474546676,0.11736337871092
1493003213.3,40.4531513552021,-79.9477343201,11.6700000762939,0.0574951171875,-0.81170654296875,0.357467651367188,-0.180907201268538,0.0394725747288274,0.0119067269176353
1493003213.5,40.4531513552021,-79.9477343201,11.6700000762939,-0.0873565673828125,-0.855239868164062,0.432632446289062,0.00295291301667986,0.103148490076513,-0.081268224876531
1493003213.7,40.4531513552021,-79.9477343201,11.6700000762939,-0.033203125,-0.954315185546875,0.366790771484375,0.026383404287197,-0.0990908978396683,0.0410419755592111
1493003213.9,40.4531513552021,-79.9477343201,11.6700000762939,0.082000732421875,-1.03395080566406,0.189956665039062,0.0401074723327023,0.0263261463237603,-0.0369747959424421
1493003214.1,40.4531513552021,-79.9477343201,11.6700000762939,0.0415496826171875,-0.995025634765625,0.215606689453125,-0.0412920463855696,-0.124187729004248,-0.00756577434080611
1493003214.3,40.4531126895064,-79.9478664755096,12.2299995422363,0.0555877685546875,-0.93243408203125,0.354171752929688,-0.0768910533088768,-0.051624046150641,-0.0123823674883234
1493003214.5,40.4531126895064,-79.9478664755096,12.2299995422363,0.0826568603515625,-1.07911682128906,0.176025390625,-0.0744481356409471,0.0908947532688404,-0.0351156431854578
1493003214.7,40.4531126895064,-79.9478664755096,12.2299995422363,0.122528076171875,-0.83795166015625,0.215682983398438,0.0161893562665917,-0.0256393170786289,-0.0296220744888424
1493003214.9,40.4531126895064,-79.9478664755096,12.2299995422363,0.0513458251953125,-0.95343017578125,0.174896240234375,-0.0584441353862249,-0.174061545686489,0.0510290959631173
1493003215.1,40.4531126895064,-79.9478664755096,12.2299995422363,0.0506591796875,-0.822845458984375,0.357101440429688,0.031995483652321,-0.0991183283988961,0.0976088486930392
1493003215.3,40.4530725020717,-79.9480051098266,12.8000001907349,-0.014862060546875,-0.921539306640625,0.263015747070312,0.130434705973247,-0.0944575301751484,-0.0112153702986507
1493003215.5,40.4530725020717,-79.9480051098266,12.8000001907349,-0.021514892578125,-0.895950317382812,0.303131103515625,-0.15388517095194,-0.05004319372757,0.0891818080557015
1493003215.7,40.4530725020717,-79.9480051098266,12.8000001907349,0.198150634765625,-1.06735229492188,0.250473022460938,-0.0724659448416011,0.129168372874914,-0.0810413235516563
1493003215.9,40.4530725020717,-79.9480051098266,12.8000001907349,-0.255752563476562,-1.066162109375,0.289352416992188,0.156718774351784,-0.276474204353813,0.301924170678937
1493003216.1,40.4530725020717,-79.9480051098266,12.8000001907349,0.038970947265625,-0.935562133789062,0.15802001953125,-0.173236498380782,-0.344566173421068,0.0972072440006553
1493003216.3,40.4530297181237,-79.9481527013175,13.3299999237061,-0.139892578125,-0.755447387695312,0.089447021484375,0.141283358989794,-0.156206648474162,0.0956764590060777
1493003216.5,40.4530297181237,-79.9481527013175,13.3299999237061,-0.324005126953125,-0.936614990234375,0.0870819091796875,-0.0999718715282665,-0.591794874264176,0.288381463903666
1493003216.7,40.4530297181237,-79.9481527013175,13.3299999237061,-0.149093627929688,-0.452667236328125,0.55975341796875,-0.366436851241126,-0.325206856508955,0.217793846578898
1493003216.9,40.4530297181237,-79.9481527013175,13.3299999237061,-0.115264892578125,-0.9791259765625,-0.21124267578125,-0.347353970450163,0.0352027285531034,-0.199830558710205
1493003217.1,40.4530297181237,-79.9481527013175,13.3299999237061,0.0486602783203125,-1.09913635253906,0.338821411132812,0.12275920939553,-0.0167467558827453,0.0471472723582178
1493003217.3,40.4529869942003,-79.9483003912424,13.6300001144409,0.114837646484375,-0.66754150390625,0.306915283203125,-0.193673330269941,0.00976874119451965,-0.00520674624721392
1493003217.5,40.4529869942003,-79.9483003912424,13.6300001144409,-0.14727783203125,-0.85009765625,0.150543212890625,0.0991271168304934,-0.245272875338554,0.17010968094492
1493003217.7,40.4529869942003,-79.9483003912424,13.6300001144409,-0.271682739257812,-1.131591796875,0.43994140625,-0.124107301539328,0.453886006691622,-0.408669526123711
1493003217.9,40.4529869942003,-79.9483003912424,13.6300001144409,0.069244384765625,-0.9976806640625,0.26947021484375,0.0973023188515711,-0.124014889849502,0.0588918127654672
1493003218.1,40.4529869942003,-79.9483003912424,13.6300001144409,0.136871337890625,-0.919906616210938,0.260833740234375,-0.0698035826998489,0.000448476327569344,-0.0348346796904545
1493003218.3,40.4529443182267,-79.9484529897188,13.8500003814697,0.0155029296875,-0.738967895507812,0.304290771484375,-0.0386379400431966,-0.0465528548029121,-0.00347409364200837
1493003218.5,40.4529443182267,-79.9484529897188,13.8500003814697,0.0166015625,-0.922958374023438,0.2423095703125,-0.030920099204147,-0.175290061897342,0.139809831958653
1493003218.7,40.4529443182267,-79.9484529897188,13.8500003814697,-0.311874389648438,-0.244583129882812,0.340957641601562,-0.312680412005658,-0.274511987262643,0.130783846392156
1493003218.9,40.4529443182267,-79.9484529897188,13.8500003814697,0.237289428710938,-0.9915771484375,0.353195190429688,-0.0689255384884498,0.190842390031187,-0.0726345229386031
1493003219.1,40.4529443182267,-79.9484529897188,13.8500003814697,0.134963989257812,-1.24601745605469,0.248153686523438,0.067587566356794,-0.0568150797474234,0.0104345314670395
1493003219.3,40.4529015856135,-79.9486057907238,13.8000001907349,0.118331909179688,-0.840255737304688,0.26947021484375,0.0263538431990971,0.0498184229315673,-0.0307789516663728
1493003219.5,40.4529015856135,-79.9486057907238,13.8000001907349,0.104354858398438,-0.778915405273438,0.155746459960938,0.204316387250334,-0.147032324834948,0.163469621399026
1493003219.7,40.4529015856135,-79.9486057907238,13.8000001907349,-0.01141357421875,-0.8206787109375,0.199478149414062,-0.0821819554465372,-0.0973214936114196,0.0377934516615325
1493003219.9,40.4529015856135,-79.9486057907238,13.8000001907349,0.009918212890625,-1.13131713867188,0.220321655273438,0.119932530214519,-0.0497108312235281,0.00242241132753608
1493003220.1,40.4529015856135,-79.9486057907238,13.8000001907349,0.236892700195312,-0.956863403320312,0.31488037109375,0.0438622631536051,0.00927419218009194,-0.0870044075484527
1493003220.3,40.4528590262831,-79.9487579721136,13.7299995422363,0.1846923828125,-0.946151733398438,0.139297485351562,0.0119908828080818,0.0754369673536935,-0.0565812542037145
1493003220.5,40.4528590262831,-79.9487579721136,13.7299995422363,0.046783447265625,-1.06230163574219,0.182586669921875,0.0484543518212287,-0.0173299881614726,0.0293285941367156
1493003220.7,40.4528590262831,-79.9487579721136,13.7299995422363,0.0669097900390625,-0.968856811523438,0.236297607421875,-0.0172788554685431,0.0139323272427495,-0.0524573492557268
1493003220.9,40.4528590262831,-79.9487579721136,13.7299995422363,-0.0660400390625,-0.908676147460938,0.224258422851562,0.0089772497185481,0.0435525375188288,-0.00961640838016712
1493003221.1,40.4528590262831,-79.9487579721136,13.7299995422363,-0.133056640625,-0.820755004882812,0.198013305664062,0.0345281498489863,0.0274292276472711,-0.0178429129874219
1493003221.3,40.4528174504109,-79.9489066369056,13.3900003433228,0.0194244384765625,-0.777191162109375,0.065643310546875,-0.053339920840979,-0.0198767691119154,-0.0815270841344867
1493003221.5,40.4528174504109,-79.9489066369056,13.3900003433228,-0.331192016601562,-1.09809875488281,0.227218627929688,0.139942723697048,-0.35296258770587,0.241175602001467
1493003221.7,40.4528174504109,-79.9489066369056,13.3900003433228,0.1883544921875,-0.982223510742188,0.0889892578125,-0.1061075283637,0.228291761279881,-0.213852101849472
1493003221.9,40.4528174504109,-79.9489066369056,13.3900003433228,0.244964599609375,-1.06855773925781,0.0446319580078125,-0.0432100550026446,0.0470711059510415,-0.0847947827920139
1493003222.1,40.4528174504109,-79.9489066369056,13.3900003433228,0.0338134765625,-0.90216064453125,0.108810424804688,-0.0777272858911617,-0.0303326058676755,0.0600566794262679
1493003222.3,40.4527780595399,-79.9490474886867,12.7299995422363,0.002777099609375,-1.10783386230469,-0.0457000732421875,0.113526828844552,-0.0305203587245261,0.0140356578930446
1493003222.5,40.4527780595399,-79.9490474886867,12.7299995422363,-0.0042724609375,-0.926849365234375,0.0842742919921875,-0.0957576854193251,-0.145095407774133,0.0697641679157157
1493003222.7,40.4527780595399,-79.9490474886867,12.7299995422363,0.082061767578125,-1.00894165039062,0.0819244384765625,-0.178017937801911,-0.0382009153083146,-0.00812130974419664
1493003222.9,40.4527780595399,-79.9490474886867,12.7299995422363,0.063201904296875,-1.03955078125,0.0582733154296875,-0.0547769625651858,0.0684208694618798,-0.0839020911946194
1493003223.1,40.4527780595399,-79.9490474886867,12.7299995422363,0.001434326171875,-1.15286254882812,0.0435791015625,0.0524195323682477,-0.0141733433214017,-0.0250158710674413
1493003223.3,40.4527393917795,-79.9491769759202,11.0900001525879,0.320556640625,-1.33821105957031,0.0511474609375,0.125714252941081,0.341666789942299,-0.205373928519205
1493003223.5,40.4527393917795,-79.9491769759202,11.0900001525879,-0.1864013671875,-0.972579956054688,0.154861450195312,-0.0724457048173165,-0.220739036428417,0.269580079239925
1493003223.7,40.4527393917795,-79.9491769759202,11.0900001525879,0.248397827148438,-0.979537963867188,-0.0819091796875,-0.270671442654639,0.155965898711619,-0.212151673493456
1493003223.9,40.4527393917795,-79.9491769759202,11.0900001525879,0.0601043701171875,-0.963272094726562,0.033477783203125,-0.170017535571204,0.296779209769013,-0.25306688258478
1493003224.1,40.4527393917795,-79.9491769759202,11.0900001525879,0.103424072265625,-0.947280883789062,0.055450439453125,-0.0393870872578359,-0.0337859268531812,-0.0195079213009394
1493003224.3,40.452709979152,-79.9492737074793,9.0,-0.0010833740234375,-0.949462890625,0.0122528076171875,-0.06580884106473,-0.0516887609651299,0.0335784666042641
1493003224.5,40.452709979152,-79.9492737074793,9.0,-0.0001220703125,-0.911911010742188,-0.01690673828125,-0.0284476204481174,-0.0306814799704759,-0.116429408116629
1493003224.7,40.452709979152,-79.9492737074793,9.0,-0.023406982421875,-0.98699951171875,-0.04541015625,0.0315312946743202,-0.0640165336511067,0.0729905875763467
1493003224.9,40.452709979152,-79.9492737074793,9.0,0.016357421875,-0.97882080078125,-0.208847045898438,-0.0401543439678877,0.0598185928248148,-0.0677369696939474
1493003225.1,40.452709979152,-79.9492737074793,9.0,0.01971435546875,-0.977371215820312,0.055816650390625,0.0312487332826628,0.0317067969901564,-0.00935781543832043
1493003225.3,40.4526848320721,-79.9493564106052,6.8899998664856,-0.03253173828125,-0.993179321289062,-0.0175323486328125,0.0376954473334176,-0.157657006003819,0.115943913849908
1493003225.5,40.4526848320721,-79.9493564106052,6.8899998664856,0.0084381103515625,-1.10025024414062,0.062652587890625,0.00743181733797512,0.0127176594695644,0.00857298186507408
1493003225.7,40.4526848320721,-79.9493564106052,6.8899998664856,0.064788818359375,-0.996490478515625,0.125534057617188,-0.0331864492918044,0.0289408378820001,0.0283733182537042
1493003225.9,40.4526848320721,-79.9493564106052,6.8899998664856,0.1068115234375,-0.985488891601562,-0.0025634765625,-0.014889467338524,-0.0477624625700261,0.0500828748278121
1493003226.1,40.4526848320721,-79.9493564106052,6.8899998664856,0.0564422607421875,-1.01448059082031,0.0368804931640625,0.0343411959404628,-0.053404635655468,0.0292771951276771
1493003226.3,40.4526703783716,-79.9494039455961,4.71999979019165,0.06787109375,-1.07539367675781,0.057708740234375,0.0467270255382033,0.051824315864615,0.0376621578197916
1493003226.5,40.4526703783716,-79.9494039455961,4.71999979019165,0.02734375,-0.897628784179688,0.0137481689453125,-0.0340700861414927,0.0140511042273671,0.00707841586132161
1493003226.7,40.4526703783716,-79.9494039455961,4.71999979019165,0.0208587646484375,-1.02980041503906,0.0215911865234375,-0.0501888686391973,-0.0230757582133186,-0.00258672836679396
1493003226.9,40.4526703783716,-79.9494039455961,4.71999979019165,0.104232788085938,-1.02639770507812,0.0072021484375,-0.0357894229412479,0.0257594256437914,-0.0164261112874997
1493003227.1,40.4526703783716,-79.9494039455961,4.71999979019165,0.0114288330078125,-1.01411437988281,0.0089874267578125,-0.0334873864949834,-0.0189252216544301,0.0242289069653229
1493003227.3,40.4526602872439,-79.94943713306,2.25999999046326,0.037445068359375,-1.02137756347656,0.029052734375,-0.0466071832891497,0.0226403313750906,-0.00586667756533555
1493003227.5,40.4526602872439,-79.94943713306,2.25999999046326,0.0776214599609375,-1.01185607910156,0.0323486328125,-0.0388278234289193,0.0289688010734459,-0.0260614281114064
1493003227.7,40.4526602872439,-79.94943713306,2.25999999046326,0.03729248046875,-0.99749755859375,0.0366058349609375,-0.0203817044545944,-0.00837617426051722,0.00621022534595578
1493003227.9,40.4526602872439,-79.94943713306,2.25999999046326,0.0484771728515625,-0.986618041992188,0.119735717773438,-0.0147650977156173,0.00328580815293976,-0.00868936200471054
1493003228.1,40.4526602872439,-79.94943713306,2.25999999046326,0.041656494140625,-0.976104736328125,0.127655029296875,-0.0119184448264316,-0.0137496343919701,0.00737695621951949
1493003228.3,40.4526564593699,-79.9494497220823,0.439999997615814,0.039886474609375,-0.983169555664062,0.1253662109375,-0.0127794448068542,-0.00417210816371813,-0.00225250164998902
1493003228.5,40.4526564593699,-79.9494497220823,0.439999997615814,0.0548858642578125,-0.952072143554688,0.26025390625,-0.00111133712289007,-0.00424747562256738,0.00106579706824971
1493003228.7,40.4526564593699,-79.9494497220823,0.439999997615814,0.0640716552734375,-0.954498291015625,0.209060668945312,-0.0230778887421906,0.0150394033078955,-0.0173345155353258
1493003228.9,40.4526564593699,-79.9494497220823,0.439999997615814,0.06121826171875,-0.943069458007812,0.223281860351562,-0.0209870409703694,0.0118348215682031,-0.0162386247467582
1493003229.1,40.4526564593699,-79.9494497220823,0.439999997615814,0.0565338134765625,-0.956680297851562,0.232696533203125,-0.0138108870970419,0.00221708160749097,-0.0012133361926401
1493003229.3,40.4526561895214,-79.9494506095539,0.159999996423721,0.068084716796875,-0.951629638671875,0.267135620117188,-0.00842331221181162,-0.00101013700146706,-0.00754713221317555
1493003229.5,40.4526561895214,-79.9494506095539,0.159999996423721,0.05535888671875,-0.94354248046875,0.281158447265625,-0.0170610088913746,-0.00520781151164995,-0.00122745094641752
1493003229.7,40.4526561895214,-79.9494506095539,0.159999996423721,0.0546417236328125,-0.944839477539062,0.265914916992188,-0.010620686427236,-0.00418648923360456,-0.00436279049776781
1493003229.9,40.4526561895214,-79.9494506095539,0.159999996423721,0.0574493408203125,-0.955123901367188,0.256927490234375,-0.0138428450301229,-0.00203758455001963,-0.00120268354827978
1493003230.1,40.4526561895214,-79.9494506095539,0.159999996423721,0.05523681640625,-0.954742431640625,0.238723754882812,-0.0181643565309945,-0.00839162059483968,-0.000164317039257889
1493003230.3,40.4526552603043,-79.9494536655411,0.300000011920929,0.05059814453125,-0.953628540039062,0.243637084960938,-0.0108377340560775,-0.011629225532049,0.00738254885780866
1493003230.5,40.4526552603043,-79.9494536655411,0.300000011920929,0.0424346923828125,-0.955841064453125,0.227508544921875,-0.0138907819297443,-0.00841958378628551,-0.00118670458173931
1493003230.7,40.4526552603043,-79.9494536655411,0.300000011920929,0.0537872314453125,-0.953201293945312,0.216690063476562,-0.0191531882437409,-0.00413082916682191,-0.00338407879716369
1493003230.9,40.4526552603043,-79.9494536655411,0.300000011920929,0.0528411865234375,-0.956344604492188,0.212615966796875,-0.0170610088913746,-0.00520781151164995,-0.00122745094641752
1493003231.1,40.4526552603043,-79.9494536655411,0.300000011920929,0.0481414794921875,-0.96490478515625,0.20465087890625,-0.0117919446746529,-0.0105604989866002,-9.34769542617813e-05
1493003231.3,40.4526540785483,-79.9494575520724,0.400000005960464,0.0426177978515625,-0.968963623046875,0.201812744140625,-0.0160721771786282,-0.00946860293966772,0.00199231081148828
1493003231.5,40.4526540785483,-79.9494575520724,0.400000005960464,0.0459747314453125,-0.971725463867188,0.196441650390625,-0.0117506656777566,-0.00311456689484767,0.000953944302466383
1493003231.7,40.4526540785483,-79.9494575520724,0.400000005960464,0.0587005615234375,-0.973358154296875,0.191940307617188,-0.0180125563488599,0.000116113823527455,-0.00658200263413084
1493003231.9,40.4526540785483,-79.9494575520724,0.400000005960464,0.0499267578125,-0.971420288085938,0.208084106445312,-0.0106047074606955,-0.00205915615484927,-0.00436811681994797
1493003232.1,40.4526540785483,-79.9494575520724,0.400000005960464,0.06353759765625,-0.963531494140625,0.194366455078125,-0.0160122560541014,-0.00734206880923945,-0.00121120566376804
1493003232.3,40.4526530747062,-79.9494608534849,0.200000002980232,0.04754638671875,-0.953628540039062,0.196670532226562,-0.019257051526254,-0.00625656434892315,0.00301762783116878
1493003232.5,40.4526530747062,-79.9494608534849,0.200000002980232,0.0408477783203125,-0.962188720703125,0.203201293945312,-0.0148702925786754,-0.000967526424025787,-0.00334839243855663
1493003232.7,40.4526530747062,-79.9494608534849,0.200000002980232,0.0474395751953125,-0.970672607421875,0.200668334960938,-0.0138894503491993,-0.00629198439142121,-0.000125967519560748
1493003232.9,40.4526530747062,-79.9494608534849,0.200000002980232,0.0493316650390625,-0.962570190429688,0.2056884765625,-0.0127874342901245,-0.00523577470309578,-0.00224983848889894
1493003233.1,40.4526530747062,-79.9494608534849,0.200000002980232,0.0567169189453125,-0.950210571289062,0.234054565429688,-0.013813550258132,-0.00203811718223764,-0.00333481031699722
1493003233.3,40.4526533999632,-79.9494597837872,0.0,0.0504608154296875,-0.966476440429688,0.214035034179688,-0.0128180606426604,-0.00736284146574207,-0.00117844878236006
1493003233.5,40.4526533999632,-79.9494597837872,0.0,0.0523223876953125,-0.954360961914062,0.224044799804688,-0.0170903036633655,-0.00520727887943193,0.000904675822299917
1493003233.7,40.4526533999632,-79.9494597837872,0.0,0.0513763427734375,-0.955764770507812,0.2220458984375,-0.0149382031864725,-0.00415772709383171,-0.000142212802210231
1493003233.9,40.4526533999632,-79.9494597837872,0.0,0.0514068603515625,-0.960479736328125,0.218063354492188,-0.0149768190222786,-0.00734846039585564,0.000931840065418725
1493003234.1,40.4526533999632,-79.9494597837872,0.0,0.0515594482421875,-0.95794677734375,0.225448608398438,-0.0138827924464741,-0.00735591724690786,-0.00118936774282939
1493003234.3,40.452653395137,-79.9494597996595,0.0,0.05078125,-0.9580078125,0.221145629882812,-0.0138827924464741,-0.00735591724690786,-0.00118936774282939
1493003234.5,40.452653395137,-79.9494597996595,0.0,0.049468994140625,-0.958038330078125,0.219711303710938,-0.0138894503491993,-0.00629198439142121,-0.000125967519560748
1493003234.7,40.452653395137,-79.9494597996595,0.0,0.05078125,-0.956619262695312,0.224319458007812,-0.0138588239966633,-0.00416491762877492,-0.00119735722609963
1493003234.9,40.452653395137,-79.9494597996595,0.0,0.0514068603515625,-0.960983276367188,0.220535278320312,-0.0138894503491993,-0.00629198439142121,-0.000125967519560748
1493003235.1,40.452653395137,-79.9494597996595,0.0,0.052490234375,-0.95684814453125,0.223739624023438,-0.013881460865929,-0.00522831785204356,-0.000128630680650827
1493003235.3,40.4526533903181,-79.9494598155078,0.0,0.0528717041015625,-0.956878662109375,0.2242431640625,-0.0148862715452159,-0.00309485950278108,-0.00334306611637647
1493003235.5,40.4526533903181,-79.9494598155078,0.0,0.0488739013671875,-0.960601806640625,0.220596313476562,-0.0160042665708312,-0.0062784022698618,-0.00121386882485812
1493003235.7,40.4526533903181,-79.9494598155078,0.0,0.055511474609375,-0.957870483398438,0.221832275390625,-0.0139120872184649,-0.00735538461468985,0.00094275902588805
1493003235.9,40.4526533903181,-79.9494598155078,0.0,0.0499114990234375,-0.958755493164062,0.2225341796875,-0.0149688295390084,-0.00628479385647799,0.000929176904328646
1493003236.1,40.4526533903181,-79.9494598155078,0.0,0.050506591796875,-0.957321166992188,0.22149658203125,-0.0149395347670175,-0.00628532648869601,-0.00120294986438879
1493003236.3,40.452653152533,-79.94946059753,0.0,0.0503997802734375,-0.956710815429688,0.221511840820312,-0.0138894503491993,-0.00629198439142121,-0.000125967519560748
1493003236.5,40.452653152533,-79.94946059753,0.0,0.0516204833984375,-0.957672119140625,0.219024658203125,-0.0138894503491993,-0.00629198439142121,-0.000125967519560748
1493003236.7,40.452653152533,-79.94946059753,0.0,0.0489044189453125,-0.958328247070312,0.220870971679688,-0.0149688295390084,-0.00628479385647799,0.000929176904328646
1493003236.9,40.452653152533,-79.94946059753,0.0,0.0535125732421875,-0.95758056640625,0.222564697265625,-0.0170836457606403,-0.00627121173491859,-0.000158724400968723
1493003237.1,40.452653152533,-79.94946059753,0.0,0.0490570068359375,-0.956832885742188,0.21868896484375,-0.013881460865929,-0.00522831785204356,-0.000128630680650827
1493003237.3,40.4526531476903,-79.9494606134565,0.0,0.051727294921875,-0.95684814453125,0.220993041992188,-0.0128100711593901,-0.00629917492636442,-0.00118111194345014
1493003237.5,40.4526531476903,-79.9494606134565,0.0,0.0521697998046875,-0.9591064453125,0.223617553710938,-0.0149541821530129,-0.006285060172587,-0.000136886480030073
1493003237.7,40.4526531476903,-79.9494606134565,0.0,0.0502166748046875,-0.959075927734375,0.22344970703125,-0.0139187451211901,-0.00629145175920319,0.00200615924915669
1493003237.9,40.4526531476903,-79.9494606134565,0.0,0.0521697998046875,-0.957794189453125,0.22198486328125,-0.0139040977351947,-0.0062917180753122,0.000940095864797971
1493003238.1,40.4526531476903,-79.9494606134565,0.0,0.051544189453125,-0.957855224609375,0.2232666015625,-0.0138748029632038,-0.00629225070753022,-0.00119203090391947
1493003238.3,40.4526531428462,-79.9494606293875,0.0,0.0496826171875,-0.955856323242188,0.222366333007812,-0.0128167290621153,-0.00523524207087777,-0.000117711720181502
1493003238.5,40.4526531428462,-79.9494606293875,0.0,0.0518646240234375,-0.960922241210938,0.223220825195312,-0.0149395347670175,-0.00628532648869601,-0.00120294986438879
1493003238.7,40.4526531428462,-79.9494606293875,0.0,0.0504913330078125,-0.9581298828125,0.223968505859375,-0.013881460865929,-0.00522831785204356,-0.000128630680650827
1493003238.9,40.4526531428462,-79.9494606293875,0.0,0.04913330078125,-0.95611572265625,0.223037719726562,-0.0138827924464741,-0.00735591724690786,-0.00118936774282939
1493003239.1,40.4526531428462,-79.9494606293875,0.0,0.04998779296875,-0.956069946289062,0.219390869140625,-0.0149621716362832,-0.00734872671196465,-0.000134223318939994
1493003239.3,40.4526531379995,-79.9494606453274,0.0,0.0499114990234375,-0.95806884765625,0.222244262695312,-0.0149541821530129,-0.006285060172587,-0.000136886480030073
1493003239.5,40.4526531379995,-79.9494606453274,0.0,0.050445556640625,-0.96063232421875,0.222213745117188,-0.0149461926697427,-0.00522139363320935,-0.000139549641120152
1493003239.7,40.4526531379995,-79.9494606453274,0.0,0.04986572265625,-0.959152221679688,0.220855712890625,-0.0149541821530129,-0.006285060172587,-0.000136886480030073
1493003239.9,40.4526531379995,-79.9494606453274,0.0,0.051300048828125,-0.95550537109375,0.22479248046875,-0.0149541821530129,-0.006285060172587,-0.000136886480030073
1493003240.1,40.4526531379995,-79.9494606453274,0.0,0.0496673583984375,-0.957672119140625,0.2205810546875,-0.0128473554146513,-0.00736230883352405,0.000953677986357375
1493003240.3,40.4526531331709,-79.9494606612075,0.0,0.051055908203125,-0.95867919921875,0.221481323242188,-0.013881460865929,-0.00522831785204356,-0.000128630680650827
1493003240.5,40.4526531331709,-79.9494606612075,0.0,0.049896240234375,-0.959091186523438,0.223068237304688,-0.0149541821530129,-0.006285060172587,-0.000136886480030073
1493003240.7,40.4526531331709,-79.9494606612075,0.0,0.0506134033203125,-0.958572387695312,0.22137451171875,-0.0127874342901245,-0.00523577470309578,-0.00224983848889894
1493003240.9,40.4526531331709,-79.9494606612075,0.0,0.0493316650390625,-0.956207275390625,0.222640991210938,-0.0127940921928497,-0.00417184184760913,-0.0011864382656303
1493003241.1,40.4526531331709,-79.9494606612075,0.0,0.049713134765625,-0.95965576171875,0.222412109375,-0.0139200767017352,-0.0084190511540675,0.00094542218697813
1493003241.3,40.4526531283417,-79.9494606770896,0.0,0.05194091796875,-0.957916259765625,0.223251342773438,-0.0138894503491993,-0.00629198439142121,-0.000125967519560748
1493003241.5,40.4526531283417,-79.9494606770896,0.0,0.048004150390625,-0.95709228515625,0.219818115234375,-0.0138894503491993,-0.00629198439142121,-0.000125967519560748
1493003241.7,40.4526531283417,-79.9494606770896,0.0,0.0501251220703125,-0.957443237304688,0.220611572265625,-0.0138894503491993,-0.00629198439142121,-0.000125967519560748
1493003241.9,40.4526531283417,-79.9494606770896,0.0,0.0507354736328125,-0.960647583007812,0.22332763671875,-0.0138827924464741,-0.00735591724690786,-0.00118936774282939
1493003242.1,40.4526531283417,-79.9494606770896,0.0,0.0514678955078125,-0.956756591796875,0.222213745117188,-0.0149541821530129,-0.006285060172587,-0.000136886480030073
1493003242.3,40.452653123514,-79.949460692967,0.0,0.0513763427734375,-0.957260131835938,0.221939086914062,-0.0160189139568266,-0.0062781359537528,-0.000147805440499398
1493003242.5,40.452653123514,-79.949460692967,0.0,0.051177978515625,-0.958786010742188,0.223587036132812,-0.0149768190222786,-0.00734846039585564,0.000931840065418725
1493003242.7,40.452653123514,-79.949460692967,0.0,0.052154541015625,-0.959793090820312,0.221755981445312,-0.0138894503491993,-0.00629198439142121,-0.000125967519560748
1493003242.9,40.452653123514,-79.949460692967,0.0,0.05078125,-0.958221435546875,0.221817016601562,-0.0138681450604786,-0.00735618356301687,-0.00225543112718811
1493003243.1,40.452653123514,-79.949460692967,0.0,0.0489654541015625,-0.957977294921875,0.221115112304688,-0.0128473554146513,-0.00736230883352405,0.000953677986357375
1493003243.3,40.4526531186859,-79.9494607088455,0.0,0.0498046875,-0.958175659179688,0.220489501953125,-0.0160495403093625,-0.00840520271639908,0.00092358426603948
1493003243.5,40.4526531186859,-79.9494607088455,0.0,0.051025390625,-0.956405639648438,0.219772338867188,-0.0149395347670175,-0.00628532648869601,-0.00120294986438879
1493003243.7,40.4526531186859,-79.9494607088455,0.0,0.0520172119140625,-0.959213256835938,0.220916748046875,-0.0160189139568266,-0.0062781359537528,-0.000147805440499398
1493003243.9,40.4526531186859,-79.9494607088455,0.0,0.0508270263671875,-0.959152221679688,0.221115112304688,-0.0139040977351947,-0.0062917180753122,0.000940095864797971
1493003244.1,40.4526531186859,-79.9494607088455,0.0,0.0497894287109375,-0.958465576171875,0.222000122070312,-0.0149688295390084,-0.00628479385647799,0.000929176904328646
1493003244.3,40.4526531138582,-79.9494607247227,0.0,0.051025390625,-0.957855224609375,0.2213134765625,-0.013881460865929,-0.00522831785204356,-0.000128630680650827
1493003244.5,40.4526531138582,-79.9494607247227,0.0,0.04949951171875,-0.958023071289062,0.222061157226562,-0.0138668134799336,-0.00522858416815257,-0.00119469406500955
1493003244.7,40.4526531138582,-79.9494607247227,0.0,0.0501708984375,-0.959915161132812,0.221694946289062,-0.0149541821530129,-0.006285060172587,-0.000136886480030073
1493003244.9,40.4526531138582,-79.9494607247227,0.0,0.053558349609375,-0.959228515625,0.223175048828125,-0.0149461926697427,-0.00522139363320935,-0.000139549641120152
1493003245.1,40.4526531138582,-79.9494607247227,0.0,0.050140380859375,-0.957534790039062,0.221878051757812,-0.0149461926697427,-0.00522139363320935,-0.000139549641120152
1493003245.3,40.4526531090377,-79.9494607405763,0.0,0.05169677734375,-0.9566650390625,0.22186279296875,-0.0138961082519245,-0.00522805153593455,0.000937432703707892
1493003245.5,40.4526531090377,-79.9494607405763,0.0,0.05010986328125,-0.95745849609375,0.221237182617188,-0.0138894503491993,-0.00629198439142121,-0.000125967519560748
1493003245.7,40.4526531090377,-79.9494607405763,0.0,0.0514678955078125,-0.959381103515625,0.220016479492188,-0.0138827924464741,-0.00735591724690786,-0.00118936774282939
1493003245.9,40.4526531090377,-79.9494607405763,0.0,0.0516357421875,-0.9586181640625,0.22308349609375,-0.0138894503491993,-0.00629198439142121,-0.000125967519560748
1493003246.1,40.4526531090377,-79.9494607405763,0.0,0.0515899658203125,-0.95697021484375,0.222412109375,-0.0139040977351947,-0.0062917180753122,0.000940095864797971
1493003246.3,40.4526531042179,-79.9494607564274,0.0,0.04998779296875,-0.958114624023438,0.221160888671875,-0.0128087395788451,-0.00417157553150012,-0.000120374881271582
1493003246.5,40.4526531042179,-79.9494607564274,0.0,0.0495147705078125,-0.958526611328125,0.223403930664062,-0.013881460865929,-0.00522831785204356,-0.000128630680650827
1493003246.7,40.4526531042179,-79.9494607564274,0.0,0.05157470703125,-0.959869384765625,0.220657348632812,-0.0138827924464741,-0.00735591724690786,-0.00118936774282939
1493003246.9,40.4526531042179,-79.9494607564274,0.0,0.05059814453125,-0.957351684570312,0.221817016601562,-0.0160042665708312,-0.0062784022698618,-0.00121386882485812
1493003247.1,40.4526531042179,-79.9494607564274,0.0,0.049835205078125,-0.958160400390625,0.22265625,-0.0128313764481108,-0.00523497575476876,0.000948351664177217
1493003247.3,40.4526530993973,-79.9494607722815,0.0,0.049713134765625,-0.960601806640625,0.222000122070312,-0.0138668134799336,-0.00522858416815257,-0.00119469406500955
1493003247.5,40.4526530993973,-79.9494607722815,0.0,0.0511932373046875,-0.959243774414062,0.220626831054688,-0.0160122560541014,-0.00734206880923945,-0.00121120566376804
1493003247.7,40.4526530993973,-79.9494607722815,0.0,0.0515594482421875,-0.96099853515625,0.223526000976562,-0.0149461926697427,-0.00522139363320935,-0.000139549641120152
1493003247.9,40.4526530993973,-79.9494607722815,0.0,0.0513763427734375,-0.960037231445312,0.222732543945312,-0.0149541821530129,-0.006285060172587,-0.000136886480030073
1493003248.1,40.4526530993973,-79.9494607722815,0.0,0.04925537109375,-0.958297729492188,0.2205810546875,-0.0149541821530129,-0.006285060172587,-0.000136886480030073
1493003248.3,40.4526530945774,-79.949460788133,0.0,0.0528564453125,-0.958480834960938,0.221954345703125,-0.0149541821530129,-0.006285060172587,-0.000136886480030073
1493003248.5,40.4526530945774,-79.949460788133,0.0,0.0491485595703125,-0.956954956054688,0.223251342773438,-0.0138748029632038,-0.00629225070753022,-0.00119203090391947
1493003248.7,40.4526530945774,-79.949460788133,0.0,0.0799102783203125,-0.980758666992188,0.224624633789062,-0.033811759515755,0.0172378427877559,-0.00998658777168814
1493003248.9,40.4526530945774,-79.949460788133,0.0,0.079315185546875,-0.947784423828125,0.28375244140625,-0.00465440663713148,-0.0233689722493363,0.0160058644674852
1493003249.1,40.4526530945774,-79.949460788133,0.0,0.05584716796875,-0.945053100585938,0.277633666992188,-0.0150686980798863,-0.0137296606837945,0.00414600918503536
1493003249.3,40.4526530976195,-79.949460778128,0.0,0.05584716796875,-0.932464599609375,0.289337158203125,-0.0117826236108376,-0.00736923305235826,0.0009645969468267
1493003249.5,40.4526530976195,-79.949460778128,0.0,0.0619964599609375,-0.914520263671875,0.371734619140625,-0.000109189604693249,-0.0106361327615585,0.00215875837961823
1493003249.7,40.4526530976195,-79.949460778128,0.0,0.0678253173828125,-0.90802001953125,0.37347412109375,-0.00953065459306657,0.00112518556055848,-0.00329912395839016
1493003249.9,40.4526530976195,-79.949460778128,0.0,0.0661163330078125,-0.935699462890625,0.3660888671875,-0.0214890468358494,-0.00624085169849169,0.0104582336007412
1493003250.1,40.4526530976195,-79.949460778128,0.0,0.07073974609375,-0.901962280273438,0.389999389648438,-0.0160282350206419,-0.00946940188799475,-0.00120587934158788
1493003250.3,40.4526527001049,-79.9494620854647,1.01999998092651,0.0627899169921875,-0.923416137695312,0.414047241210938,-0.00877484947570208,-0.0244076050744672,0.00530421794311082
1493003250.5,40.4526527001049,-79.9494620854647,1.01999998092651,0.0760650634765625,-0.938430786132812,0.40118408203125,-0.00870693886790506,0.00218645525495505,0.0148322093750873
1493003250.7,40.4526527001049,-79.9494620854647,1.01999998092651,0.0701141357421875,-0.911285400390625,0.408905029296875,-0.000347542522255341,-0.0170146698884072,0.0160335613428221
1493003250.9,40.4526527001049,-79.9494620854647,1.01999998092651,0.066070556640625,-0.878265380859375,0.429885864257812,0.00425626405416464,0.00741903416474274,0.00428928725168162
1493003251.1,40.4526527001049,-79.9494620854647,1.01999998092651,0.119873046875,-0.872207641601562,0.414947509765625,-0.00472977409598073,0.0478953543084211,-0.0172314512011397
1493003251.3,40.4526450103364,-79.949487375395,2.6800000667572,0.127761840820312,-0.928924560546875,0.41644287109375,-0.00700304840247236,0.0521670646969081,-0.00447118115413403
1493003251.5,40.4526450103364,-79.949487375395,2.6800000667572,0.194625854492188,-0.947357177734375,0.33740234375,-0.0534112935581932,0.139683864439092,-0.0670125898774458
