timestamp,latitude,longitude,speed,accelerometerX,accelerometerY,accelerometerZ,gyroX,gyroY,gyroZ
1493003562.6,40.4475257722118,-79.9441930613941,0.0,0.217666625976562,-0.98004150390625,0.158340454101562,0.0329595479669297,0.048733983735687,0.107899303145105
1493003562.7,40.4475257722118,-79.9441930613941,0.0,0.0113525390625,-0.946929931640625,0.21209716796875,0.0235993356836282,-0.0873756522044097,0.0175265294499205
1493003562.9,40.4475257722118,-79.9441930613941,0.0,0.023651123046875,-0.956954956054688,0.208114624023438,-0.00958658097595823,0.00538144961472312,0.00308660370340184
1493003563.1,40.4475257821998,-79.9441930619374,0.0,0.0610809326171875,-0.956085205078125,0.201461791992188,-0.014854313612135,0.00115980665472951,-0.00335371876073678
1493003563.3,40.4475257821998,-79.9441930619374,0.0,0.070159912109375,-0.956466674804688,0.194503784179688,-0.0127994185150298,-0.000980309597258168,0.0009376990198169
1493003563.5,40.4475257821998,-79.9441930619374,0.0,0.0619659423828125,-0.9522705078125,0.196853637695312,-0.0128313764481108,-0.00523497575476876,0.000948351664177217
1493003563.7,40.4475257821998,-79.9441930619374,0.0,0.07000732421875,-0.952316284179688,0.1962890625,-0.0117653130637521,-0.00311430057873866,0.0020200076868251
1493003563.9,40.4475257821998,-79.9441930619374,0.0,0.054046630859375,-0.957733154296875,0.198165893554688,-0.0116827550699596,7.56337749582504e-05,-0.00225223533388001
1493003564.1,40.4475257921883,-79.9441930624807,0.0,0.067413330078125,-0.959884643554688,0.19818115234375,-0.0128153974815703,-0.00310764267601346,0.000943025341997058
1493003564.3,40.4475257921883,-79.9441930624807,0.0,0.0574798583984375,-0.955154418945312,0.197616577148438,-0.0138574924161183,-0.00203731823391062,-0.000136620163921065
1493003564.5,40.4475257921883,-79.9441930624807,0.0,0.0705108642578125,-0.954254150390625,0.196487426757812,-0.0117133814224955,-0.00205143298768804,-0.00118084562734113
1493003564.7,40.4475257921883,-79.9441930624807,0.0,0.061737060546875,-0.95794677734375,0.1971435546875,-0.0107005812599384,-0.00312122479757287,0.00203092664729443
1493003564.9,40.4475257921883,-79.9441930624807,0.0,0.0785064697265625,-0.943679809570312,0.255203247070312,-0.0074544542072408,-0.00207912986302486,-0.00113716978546383
1493003565.1,40.4475257921883,-79.9441930624807,0.0,0.06683349609375,-0.934005737304688,0.271774291992188,-0.0031795480254456,2.05063403936101e-05,-0.00109882026576669
1493003565.3,40.4475258021754,-79.9441930630239,0.0,0.0751495361328125,-0.933135986328125,0.271102905273438,-0.0179579615465133,0.00543418020430669,-0.00766138182393995
1493003565.5,40.4475258021754,-79.9441930630239,0.0,0.0718536376953125,-0.943603515625,0.263076782226562,-0.0136377816261868,0.00966061685426244,-0.00976048539514041
1493003565.7,40.4475258021754,-79.9441930630239,0.0,0.0653228759765625,-0.960311889648438,0.199691772460938,-0.0214690731276738,-0.00943265026495165,0.00726803293093525
1493003565.9,40.4475258021754,-79.9441930630239,0.0,0.058868408203125,-0.95965576171875,0.14947509765625,-0.0234786944862476,-0.0051657335664267,0.000839162059483968
1493003566.1,40.4475429151852,-79.9441939938379,0.239999994635582,0.059234619140625,-0.967864990234375,0.152862548828125,-0.0085098649472392,0.0011190602900513,-9.00148448446782e-05
1493003566.3,40.4475429151852,-79.9441939938379,0.239999994635582,0.060638427734375,-0.970932006835938,0.166183471679688,-0.0233362153679283,0.000150734917698485,-0.00663659743647746
1493003566.5,40.4475429151852,-79.9441939938379,0.239999994635582,0.055694580078125,-0.9678955078125,0.178817749023438,-0.00633379602053545,0.00535961169378447,-0.00114489295262506
1493003566.7,40.4475429151852,-79.9441939938379,0.239999994635582,0.0580902099609375,-0.957504272460938,0.158966064453125,-0.013813550258132,-0.00203811718223764,-0.00333481031699722
1493003566.9,40.4475429151852,-79.9441939938379,0.239999994635582,0.0611419677734375,-0.956863403320312,0.152145385742188,-0.0149315452837473,-0.00522165994931836,-0.00120561302547887
1493003567.1,40.4475429151852,-79.9441939938379,0.239999994635582,0.0550079345703125,-0.966201782226562,0.155517578125,-0.0127940921928497,-0.00417184184760913,-0.0011864382656303
1493003567.3,40.4475423432653,-79.9441939627299,0.259999990463257,0.0645599365234375,-0.967239379882812,0.1649169921875,-0.0190519881223179,0.00544163705535891,-0.00554017401569184
1493003567.5,40.4475423432653,-79.9441939627299,0.259999990463257,0.0659942626953125,-0.957839965820312,0.198165893554688,-0.0105501126583489,0.00325891022592996,-0.00544749600975708
1493003567.7,40.4475423432653,-79.9441939627299,0.259999990463257,0.06744384765625,-0.953750610351562,0.192962646484375,-0.0170663352135548,-0.00201627926129899,0.000896686339029679
1493003567.9,40.4475423432653,-79.9441939627299,0.259999990463257,0.06640625,-0.946182250976562,0.209808349609375,-0.00964383893939494,-0.00419181555578472,0.00204450876885383
1493003568.1,40.4475423432653,-79.9441939627299,0.259999990463257,0.063140869140625,-0.962081909179688,0.189102172851562,-0.0138654818993885,-0.00310098477328826,-0.000133957002830986
1493003568.3,40.4475429388472,-79.9441939951249,0.0,0.064788818359375,-0.953109741210938,0.20062255859375,-0.014922224219932,-0.00203039401507641,-0.00014753912439039
1493003568.5,40.4475429388472,-79.9441939951249,0.0,0.06646728515625,-0.949661254882812,0.195022583007812,-0.00956927042887272,-0.00206554774146546,-0.0022250710907612
1493003568.7,40.4475429388472,-79.9441939951249,0.0,0.0806884765625,-0.929397583007812,0.267074584960938,0.00312495322309898,-0.00533857272117284,0.00217819945557581
1493003568.9,40.4475429388472,-79.9441939951249,0.0,0.08233642578125,-0.934616088867188,0.299957275390625,-0.0064429856252287,-0.00527652106777399,0.00101386542699317
1493003569.1,40.4475429388472,-79.9441939951249,0.0,0.0851287841796875,-0.919540405273438,0.33160400390625,-0.0106473180381368,6.92421883420602e-05,-0.000109189604693249
1493003569.3,40.4475429496105,-79.9441939957103,0.0,0.0843505859375,-0.927642822265625,0.31732177734375,-0.0201060672817712,-0.000934503226508805,-0.00979936754705557
1493003569.5,40.4475429496105,-79.9441939957103,0.0,0.0926971435546875,-0.920791625976562,0.31732177734375,-0.00841798588963146,-0.00420166925181801,-0.00967126949862275
1493003569.7,40.4475429496105,-79.9441939957103,0.0,0.084869384765625,-0.91864013671875,0.32330322265625,-0.0126569393967106,0.00433615888686702,-0.00653806047614453
1493003569.9,40.4475429496105,-79.9441939957103,0.0,0.0812225341796875,-0.911941528320312,0.366729736328125,0.00323147966670215,0.00104236125065701,-0.00210203304839954
1493003570.1,40.4475429496105,-79.9441939957103,0.0,0.0873870849609375,-0.91070556640625,0.368362426757812,-0.00763821232245626,-0.0148415304389026,0.00529116845376943
1493003570.3,40.4475123105791,-79.9441923291865,0.569999992847443,0.10113525390625,-0.9134521484375,0.357620239257812,-0.0212160728241162,0.00864755037559629,-0.00130574788246585
1493003570.5,40.4475123105791,-79.9441923291865,0.569999992847443,0.08111572265625,-0.91668701171875,0.354385375976562,-0.00966514422811557,-0.00312761638418906,0.00417397237648119
1493003570.7,40.4475123105791,-79.9441923291865,0.569999992847443,0.0889129638671875,-0.895111083984375,0.365234375,-0.00538624330468526,0.00535481800382232,0.00739453308271401
1493003570.9,40.4475123105791,-79.9441923291865,0.569999992847443,0.0843505859375,-0.926727294921875,0.35809326171875,-0.0175331873526457,0.04053224652657,-0.0194759633678585
1493003571.1,40.4475123105791,-79.9441923291865,0.569999992847443,0.102706909179688,-0.890090942382812,0.34600830078125,-0.0261256102936773,0.0267594426331162,-0.0216608207261595
1493003571.3,40.4475311264132,-79.9441933526208,1.63999998569489,0.110000610351562,-0.939727783203125,0.307693481445312,-0.0269280207301182,0.0597397632565485,-0.02282036106478
1493003571.5,40.4475311264132,-79.9441933526208,1.63999998569489,0.0672760009765625,-0.92205810546875,0.310272216796875,-0.0194487991247397,-0.00838070163437035,0.0158157147656536
1493003571.7,40.4475311264132,-79.9441933526208,1.63999998569489,0.0527801513671875,-0.9200439453125,0.329391479492188,-0.0158657821941471,0.0160591276892868,0.000862331560967657
1493003571.9,40.4475311264132,-79.9441933526208,1.63999998569489,0.0956573486328125,-0.935821533203125,0.329925537109375,-0.0193502621644067,-0.00306343420191815,0.0115381454227683
1493003572.1,40.4475311264132,-79.9441933526208,1.63999998569489,0.028350830078125,-0.938186645507812,0.330856323242188,-0.0195081876170484,0.041607098342526,-0.0301610982934744
1493003572.3,40.4475466771943,-79.9441941984618,2.41000008583069,0.0743408203125,-0.929595947265625,0.306640625,-0.0189614406452552,0.0213971677782416,-0.00344799466332559
1493003572.5,40.4475466771943,-79.9441941984618,2.41000008583069,0.09649658203125,-0.931472778320312,0.314483642578125,-0.00340325355701226,-0.0180602269323724,0.00534283377891697
1493003572.7,40.4475466771943,-79.9441941984618,2.41000008583069,0.070709228515625,-0.920989990234375,0.341232299804688,-0.0122167188685205,-0.0339566354790553,0.0180881901238182
1493003572.9,40.4475466771943,-79.9441941984618,2.41000008583069,0.166305541992188,-0.871932983398438,0.307586669921875,0.0628141164189359,-0.0993180654806521,0.102189752084084
1493003573.1,40.4475466771943,-79.9441941984618,2.41000008583069,0.0789337158203125,-0.893600463867188,0.345413208007812,0.0344059107549517,-0.0948820380529071,0.0794969564355193
1493003573.3,40.447587217934,-79.9441964035611,5.55000019073486,0.0980224609375,-0.89727783203125,0.34722900390625,-0.0124635939015708,-0.105215103082415,0.0747789002483349
1493003573.5,40.447587217934,-79.9441964035611,5.55000019073486,0.012847900390625,-0.875885009765625,0.385604858398438,-0.094878842259599,-0.0397940182724,0.0631041346616456
1493003573.7,40.447587217934,-79.9441964035611,5.55000019073486,0.0088653564453125,-0.956985473632812,0.374008178710938,-0.0180977775037425,0.00437291050991011,0.0019358517963786
1493003573.9,40.447587217934,-79.9441964035611,5.55000019073486,0.03717041015625,-0.920318603515625,0.318145751953125,-0.0132388400948929,-0.0126742499437961,0.026552515016417
1493003574.1,40.447587217934,-79.9441964035611,5.55000019073486,-0.10089111328125,-0.79962158203125,0.353591918945312,-0.0348117765050798,-0.0593384248802735,0.0211209979732004
1493003574.3,40.4476415129718,-79.9441993567868,6.13000011444092,-0.0968780517578125,-0.940704345703125,0.427749633789062,0.00143917225307882,-0.112752914231775,0.066410981787197
1493003574.5,40.4476415129718,-79.9441993567868,6.13000011444092,-0.141555786132812,-0.896759033203125,0.461563110351562,0.0178434456196399,-0.280897182292217,0.253600313751122
1493003574.7,40.4476415129718,-79.9441993567868,6.13000011444092,0.0163116455078125,-0.921646118164062,0.354293823242188,0.00257767361908769,-0.0372429762642131,0.0246454253598113
1493003574.9,40.4476415129718,-79.9441993567868,6.13000011444092,0.120223999023438,-0.863433837890625,0.298477172851562,0.0292012950366098,-0.028905684155611,0.0291613476202587
1493003575.1,40.4476415129718,-79.9441993567868,6.13000011444092,-0.00628662109375,-0.913787841796875,0.313888549804688,-0.00911972883686734,-0.0254651463433377,0.0298263389444514
1493003575.3,40.4477344659354,-79.9442044127015,8.89999961853027,0.071868896484375,-0.941802978515625,0.285476684570312,0.0337806005310011,-0.0714792436577268,0.0602383070126113
1493003575.5,40.4477344659354,-79.9442044127015,8.89999961853027,0.0401763916015625,-0.9276123046875,0.316619873046875,0.0120577281514428,-0.0490053598507661,0.0258390541603848
1493003575.7,40.4477344659354,-79.9442044127015,8.89999961853027,-0.0090484619140625,-0.95794677734375,0.336654663085938,-0.0787928166433024,-0.00374280659599736,-0.00292947719908716
1493003575.9,40.4477344659354,-79.9442044127015,8.89999961853027,0.01605224609375,-0.973876953125,0.378433227539062,0.112320416870746,-0.120922427191702,0.0526403084226152
1493003576.1,40.4477344659354,-79.9442044127015,8.89999961853027,0.0180206298828125,-0.942276000976562,0.271392822265625,0.0454013039475618,-0.0141203464157091,0.0207593406971677
1493003576.3,40.4478110541052,-79.9442085784992,9.31999969482422,0.060699462890625,-0.93292236328125,0.31976318359375,0.00498676914117337,-0.0234323554832802,0.0118398815742743
1493003576.5,40.4478110541052,-79.9442085784992,9.31999969482422,-0.0516204833984375,-0.931076049804688,0.2818603515625,-0.0202517421933986,-0.0743224344374954,0.0383681618247716
1493003576.7,40.4478110541052,-79.9442085784992,9.31999969482422,-0.09063720703125,-0.869659423828125,0.355087280273438,0.00610822627620574,-0.124489997787972,0.0302377973328687
1493003576.9,40.4478110541052,-79.9442085784992,9.31999969482422,0.0147705078125,-0.954544067382812,0.3099365234375,0.0106598348952602,0.0360876969833367,-0.0586257629725683
1493003577.1,40.4478110541052,-79.9442085784992,9.31999969482422,0.069122314453125,-0.921676635742188,0.296829223632812,-0.00147033123783275,0.0234057238723794,-0.0352605191487581
1493003577.3,40.4478940228467,-79.9442130913503,9.34000015258789,0.101028442382812,-0.880950927734375,0.321884155273438,0.0101431816437848,0.0180122900327509,-0.0308628412407103
1493003577.5,40.4478940228467,-79.9442130913503,9.34000015258789,0.0060882568359375,-0.924911499023438,0.27337646484375,-0.00743368155073818,-0.0786615228015615,0.0331795250729702
1493003577.7,40.4478940228467,-79.9442130913503,9.34000015258789,0.034698486328125,-0.913543701171875,0.2470703125,-0.0274500003037737,0.0214520288966973,-0.00566747311579763
1493003577.9,40.4478940228467,-79.9442130913503,9.34000015258789,0.018096923828125,-0.938217163085938,0.302932739257812,0.0168660654995808,-0.0649877885006586,0.054717307756768
1493003578.1,40.4478940228467,-79.9442130913503,9.34000015258789,0.0841827392578125,-0.961700439453125,0.25482177734375,-0.0361875655242147,-0.0135943721004185,-0.00886513063665577
1493003578.3,40.4480185071497,-79.9442198623233,11.3199996948242,0.123641967773438,-0.957412719726562,0.22021484375,0.0191686345780633,-0.022452312202131,0.0652932530776907
1493003578.5,40.4480185071497,-79.9442198623233,11.3199996948242,-0.0951690673828125,-0.927474975585938,0.308303833007812,0.013815148154786,-0.144743071561916,0.0783486013734771
1493003578.7,40.4480185071497,-79.9442198623233,11.3199996948242,0.114944458007812,-0.8643798828125,0.21051025390625,0.00990349714567766,-0.00219577631877033,-0.0244158608738465
1493003578.9,40.4480185071497,-79.9442198623233,11.3199996948242,0.11993408203125,-0.993133544921875,0.220596313476562,0.0541090417637939,-0.124803185532165,0.024332770247836
1493003579.1,40.4480185071497,-79.9442198623233,11.3199996948242,0.128250122070312,-1.01036071777344,0.288223266601562,0.0598220549342319,0.0336506382698052,0.00479049416883453
1493003579.3,40.4481182952999,-79.9442252900187,11.9200000762939,0.017364501953125,-0.935806274414062,0.300827026367188,-0.0750891585153292,-0.0250366437239439,0.0259511732422771
1493003579.5,40.4481182952999,-79.9442252900187,11.9200000762939,0.114959716796875,-0.938949584960938,0.297134399414062,-0.030384537508932,0.026787139508453,-0.0217044965680368
1493003579.7,40.4481182952999,-79.9442252900187,11.9200000762939,0.063079833984375,-0.90863037109375,0.240264892578125,-0.00339659565428706,0.00427969987175734,0.0170136046239712
1493003579.9,40.4481182952999,-79.9442252900187,11.9200000762939,0.117523193359375,-0.853744506835938,0.265228271484375,-0.0553056000415665,0.0428989977873234,-0.0593187174882069
1493003580.1,40.4481182952999,-79.9442252900187,11.9200000762939,0.083709716796875,-0.892593383789062,0.330764770507812,-0.105260110504837,0.0549247680056852,-0.0598612034022561
1493003580.3,40.4482408877422,-79.9442319580894,12.3500003814697,0.0703125,-0.972000122070312,0.321746826171875,0.0354863552091968,0.0444452291162234,-0.000817590454654326
1493003580.5,40.4482408877422,-79.9442319580894,12.3500003814697,0.004547119140625,-0.973495483398438,0.324020385742188,-0.000364853069340856,-0.0212696023620268,0.0149781506028237
1493003580.7,40.4482408877422,-79.9442319580894,12.3500003814697,0.10894775390625,-0.951065063476562,0.316299438476562,-0.0714635310072953,-0.0144271425732863,0.000371777288175062
1493003580.9,40.4482408877422,-79.9442319580894,12.3500003814697,-0.0314483642578125,-0.969818115234375,0.300582885742188,0.00866512723879082,-0.0617467214540322,0.0333006989025688
1493003581.1,40.4482408877422,-79.9442319580894,12.3500003814697,0.110397338867188,-0.918167114257812,0.212905883789062,0.00106979180988483,0.0989026123505997,-0.101534614455925
1493003581.3,40.4483502347482,-79.9442379057118,12.5200004577637,0.11895751953125,-0.948593139648438,0.257461547851562,-0.0607744013400442,0.056765811267257,-0.0412848558506264
1493003581.5,40.4483502347482,-79.9442379057118,12.5200004577637,0.1173095703125,-0.95355224609375,0.2877197265625,-0.0749767731173278,0.0419690219346677,-0.0232664405473683
1493003581.7,40.4483502347482,-79.9442379057118,12.5200004577637,0.0951080322265625,-0.9925537109375,0.239944458007812,0.0201904894883267,0.0934721605718191,-0.0234912113433709
1493003581.9,40.4483502347482,-79.9442379057118,12.5200004577637,0.0642547607421875,-0.996337890625,0.246688842773438,-0.10571817421233,0.0719540852800879,-0.0172612786053486
1493003582.1,40.4483502347482,-79.9442379057118,12.5200004577637,0.151031494140625,-1.03565979003906,0.160125732421875,-0.0322703218768172,-0.00511779666680527,-0.0568265313401108
1493003582.3,40.448462785617,-79.9442509802265,12.8699998855591,0.299819946289062,-0.931747436523438,0.234634399414062,-0.0891429259037863,0.215428959530908,-0.137944021298943
1493003582.5,40.448462785617,-79.9442509802265,12.8699998855591,0.08367919921875,-1.00811767578125,0.354888916015625,-0.0847002405733161,0.274971382550681,-0.118860341559653
1493003582.7,40.448462785617,-79.9442509802265,12.8699998855591,0.188034057617188,-0.935806274414062,0.205276489257812,0.0356666512149952,0.173150744593682,-0.0214059562098389
1493003582.9,40.448462785617,-79.9442509802265,12.8699998855591,0.218154907226562,-0.970565795898438,0.195632934570312,0.0638879029704559,0.0878808538631978,0.0484069475538253
1493003583.1,40.448462785617,-79.9442509802265,12.8699998855591,0.119186401367188,-0.935867309570312,0.255783081054688,-0.0151206297211429,0.0320151910443876,0.0328152046358474
1493003583.3,40.4485723863366,-79.9442636308226,12.7799997329712,0.116378784179688,-0.899566650390625,0.251739501953125,0.00274278960667261,0.0393484714220298,0.0543034525233697
1493003583.5,40.4485723863366,-79.9442636308226,12.7799997329712,0.093597412109375,-0.8758544921875,0.26092529296875,-0.0576787428889361,0.0865335606677267,-0.0178732730238488
1493003583.7,40.4485723863366,-79.9442636308226,12.7799997329712,0.181900024414062,-1.01014709472656,0.250686645507812,0.00266262845786122,0.0840051555288054,-0.0705596541333224
1493003583.9,40.4485723863366,-79.9442636308226,12.7799997329712,0.186782836914062,-0.9649658203125,0.238632202148438,-0.0203380286127171,0.0937240956109406,-0.0964093609380675
1493003584.1,40.4485723863366,-79.9442636308226,12.7799997329712,0.16986083984375,-0.887847900390625,0.19476318359375,-0.0791206517734911,0.124959513088153,-0.0640391705203724
1493003584.3,40.4486926190061,-79.9442898110818,13.0500001907349,0.126144409179688,-0.920852661132812,0.236114501953125,-0.0249330467575398,0.020367323384708,-0.0344266834114543
1493003584.5,40.4486926190061,-79.9442898110818,13.0500001907349,0.112075805664062,-0.917129516601562,0.291748046875,-0.0126143288192693,0.0607174096927166,0.021038439979408
1493003584.7,40.4486926190061,-79.9442898110818,13.0500001907349,0.0713043212890625,-0.96624755859375,0.318878173828125,-0.0705905468019673,0.00684565558204868,0.0259149542514521
1493003584.9,40.4486926190061,-79.9442898110818,13.0500001907349,0.140350341796875,-1.09590148925781,0.303497314453125,0.0624697696899887,-0.0248574129825816,0.0902657146193637
1493003585.1,40.4486926190061,-79.9442898110818,13.0500001907349,0.211013793945312,-1.00361633300781,0.40948486328125,-0.0301110308649809,0.0352802265408247,-0.114484235256435
1493003585.3,40.448809652578,-79.9443355986152,13.4399995803833,0.250396728515625,-0.968856811523438,0.238357543945312,0.0104659567679024,0.175438133653951,-0.0461927954235334
1493003585.5,40.448809652578,-79.9443355986152,13.4399995803833,0.172607421875,-0.930709838867188,0.198974609375,0.00668267012333583,0.0254845874192953,-0.00746084579385699
1493003585.7,40.448809652578,-79.9443355986152,13.4399995803833,0.0759124755859375,-0.889892578125,0.312026977539062,-0.053706638123083,-0.0251767259972821,0.0197731721455113
1493003585.9,40.448809652578,-79.9443355986152,13.4399995803833,0.08984375,-0.87274169921875,0.267913818359375,-0.00589037969903726,0.0234363502249153,-0.0235774977626895
1493003586.1,40.448809652578,-79.9443355986152,13.4399995803833,0.059051513671875,-0.93994140625,0.268264770507812,-0.0494530372300084,0.00139096903734839,0.0346751563411587
1493003586.3,40.4489267263781,-79.9443839049223,13.6099996566772,0.108673095703125,-0.930252075195312,0.238967895507812,0.00314705746014664,-0.0212837171158043,0.0693910590469956
1493003586.5,40.4489267263781,-79.9443839049223,13.6099996566772,-0.0885467529296875,-0.916549682617188,0.29791259765625,-0.003596066419934,-0.136114962262277,0.110134494248009
1493003586.7,40.4489267263781,-79.9443839049223,13.6099996566772,-0.0030975341796875,-0.963485717773438,0.193084716796875,0.00785952100904185,-0.0851359337276531,0.0792000139739755
1493003586.9,40.4489267263781,-79.9443839049223,13.6099996566772,-0.0014801025390625,-0.925048828125,0.264358520507812,0.0416233436251754,0.194368415314452,-0.133352198947429
1493003587.1,40.4489267263781,-79.9443839049223,13.6099996566772,0.10406494140625,-0.948089599609375,0.173095703125,-0.0072126391802616,-0.0297301988290996,0.0437176535064138
1493003587.3,40.4490455771179,-79.9444331617106,13.8999996185303,0.119430541992188,-0.89013671875,0.140914916992188,0.0566398437476962,0.0177140159906621,-0.00479688575545072
1493003587.5,40.4490455771179,-79.9444331617106,13.8999996185303,0.0008544921875,-0.90924072265625,0.284957885742188,-0.0205614678281748,-0.0264577064816102,0.00945368923756328
1493003587.7,40.4490455771179,-79.9444331617106,13.8999996185303,-0.017852783203125,-0.976882934570312,0.186309814453125,0.0251301206782057,-0.0331366481794199,0.0131373736573609
1493003587.9,40.4490455771179,-79.9444331617106,13.8999996185303,0.016693115234375,-0.922073364257812,0.251541137695312,-0.00883690112910093,0.0447288557723168,-0.0300598981720514
1493003588.1,40.4490455771179,-79.9444331617106,13.8999996185303,0.070220947265625,-0.889266967773438,0.244461059570312,-0.0122361599444781,-0.00205436246488712,-0.0406361098090831
1493003588.3,40.4491702523449,-79.9444854348898,14.1099996566772,-0.0188751220703125,-0.916839599609375,0.257614135742188,0.031424768230717,-0.0703974676229366,0.0772708200803221
1493003588.5,40.4491702523449,-79.9444854348898,14.1099996566772,-0.0294036865234375,-0.94598388671875,0.213531494140625,0.00826565307527893,-0.07982425893349,0.0525351135595571
1493003588.7,40.4491702523449,-79.9444854348898,14.1099996566772,0.093841552734375,-0.939193725585938,0.215225219726562,-0.0255615527747985,0.0342083042020678,0.0188418647123106
1493003588.9,40.4491702523449,-79.9444854348898,14.1099996566772,0.154067993164062,-0.940643310546875,0.219558715820312,-0.0366922345507847,-0.0593291038164582,0.00297608251816355
1493003589.1,40.4491702523449,-79.9444854348898,14.1099996566772,0.0337677001953125,-0.991973876953125,0.25848388671875,0.0158383516349192,0.0264814086153119,-0.0532168827986174
1493003589.3,40.4492821187077,-79.9445323376353,13.8400001525879,-0.173141479492188,-0.892776489257812,0.270584106445312,-0.00264771475575678,-0.221212280154124,0.149813730277426
1493003589.5,40.4492821187077,-79.9445323376353,13.8400001525879,-0.1248779296875,-0.905181884765625,0.273101806640625,-0.0276579931849089,-0.137014844394615,0.155737665806199
1493003589.7,40.4492821187077,-79.9445323376353,13.8400001525879,-0.11578369140625,-0.947967529296875,0.26751708984375,-0.028264128649011,-0.066817113853434,0.083047749116922
1493003589.9,40.4492821187077,-79.9445323376353,13.8400001525879,-0.16180419921875,-0.89306640625,0.241500854492188,-0.0353089886805976,-0.074210315355603,0.126709476240444
1493003590.1,40.4492821187077,-79.9445323376353,13.8400001525879,-0.103469848632812,-0.99200439453125,0.277877807617188,-0.0468881467841531,-0.00501366706818317,-0.000467118455199898
1493003590.3,40.4493998025822,-79.9445816795167,13.4200000762939,0.0383148193359375,-0.990081787109375,0.218917846679688,0.0460404626091809,0.0358671872450782,0.00144503120747699
1493003590.5,40.4493998025822,-79.9445816795167,13.4200000762939,0.0001678466796875,-0.937301635742188,0.246932983398438,-0.0313187744193318,0.0012602078278255,-0.045104894118236
1493003590.7,40.4493998025822,-79.9445816795167,13.4200000762939,-0.02557373046875,-0.970169067382812,0.1683349609375,0.0131797179186931,-0.0511409487289006,0.0205249825212407
1493003590.9,40.4493998025822,-79.9445816795167,13.4200000762939,-0.11212158203125,-0.84368896484375,0.289962768554688,-0.0567775291760533,-0.125144070151695,0.0338604953637035
1493003591.1,40.4493998025822,-79.9445816795167,13.4200000762939,-0.0780029296875,-0.818313598632812,0.262908935546875,0.0319411551660834,0.0614809379772423,-0.0435464122483217
1493003591.3,40.449508343336,-79.9446271879181,13.3800001144409,-0.327728271484375,-0.736679077148438,0.303817749023438,-0.0148857389129979,-0.0211921043743055,-0.0907259088557294
1493003591.5,40.449508343336,-79.9446271879181,13.3800001144409,-0.281463623046875,-1.00801086425781,0.127777099609375,-0.115645906123928,0.0677425623322366,-0.149562594186632
1493003591.7,40.449508343336,-79.9446271879181,13.3800001144409,0.418609619140625,-0.81671142578125,0.266937255859375,0.0281570695731898,-0.0267839437151449,-0.0486884436810466
1493003591.9,40.449508343336,-79.9446271879181,13.3800001144409,0.188217163085938,-0.952484130859375,0.21087646484375,0.0257405172000519,-0.222456509015409,0.175696726595798
1493003592.1,40.449508343336,-79.9446271879181,13.3800001144409,0.0137939453125,-0.997772216796875,0.238677978515625,0.0395783022241036,-0.0630119892879288,0.0304218217641932
1493003592.3,40.4496270388695,-79.9446769539626,13.2299995422363,0.0260009765625,-0.950851440429688,0.307296752929688,-0.0294351205803188,0.0576204196610634,-0.0740188340732263
1493003592.5,40.4496270388695,-79.9446769539626,13.2299995422363,0.09759521484375,-0.9403076171875,0.263717651367188,-0.0261202839714972,0.0352698402125734,-0.0174178724774452
1493003592.7,40.4496270388695,-79.9446769539626,13.2299995422363,0.182754516601562,-0.929046630859375,0.22479248046875,-0.037171869863108,0.0374616217897086,-0.0644500962765716
1493003592.9,40.4496270388695,-79.9446769539626,13.2299995422363,0.135635375976562,-0.923126220703125,0.244827270507812,-0.0546371466079566,0.0811840689860845,-0.0871322392807765
1493003593.1,40.4496270388695,-79.9446769539626,13.2299995422363,-0.0127716064453125,-0.938858032226562,0.268280029296875,-0.01209874083223,-0.0605416410607713,0.0725349207138342
1493003593.3,40.4497455076484,-79.9447266249347,13.3199996948242,0.0006103515625,-0.9852294921875,0.243392944335938,0.00468636457021244,0.0510274980664632,-0.00328234604352266
1493003593.5,40.4497455076484,-79.9447266249347,13.3199996948242,0.0116729736328125,-0.9088134765625,0.260818481445312,0.0599573435176079,-0.047189083987332,0.0284572078280417
1493003593.7,40.4497455076484,-79.9447266249347,13.3199996948242,0.0159912109375,-0.9779052734375,0.261917114257812,-0.0297064966953979,-0.0689433816677533,0.0318601950689449
1493003593.9,40.4497455076484,-79.9447266249347,13.3199996948242,0.0444183349609375,-0.9619140625,0.206771850585938,-0.0375652187561127,-0.0220922528227523,0.00926833322569376
1493003594.1,40.4497455076484,-79.9447266249347,13.3199996948242,0.117477416992188,-0.981887817382812,0.156524658203125,-0.0304484533750939,-0.00512605246618452,-0.034417362347639
1493003594.3,40.4498552716459,-79.9447726462114,13.0200004577637,0.122573852539062,-0.961944580078125,0.141586303710938,0.00194890128571999,0.043593283883507,-0.0406086792498552
1493003594.5,40.4498552716459,-79.9447726462114,13.0200004577637,0.0578155517578125,-0.993698120117188,0.143646240234375,-0.0483177316573076,-0.0145744153815676,0.0208671987213159
1493003594.7,40.4498552716459,-79.9447726462114,13.0200004577637,0.027313232421875,-0.948272705078125,0.12969970703125,0.0195987350941111,-0.0373534974494514,0.0258861921116792
1493003594.9,40.4498552716459,-79.9447726462114,13.0200004577637,0.0509033203125,-0.947738647460938,0.163787841796875,-0.0167014821442139,0.00755139327091968,-0.0204485497979554
1493003595.1,40.4498552716459,-79.9447726462114,13.0200004577637,0.104049682617188,-1.00601196289062,0.119796752929688,0.00542086439885629,-0.0202488127161995,-0.0180178826710401
1493003595.3,40.4499752839063,-79.9448229643263,12.2200002670288,0.139022827148438,-0.94818115234375,0.16259765625,-0.0061100904889688,-0.0116654445228741,-0.0266878035997931
1493003595.5,40.4499752839063,-79.9448229643263,12.2200002670288,0.0631561279296875,-1.05908203125,0.160446166992188,0.0155035922858963,-0.00966967160196871,0.028971464234536
1493003595.7,40.4499752839063,-79.9448229643263,12.2200002670288,0.126296997070312,-0.927536010742188,0.144683837890625,0.000868190515365832,0.041472875023586,-0.0406142718881444
1493003595.9,40.4499752839063,-79.9448229643263,12.2200002670288,0.18896484375,-0.99615478515625,0.167160034179688,-0.0326506212804805,0.117215040638203,-0.0400866996761997
1493003596.1,40.4499752839063,-79.9448229643263,12.2200002670288,0.0404815673828125,-1.06562805175781,0.217071533203125,0.0866882903270603,-0.0941595224491686,0.0725668786469151
1493003596.3,40.4500712334642,-79.9448631935568,11.0900001525879,0.0045013427734375,-1.05178833007812,0.165924072265625,-0.0363414962352213,0.0374589586286185,-0.0473821631663628
1493003596.5,40.4500712334642,-79.9448631935568,11.0900001525879,0.114105224609375,-0.942169189453125,0.07818603515625,0.0211028884777879,-0.00226262166213132,0.0130164661438713
1493003596.7,40.4500712334642,-79.9448631935568,11.0900001525879,0.0705413818359375,-0.893112182617188,0.1693115234375,-0.0642061507207203,-0.0229825475751658,0.0100640857594094
1493003596.9,40.4500712334642,-79.9448631935568,11.0900001525879,0.151229858398438,-0.979644775390625,0.0831298828125,0.0612929188042827,0.0857631081643667,0.00360485485153126
1493003597.1,40.4500712334642,-79.9448631935568,11.0900001525879,-0.0754852294921875,-1.00785827636719,0.1888427734375,0.0191739609002435,-0.0490477041120983,0.0504349447239206
1493003597.3,40.4501548142077,-79.9448982368552,9.75,-0.00640869140625,-1.03105163574219,0.103042602539062,0.0383609712898284,-0.0098241349451933,-0.00704539266380462
1493003597.5,40.4501548142077,-79.9448982368552,9.75,0.072540283203125,-1.01785278320312,0.108901977539062,0.00379740139834399,0.0159254370025648,-0.0351872822187809
1493003597.7,40.4501548142077,-79.9448982368552,9.75,0.110809326171875,-0.99029541015625,0.0500946044921875,-0.0767845268652736,-0.0101373226893866,0.00243865661018556
1493003597.9,40.4501548142077,-79.9448982368552,9.75,0.0460357666015625,-1.00440979003906,0.100616455078125,-0.0399476826672976,-0.0401586050256319,0.0178202761181562
1493003598.1,40.4501548142077,-79.9448982368552,9.75,0.0053863525390625,-1.00788879394531,0.0767364501953125,0.0133288549397376,-0.0468884131002621,0.0119858228020106
1493003598.3,40.4502318498358,-79.9449305359518,8.01000022888184,0.0656280517578125,-0.984466552734375,0.0095672607421875,-0.0165896293784306,0.0107407949923986,-0.026852919587378
1493003598.5,40.4502318498358,-79.9449305359518,8.01000022888184,0.0850067138671875,-0.96856689453125,0.0174713134765625,-0.0318900224731538,0.0012705941560768,-0.00352842212824598
1493003598.7,40.4502318498358,-79.9449305359518,8.01000022888184,0.06854248046875,-1.00717163085938,-0.0129241943359375,-0.00303973206821644,0.00108177603479019,-0.0106960538860852
1493003598.9,40.4502318498358,-79.9449305359518,8.01000022888184,0.038330078125,-1.0423583984375,0.0397491455078125,-0.00795512849217569,-0.0414310633944717,0.0138862545558912
1493003599.1,40.4502318498358,-79.9449305359518,8.01000022888184,0.066131591796875,-1.00157165527344,0.0535888671875,-0.00513457458167277,0.0096054894196978,-0.00860707032702709
1493003599.3,40.450286851484,-79.9449535967561,6.05999994277954,-0.0016326904296875,-0.997848510742188,0.111373901367188,-0.00306103735693708,0.00214597520638585,-0.00856659027845789
1493003599.5,40.450286851484,-79.9449535967561,6.05999994277954,0.054351806640625,-1.00979614257812,0.017791748046875,-0.0487126784469664,0.00244131977127564,-0.0186306760378673
1493003599.7,40.450286851484,-79.9449535967561,6.05999994277954,0.0362091064453125,-0.989028930664062,0.051971435546875,0.0060967746835184,-0.00961054942576895,0.0160804329780074
1493003599.9,40.450286851484,-79.9449535967561,6.05999994277954,0.029754638671875,-0.977981567382812,0.0611419677734375,-0.0263706211139646,0.00974290853194588,-0.0130897030738485
1493003600.1,40.450286851484,-79.9449535967561,6.05999994277954,0.0737152099609375,-1.00277709960938,0.0666351318359375,-0.0226030471198295,-0.0147435261107877,0.00940255654463376
1493003600.3,40.4503219135944,-79.944968297415,3.89000010490417,0.0576171875,-0.965057373046875,0.09033203125,-0.00316756380054025,-0.004234958765444,-0.00428635777448253
1493003600.5,40.4503219135944,-79.944968297415,3.89000010490417,0.03436279296875,-1.00704956054688,0.0921783447265625,-0.0212466991766522,0.00652048361295001,-0.000234358175926973
1493003600.7,40.4503219135944,-79.944968297415,3.89000010490417,0.061065673828125,-0.969955444335938,0.099822998046875,-0.0415631561845396,-0.0146226185972981,-0.00571887212483616
1493003600.9,40.4503219135944,-79.944968297415,3.89000010490417,0.0714263916015625,-0.988204956054688,0.1044921875,-0.0119517343400576,-0.0318338297741532,-4.02137324601965e-05
1493003601.1,40.4503219135944,-79.944968297415,3.89000010490417,0.086029052734375,-0.952896118164062,0.201095581054688,-0.0117013971975902,-0.00630689809352565,-0.00436838313605697
1493003601.3,40.4503490106464,-79.9449796585257,2.41000008583069,0.0750732421875,-0.933624267578125,0.259048461914062,-0.0116015286567122,0.00113796873379086,-0.00758521541676369
1493003601.5,40.4503490106464,-79.9449796585257,2.41000008583069,0.114410400390625,-0.92327880859375,0.301071166992188,-0.0168226559738125,0.00117072561519883,-0.0151022539096213
1493003601.7,40.4503490106464,-79.9449796585257,2.41000008583069,0.114028930664062,-0.918777465820312,0.336578369140625,0.00115128453924125,0.00956580831945562,-0.00107911287370011
1493003601.9,40.4503490106464,-79.9449796585257,2.41000008583069,0.0723724365234375,-0.906387329101562,0.361892700195312,0.0044599958775557,0.00528770634435233,-0.011696337191519
1493003602.1,40.4503490106464,-79.9449796585257,2.41000008583069,0.11846923828125,-0.87030029296875,0.373504638671875,-0.0230406044869295,0.0395063968746715,-0.00673513439681039
1493003602.3,40.4503685315112,-79.9449878431321,2.22000002861023,0.105270385742188,-0.935440063476562,0.3802490234375,-0.0325885696270816,0.0480785797914185,-0.00472258356103751
1493003602.5,40.4503685315112,-79.9449878431321,2.22000002861023,0.101272583007812,-0.9061279296875,0.406936645507812,-0.0114510600551227,0.0192200335871019,-0.00869655253965375
1493003602.7,40.4503685315112,-79.9449878431321,2.22000002861023,0.0455780029296875,-0.956756591796875,0.385498046875,-0.0578811431317822,0.0439847685637487,-0.0262952536551154
1493003602.9,40.4503685315112,-79.9449878431321,2.22000002861023,0.1527099609375,-0.824050903320312,0.414627075195312,0.0465243589792483,0.0645688732611892,-0.0956495610790679
1493003603.1,40.4503685315112,-79.9449878431321,2.22000002861023,0.196060180664062,-0.88983154296875,0.451217651367188,-0.0144415236431727,0.0639171977424468,0.000753408272383417
1493003603.3,40.4503958770962,-79.9449993084465,3.47000002861023,0.0638885498046875,-0.933090209960938,0.39373779296875,-0.0140332610480635,0.033071667048822,0.0317573970508679
1493003603.5,40.4503958770962,-79.9449993084465,3.47000002861023,0.073211669921875,-0.9600830078125,0.421722412109375,0.00660890056114064,-0.108541923916141,0.00248020192319079
1493003603.7,40.4503958770962,-79.9449993084465,3.47000002861023,0.088165283203125,-0.86761474609375,0.441513061523438,0.0453829281360403,-0.134305876933786,0.111697503491776
1493003603.9,40.4503958770962,-79.9449993084465,3.47000002861023,0.0281829833984375,-0.8857421875,0.464141845703125,0.0236017325286092,0.0774902645541446,-0.0479379648858623
1493003604.1,40.4503958770962,-79.9449993084465,3.47000002861023,0.131011962890625,-0.91632080078125,0.379119873046875,-0.0270302861159772,-0.0774652308398979,0.0649622221541939
1493003604.3,40.4504421731684,-79.9450187192222,5.09999990463257,0.244049072265625,-0.852615356445312,0.373748779296875,-0.0404427643139433,0.141724911098529,-0.0796796492862987
1493003604.5,40.4504421731684,-79.9450187192222,5.09999990463257,0.120132446289062,-0.89373779296875,0.403396606445312,-0.10219640998681,0.057033991589028,-0.0491731389994411
1493003604.7,40.4504421731684,-79.9450187192222,5.09999990463257,0.11474609375,-0.951217651367188,0.36993408203125,-0.0392267649602131,0.0747075275311208,-0.049640257454641
1493003604.9,40.4504421731684,-79.9450187192222,5.09999990463257,0.125350952148438,-0.864181518554688,0.349594116210938,0.0264190906458041,0.0604553546414528,-0.0297395198929149
1493003605.1,40.4504421731684,-79.9450187192222,5.09999990463257,0.130508422851562,-0.935165405273438,0.407455444335938,-0.0159776349599304,0.0128697259678079,0.00726670135039021
1493003605.3,40.4504398677503,-79.9450177526186,6.07000017166138,0.227081298828125,-0.950759887695312,0.25994873046875,0.18544868987545,-0.135223602245427,0.0704853519389092
1493003605.5,40.4504398677503,-79.9450177526186,6.07000017166138,0.114990234375,-0.910049438476562,0.416854858398438,0.0396480770446637,0.00612207471387415,-0.0145368648101975
1493003605.7,40.4504398677503,-79.9450177526186,6.07000017166138,-0.11126708984375,-0.99163818359375,0.432907104492188,0.0864632532149486,-0.102665925286991,0.0843148811635817
1493003605.9,40.4504398677503,-79.9450177526186,6.07000017166138,-0.0613555908203125,-0.949371337890625,0.442779541015625,0.073807379082674,-0.029206887674899,-0.0396850949838158
1493003606.1,40.4504398677503,-79.9450177526186,6.07000017166138,0.0385894775390625,-0.956893920898438,0.4503173828125,0.0162269068379618,-0.0915714625018296,0.0867657883147816
1493003606.3,40.4504398677503,-79.9450177526186,7.32999992370605,0.082794189453125,-0.921356201171875,0.450576782226562,-0.0526893105866727,0.114164123293408,0.0215564248114284
1493003606.5,40.4504398677503,-79.9450177526186,7.32999992370605,0.115432739257812,-0.905914306640625,0.394363403320312,-0.0239881572027797,0.00440540107520908,-0.0343758170346338
1493003606.7,40.4504398677503,-79.9450177526186,7.32999992370605,0.05499267578125,-0.914794921875,0.360641479492188,-0.0381665605302526,0.0630111903396018,0.0218371219903227
1493003606.9,40.4504398677503,-79.9450177526186,7.32999992370605,-0.01678466796875,-0.871734619140625,0.401229858398438,-0.0165560735486956,-0.0966799381048196,0.067251475427226
1493003607.1,40.4504398677503,-79.9450177526186,7.32999992370605,0.094482421875,-0.9212646484375,0.383926391601562,-0.0121221766498227,-0.0584260258908124,-0.00210576147392565
1493003607.3,40.4506319149576,-79.9451003787564,8.06999969482422,-0.00616455078125,-0.91656494140625,0.383071899414062,-0.00595163240410908,0.00748028686981456,-0.0278018038837732
1493003607.5,40.4506319149576,-79.9451003787564,8.06999969482422,-0.035919189453125,-0.964691162109375,0.38037109375,0.0489198723797745,-0.0620061133442059,0.0486405067814252
1493003607.7,40.4506319149576,-79.9451003787564,8.06999969482422,-0.0422821044921875,-0.91180419921875,0.469345092773438,0.0418848660442212,-0.0257956446346165,0.0378128927374901
1493003607.9,40.4506319149576,-79.9451003787564,8.06999969482422,-0.036041259765625,-0.800186157226562,0.3123779296875,-0.101124221331944,-0.00572553002756135,-0.00635163919983898
1493003608.1,40.4506319149576,-79.9451003787564,8.06999969482422,-0.140869140625,-0.882598876953125,0.345611572265625,-0.0717484892439338,-0.0367620093713448,0.00895621074593648
1493003608.3,40.4507280782652,-79.9451417689341,10.0100002288818,-0.0479583740234375,-0.86029052734375,0.335678100585938,-0.00334466401303052,-0.0648690115160411,-0.0243897618951637
1493003608.5,40.4507280782652,-79.9451417689341,10.0100002288818,0.117691040039062,-0.915313720703125,0.263656616210938,-0.0500565095330204,0.0641419685384494,-0.0422603717579224
1493003608.7,40.4507280782652,-79.9451417689341,10.0100002288818,0.051727294921875,-0.90264892578125,0.299407958984375,-0.0448833191155414,-0.0358882262176898,-0.0856640385718158
1493003608.9,40.4507280782652,-79.9451417689341,10.0100002288818,0.032012939453125,-0.952621459960938,0.308975219726562,-0.0298324642149586,-0.0317201127956068,-0.0162167868258195
1493003609.1,40.4507280782652,-79.9451417689341,10.0100002288818,0.113052368164062,-0.903579711914062,0.266265869140625,0.0128167290621153,0.0169371719006859,0.00648479725434294
1493003609.3,40.4508471224466,-79.9451930073946,11.6899995803833,0.103561401367188,-0.969711303710938,0.20025634765625,0.0202184526797726,0.0328343793956959,-0.0585195028450742
1493003609.5,40.4508471224466,-79.9451930073946,11.6899995803833,0.113128662109375,-1.00177001953125,0.222305297851562,-0.0103391903000146,0.0521779836573775,-0.0716768502106106
1493003609.7,40.4508471224466,-79.9451930073946,11.6899995803833,0.12542724609375,-0.978836059570312,0.249588012695312,-0.0225146301716389,0.0139653504402665,-0.0589083243642257
1493003609.9,40.4508471224466,-79.9451930073946,11.6899995803833,0.036224365234375,-0.907501220703125,0.201919555664062,0.00707229059081443,-4.15453130052361e-05,0.027794080716612
1493003610.1,40.4508471224466,-79.9451930073946,11.6899995803833,0.0501861572265625,-0.956695556640625,0.208389282226562,-0.0537732171503349,-0.0496431869318401,0.0113059177757134
1493003610.3,40.4509493324889,-79.9452370001808,11.7200002670288,0.025360107421875,-0.990798950195312,0.185394287109375,-0.0425349436663096,0.119398033783741,-0.0945704482053678
1493003610.5,40.4509493324889,-79.9452370001808,11.7200002670288,0.176284790039062,-0.937393188476562,0.199859619140625,-0.0263040420867126,0.0108055098068875,-0.0173566197723734
1493003610.7,40.4509493324889,-79.9452370001808,11.7200002670288,0.198898315429688,-0.943008422851562,0.1026611328125,-0.153266518630714,0.160530556820014,-0.151253435162723
1493003610.9,40.4509493324889,-79.9452370001808,11.7200002670288,0.04180908203125,-0.9522705078125,0.105850219726562,0.0249463625629902,-0.0458990487552977,0.0195657118965941
1493003611.1,40.4509493324889,-79.9452370001808,11.7200002670288,0.001983642578125,-0.979049682617188,0.173965454101562,-0.0125229823938796,-0.0669292329353264,0.0224350016550455
1493003611.3,40.4510468596906,-79.9452789773997,11.1099996566772,0.0788421630859375,-0.988555908203125,0.136306762695312,-0.0112420019095515,0.0373010331759768,-0.0140721431999787
1493003611.5,40.4510468596906,-79.9452789773997,11.1099996566772,0.073211669921875,-1.00735473632812,0.126739501953125,-0.0137821249572691,-0.00309006581281894,0.0713032087096725
1493003611.7,40.4510468596906,-79.9452789773997,11.1099996566772,0.0769805908203125,-0.947357177734375,0.09429931640625,0.0127141973601473,-0.00646482354616735,0.00121306987653109
1493003611.9,40.4510468596906,-79.9452789773997,11.1099996566772,-0.03070068359375,-0.976470947265625,0.122268676757812,0.0276332257867712,-0.0608039624281441,0.0484194644109486
1493003612.1,40.4510468596906,-79.9452789773997,11.1099996566772,-0.048828125,-0.977020263671875,0.106826782226562,-0.0181656881115395,-0.010519219989704,-0.00122505410143645
1493003612.3,40.4511325902167,-79.9453158771467,9.67000007629395,0.0455322265625,-0.954818725585938,0.0245819091796875,-0.0374781333884671,0.0395948138228621,-0.0410020281428599
1493003612.5,40.4511325902167,-79.9453158771467,9.67000007629395,-0.0477294921875,-0.98114013671875,0.043426513671875,-0.00256275991698325,-0.0882622185312971,0.0609757363184542
1493003612.7,40.4511325902167,-79.9453158771467,9.67000007629395,0.0275421142578125,-1.02542114257812,0.0442352294921875,0.000673247123572031,-0.0170207951589144,0.0192426704563675
1493003612.9,40.4511325902167,-79.9453158771467,9.67000007629395,0.0532684326171875,-1.0316162109375,0.00372314453125,-0.0237063947594493,-0.00622540536416923,0.0168327759859548
1493003613.1,40.4511325902167,-79.9453158771467,9.67000007629395,0.0440216064453125,-1.00550842285156,0.0547637939453125,-0.039255260783877,0.0013174657912622,-0.0100012351576836
1493003613.3,40.4512035061456,-79.9453464004614,7.32999992370605,0.0478973388671875,-1.02928161621094,0.0167694091796875,-0.00408502279607254,-0.0308135727605438,0.0480173270863467
1493003613.5,40.4512035061456,-79.9453464004614,7.32999992370605,0.048095703125,-1.00486755371094,0.0079498291015625,-0.0332556914801465,0.000219178157713521,0.0177845897595492
1493003613.7,40.4512035061456,-79.9453464004614,7.32999992370605,0.0630340576171875,-1.02914428710938,0.0035247802734375,-0.0221463149928809,0.012907276539178,-0.00878976317780653
1493003613.9,40.4512035061456,-79.9453464004614,7.32999992370605,0.0350494384765625,-0.994293212890625,-7.62939453125e-05,-0.0531966427743328,0.00566454363859854,-0.00055926382891664
1493003614.1,40.4512035061456,-79.9453464004614,7.32999992370605,0.048736572265625,-0.98419189453125,0.106674194335938,-0.0313019965044643,-0.011493404316455,0.024232102758631
1493003614.3,40.4512513300509,-79.9453669846114,4.84000015258789,0.055938720703125,-0.947830200195312,0.221420288085938,0.00887205485548997,0.0158953432822469,-0.0170096098823361
1493003614.5,40.4512513300509,-79.9453669846114,4.84000015258789,0.0583038330078125,-0.941818237304688,0.226638793945312,-0.018249577685877,-0.00413482390845703,0.00835353739125155
1493003614.7,40.4512513300509,-79.9453669846114,4.84000015258789,0.04180908203125,-0.936447143554688,0.305709838867188,0.0044466800721053,0.0191175018851338,-0.00320245121082028
1493003614.9,40.4512513300509,-79.9453669846114,4.84000015258789,0.022216796875,-0.962493896484375,0.304214477539062,0.00977966015498898,0.0222741467252047,-0.00208978250738518
1493003615.1,40.4512513300509,-79.9453669846114,4.84000015258789,0.04364013671875,-0.889007568359375,0.373825073242188,-0.000659931318121635,-0.0202128600414834,-0.0404707275053891
1493003615.3,40.4512883430895,-79.9453829155968,3.79999995231628,0.129409790039062,-0.919784545898438,0.31646728515625,-0.0086310387768378,-0.0286654670252859,-0.00747789002483349
1493003615.5,40.4512883430895,-79.9453829155968,3.79999995231628,0.023712158203125,-0.964096069335938,0.459686279296875,-0.0109940616120651,-0.10203795190195,0.0470641817322073
1493003615.7,40.4512883430895,-79.9453829155968,3.79999995231628,-0.0234222412109375,-0.89501953125,0.5374755859375,-0.0586968693736734,0.00888137591930525,-0.0635305067521672
1493003615.9,40.4512883430895,-79.9453829155968,3.79999995231628,0.163101196289062,-0.901275634765625,0.371444702148438,-0.0694951886456177,-0.00273613170394741,0.0184873979712211
1493003616.1,40.4512883430895,-79.9453829155968,3.79999995231628,-0.0229034423828125,-0.89862060546875,0.50408935546875,0.0821191048448113,-0.110083361555079,0.0864219742180524
1493003616.3,40.451327285932,-79.9453996771997,4.96000003814697,0.032318115234375,-0.865066528320312,0.426788330078125,-0.00167459569344183,-0.0265772824145548,0.0299054348288268
1493003616.5,40.451327285932,-79.9453996771997,4.96000003814697,0.048614501953125,-0.935928344726562,0.420013427734375,0.0105602326704912,-0.0383524491743401,0.0631137220415699
1493003616.7,40.451327285932,-79.9453996771997,4.96000003814697,0.087127685546875,-0.836227416992188,0.382339477539062,-0.0449214023191296,0.118352743055884,-0.0764665454311181
1493003616.9,40.451327285932,-79.9453996771997,4.96000003814697,0.0677947998046875,-0.837646484375,0.40570068359375,-0.0655632976122247,0.0408459669029813,-0.0114388095141083
1493003617.1,40.451327285932,-79.9453996771997,4.96000003814697,0.106063842773438,-0.9298095703125,0.383468627929688,-0.0720156043012687,0.0440801097307735,-0.00511593245404222
1493003617.3,40.4513795271862,-79.945422162645,6.59000015258789,0.141021728515625,-0.951766967773438,0.36431884765625,0.0125131286978463,-0.0234821565956647,0.00658599737576596
1493003617.5,40.4513795271862,-79.945422162645,6.59000015258789,0.085540771484375,-0.828826904296875,0.43157958984375,-0.101197458261921,0.00597773138279186,0.00534576325611605
1493003617.7,40.4513795271862,-79.945422162645,6.59000015258789,0.087890625,-0.884109497070312,0.400970458984375,-0.208595021857655,0.00134303213772696,-0.0863700425767958
1493003617.9,40.4513795271862,-79.945422162645,6.59000015258789,0.185134887695312,-0.66595458984375,0.327438354492188,-0.0770452503359924,0.0547226340789482,-0.175789138285623
1493003618.1,40.4513795271862,-79.945422162645,6.59000015258789,0.366500854492188,-0.949172973632812,0.273086547851562,0.108700382001001,0.0780015914834398,-0.0406707309032541
1493003618.3,40.4513741841926,-79.9454198629378,8.14999961853027,0.240951538085938,-0.9381103515625,0.413345336914062,-0.0565338499363111,0.204570985450546,-0.191959053476257
1493003618.5,40.4513741841926,-79.9454198629378,8.14999961853027,0.244461059570312,-0.8955078125,0.390182495117188,0.0922617538563781,-0.202695054778694,0.0729040348409191
1493003618.7,40.4513741841926,-79.9454198629378,8.14999961853027,0.137481689453125,-0.846847534179688,0.37548828125,-0.198212688347982,0.0459587035637154,-0.0426641069791784
1493003618.9,40.4513741841926,-79.9454198629378,8.14999961853027,0.0131378173828125,-0.949203491210938,0.465438842773438,0.0122809010507914,-0.0713370308555165,0.0749448151842469
1493003619.1,40.4513741841926,-79.9454198629378,8.14999961853027,0.0095062255859375,-0.933486938476562,0.4058837890625,0.0486215983376857,-0.070511184601483,0.0657188262198854
1493003619.3,40.4515304444742,-79.9454878382704,9.94999980926514,0.158950805664062,-0.840225219726562,0.476852416992188,-0.0401050754877213,0.0800301212857532,-0.0603251260641479
1493003619.5,40.4515304444742,-79.9454878382704,9.94999980926514,0.0144195556640625,-0.894866943359375,0.429885864257812,-0.048364336976384,0.00457504443664712,0.0346780858183578
1493003619.7,40.4515304444742,-79.9454878382704,9.94999980926514,-0.0361175537109375,-0.976974487304688,0.435760498046875,-0.0433434793732576,-0.0624617802067184,0.0978091184070132
1493003619.9,40.4515304444742,-79.9454878382704,9.94999980926514,-0.093994140625,-0.953231811523438,0.462615966796875,0.00240856288986766,-0.0500056431561998,0.0300077002146858
1493003620.1,40.4516238032962,-79.9455284698876,11.2200002670288,0.115310668945312,-0.970001220703125,0.360748291015625,-0.0497728828769269,0.119455025431068,-0.032804285675378
1493003620.3,40.4516238032962,-79.9455284698876,11.2200002670288,0.137420654296875,-0.953262329101562,0.36004638671875,-0.0099583582641333,0.1340845682472,-0.0548248994648072
1493003620.5,40.4516238032962,-79.9455284698876,11.2200002670288,0.0080108642578125,-0.912734985351562,0.369659423828125,0.0115991318117311,-0.166003885492345,0.0730497097525465
1493003620.7,40.4516238032962,-79.9455284698876,11.2200002670288,-0.0057830810546875,-0.885040283203125,0.3922119140625,0.0552616578835802,-0.0780039883284209,0.0434156510387988
1493003620.9,40.4516238032962,-79.9455284698876,11.2200002670288,0.065460205078125,-0.954299926757812,0.31671142578125,0.0149075768339366,0.0254345199908018,0.013947773577072
1493003621.1,40.4516238032962,-79.9455284698876,11.2200002670288,0.058074951171875,-0.913345336914062,0.332931518554688,-0.0623709664135468,-0.0251186690855184,0.0303464543053439
1493003621.3,40.4517262945779,-79.945573076133,12.3800001144409,0.0202178955078125,-0.913589477539062,0.378936767578125,-0.0260537049442452,0.036332441487515,-0.0216847891759702
1493003621.5,40.4517262945779,-79.945573076133,12.3800001144409,-0.10882568359375,-0.900405883789062,0.386398315429688,0.033913225953287,-0.144872234874784,0.0881506320816228
1493003621.7,40.4517262945779,-79.945573076133,12.3800001144409,-0.105255126953125,-1.03562927246094,0.39495849609375,-0.0599560119370629,0.02591282372258,-0.040130641834186
1493003621.9,40.4517262945779,-79.945573076133,12.3800001144409,-0.045166015625,-0.938232421875,0.385498046875,0.0320245121082028,0.0146841376184789,0.00242241132753608
1493003622.1,40.4517262945779,-79.945573076133,12.3800001144409,-0.0138702392578125,-0.910614013671875,0.330490112304688,-0.0680363090004723,0.00682408397721904,-0.00497904597401214
1493003622.3,40.4518375150592,-79.9456214814998,13.3599996566772,-0.093505859375,-0.870437622070312,0.334976196289062,0.0177907150300563,0.0477470162357036,-0.0287288502592298
1493003622.5,40.4518375150592,-79.9456214814998,13.3599996566772,-0.144775390625,-0.867324829101562,0.323196411132812,-0.0692605641535817,-0.163351110730517,0.0690163522816215
1493003622.7,40.4518375150592,-79.9456214814998,13.3599996566772,0.0281219482421875,-0.903640747070312,0.272872924804688,-0.0424454614536829,-0.0273847528570668,-0.0259530374550402
1493003622.9,40.4518375150592,-79.9456214814998,13.3599996566772,-0.0076751708984375,-0.912490844726562,0.291641235351562,0.0190400038974125,-0.0245900316091376,-0.00400645954391521
1493003623.1,40.4518375150592,-79.9456214814998,13.3599996566772,0.045806884765625,-0.9146728515625,0.274673461914062,-0.0718664672802243,0.0366307155296039,-0.0200221777074337
1493003623.3,40.4519564967374,-79.9456732646939,13.9099998474121,-0.0540008544921875,-0.951202392578125,0.281036376953125,0.0369561538148116,-0.0427767586932888,0.0772561726943266
1493003623.5,40.4519564967374,-79.9456732646939,13.9099998474121,0.030914306640625,-0.968521118164062,0.323684692382812,-0.013444169814938,0.0426228279822822,-0.0834123358701538
1493003623.7,40.4519564967374,-79.9456732646939,13.9099998474121,0.0083465576171875,-0.914566040039062,0.281234741210938,0.0453680144339359,-0.0439064716277004,0.00697508521102653
1493003623.9,40.4519564967374,-79.9456732646939,13.9099998474121,0.0588226318359375,-0.910430908203125,0.200439453125,-0.03928934924583,0.0800277244407721,-0.0421911295695803
1493003624.1,40.4519564967374,-79.9456732646939,13.9099998474121,0.048309326171875,-0.906097412109375,0.238815307617188,-0.0300969161112035,0.0533772050962402,-0.0281674559014411
1493003624.3,40.4520834897234,-79.9457285345686,14.2600002288818,-0.059295654296875,-0.985488891601562,0.29364013671875,0.0589293633368373,-0.0982333599686628,0.0754918284721491
1493003624.5,40.4520834897234,-79.9457285345686,14.2600002288818,-0.0681610107421875,-0.936859130859375,0.327789306640625,-0.0438444199743015,-0.0231165045779968,0.000676975549098142
1493003624.7,40.4520834897234,-79.9457285345686,14.2600002288818,-0.04730224609375,-0.917953491210938,0.278579711914062,-0.0584238953619403,0.0705774973126259,-0.0498261460987285
1493003624.9,40.4520834897234,-79.9457285345686,14.2600002288818,-0.028045654296875,-0.966934204101562,0.1697998046875,-0.0867415535488619,0.0675651958036373,-0.0831609334632503
1493003625.1,40.4520834897234,-79.9457285345686,14.2600002288818,0.081085205078125,-0.8885498046875,0.190933227539062,-0.0493979097954438,0.0354195098658358,-0.0283187234513576
1493003625.3,40.4522092497181,-79.945783267821,14.3800001144409,0.111602783203125,-0.978378295898438,0.198974609375,0.0286284490861338,0.0242704522783281,-0.0552126557195228
1493003625.5,40.4522092497181,-79.945783267821,14.3800001144409,0.102584838867188,-1.00666809082031,0.20550537109375,0.0209782525387722,0.0253863167750713,-0.0403668642228761
1493003625.7,40.4522092497181,-79.945783267821,14.3800001144409,0.232757568359375,-0.83160400390625,0.24896240234375,0.0405892381738977,-0.118323714600003,0.0817531865110344
1493003625.9,40.4522092497181,-79.945783267821,14.3800001144409,0.1317138671875,-0.936309814453125,0.224151611328125,-0.0645158763554966,0.0248821803807193,-0.0188503868277989
1493003626.1,40.4522092497181,-79.945783267821,14.3800001144409,0.0202484130859375,-0.896438598632812,0.250762939453125,-0.0645017616017192,-0.0389343498725224,0.0228967937880653
1493003626.3,40.4523391659423,-79.9458398099471,14.3100004196167,0.0767059326171875,-0.908096313476562,0.21575927734375,-0.0466604465109513,0.0311517942189839,0.00264052422081356
1493003626.5,40.4523391659423,-79.9458398099471,14.3100004196167,0.072601318359375,-0.904251098632812,0.232345581054688,0.0128766501866421,0.00736177620130604,-0.00308580475507481
1493003626.7,40.4523391659423,-79.9458398099471,14.3100004196167,0.0324554443359375,-0.894546508789062,0.340652465820312,-0.0609608226163498,0.0514501417314588,-0.0306109062015888
1493003626.9,40.4523391659423,-79.9458398099471,14.3100004196167,-0.06951904296875,-0.932510375976562,0.242782592773438,-0.0425226931252952,0.013041499858118,0.00166341041686349
1493003627.1,40.4523391659423,-79.9458398099471,14.3100004196167,0.0561981201171875,-0.86517333984375,0.228240966796875,-0.0370957034559317,-0.0369817201612763,0.0444966281252619
1493003627.3,40.4524644460131,-79.9458943343271,14.460000038147,0.04937744140625,-0.87298583984375,0.272613525390625,0.0859713673616109,-0.0973254883530548,0.200513393213701
1493003627.5,40.4524644460131,-79.9458943343271,14.460000038147,-0.0470123291015625,-0.979049682617188,0.297134399414062,-0.0232496626325008,-0.00197846237381987,-0.0140937148048083
1493003627.7,40.4524644460131,-79.9458943343271,14.460000038147,0.11663818359375,-0.959197998046875,0.217666625976562,-0.0209683988427389,0.018217353436687,-0.0141224769445812
1493003627.9,40.4524644460131,-79.9458943343271,14.460000038147,0.0501251220703125,-0.94873046875,0.220108032226562,-0.110463927274852,0.0826163170203291,-0.0535886600867924
1493003628.1,40.4524644460131,-79.9458943343271,14.460000038147,0.0700531005859375,-1.00532531738281,0.259262084960938,0.00873543469156891,0.0712036064849036,-0.0544712316720447
1493003628.3,40.4525911820248,-79.9459521850538,14.789999961853,0.0010223388671875,-0.98089599609375,0.252487182617188,-0.0045878276098795,-0.0223063709743947,0.0117389477689603
1493003628.5,40.4525911820248,-79.9459521850538,14.789999961853,-0.0044403076171875,-0.952102661132812,0.246353149414062,0.00260430522998849,-0.0180948480265434,0.0331259955350596
1493003628.7,40.4525911820248,-79.9459521850538,14.789999961853,-0.01116943359375,-0.90155029296875,0.256546020507812,-0.0304444586334588,0.00125674571840839,-0.0312351511611034
1493003628.9,40.4525911820248,-79.9459521850538,14.789999961853,0.0269775390625,-0.928054809570312,0.227279663085938,0.00385545831010771,-0.00108417287977126,0.0288300503806528
1493003629.1,40.4525911820248,-79.9459521850538,14.789999961853,-0.042694091796875,-0.931838989257812,0.2708740234375,0.00680331132071642,-0.055354868521733,0.0172719312497089
1493003629.3,40.4527172151304,-79.9460103030745,15.0799999237061,-0.0261688232421875,-0.91455078125,0.256378173828125,-0.00651169518135274,0.0415200129748804,-0.0460210215332233
1493003629.5,40.4527172151304,-79.9460103030745,15.0799999237061,0.0089111328125,-0.97589111328125,0.2701416015625,-0.030920365520256,-0.0497851334179413,0.0531226068960286
1493003629.7,40.4527172151304,-79.9460103030745,15.0799999237061,0.0919647216796875,-0.993270874023438,0.181198120117188,-0.0185507812051649,0.073504045034514,-0.082478098959754
1493003629.9,40.4527172151304,-79.9460103030745,15.0799999237061,0.109786987304688,-0.91845703125,0.183883666992188,-0.077605046797127,0.04517094051327,-0.0627515321333191
1493003630.1,40.4527172151304,-79.9460103030745,15.0799999237061,-0.043701171875,-0.884902954101562,0.17962646484375,-0.0334274653704566,-0.0753083366730427,-0.0108100371807406
1493003630.3,40.4528496205324,-79.9460713595712,14.9899997711182,0.020904541015625,-0.853164672851562,0.211639404296875,-0.0515611955489151,-0.0230632413561952,0.0197896837442698
1493003630.5,40.4528496205324,-79.9460713595712,14.9899997711182,0.0210113525390625,-0.96539306640625,0.1925048828125,-0.0313600534162281,-0.00618572426392705,-0.0461523153749642
1493003630.7,40.4528496205324,-79.9460713595712,14.9899997711182,0.116012573242188,-1.00596618652344,0.150802612304688,0.0325944285814798,0.059353871214596,-0.0147464555879868
1493003630.9,40.4528496205324,-79.9460713595712,14.9899997711182,0.0698089599609375,-1.01435852050781,0.16864013671875,0.0201966147588339,0.00518810411958336,0.00552446136526037
1493003631.1,40.4528496205324,-79.9460713595712,14.9899997711182,-0.002105712890625,-0.957443237304688,0.138671875,-0.0105887284941551,0.0117701067537142,0.00199364239203332
1493003631.3,40.452976770918,-79.9461299928065,14.6499996185303,0.0401763916015625,-0.96771240234375,0.135498046875,0.039490417908131,-0.0513084615614666,0.0431852876045069
1493003631.5,40.452976770918,-79.9461299928065,14.6499996185303,0.0273895263671875,-0.932785034179688,0.132659912109375,-0.00913730570006187,0.107486779492252,-0.0515492113240098
1493003631.7,40.452976770918,-79.9461299928065,14.6499996185303,0.078338623046875,-0.932632446289062,0.148834228515625,-0.0707431459324288,0.0132188663867173,-0.0370096833527222
1493003631.9,40.452976770918,-79.9461299928065,14.6499996185303,0.0091094970703125,-0.91217041015625,0.109359741210938,-0.0383947934356724,-0.0486724647145062,0.0551756377803707
1493003632.1,40.452976770918,-79.9461299928065,14.6499996185303,-0.075469970703125,-1.04248046875,0.145401000976562,0.00160801666618984,0.0255146811396131,-0.0256385181303018
1493003632.3,40.4530991252333,-79.9461864144157,13.8900003433228,0.074249267578125,-0.961502075195312,0.13104248046875,-0.0140074283854898,0.0788026703393356,-0.0227372704387695
1493003632.5,40.4530991252333,-79.9461864144157,13.8900003433228,0.1531982421875,-0.990463256835938,0.04827880859375,0.0049540122597654,0.0105977832418613,-0.0447576179120897
1493003632.7,40.4530991252333,-79.9461864144157,13.8900003433228,0.07763671875,-0.981307983398438,0.0828704833984375,0.0518418927278095,-0.10349816312764,0.123412482810926
1493003632.9,40.4530991252333,-79.9461864144157,13.8900003433228,-0.07550048828125,-0.959884643554688,0.0523681640625,-0.0120111228323664,0.0532597596921677,-0.0269157701891038
1493003633.1,40.4530991252333,-79.9461864144157,13.8900003433228,-0.0379180908203125,-1.02783203125,0.09814453125,0.0199675829050871,-0.00970109690283164,0.0140902526953912
1493003633.3,40.4532120217262,-79.9462384747111,12.6099996566772,-0.00946044921875,-1.03506469726562,-0.0374908447265625,0.0194655770396072,-0.0394786999993346,0.0344200255087291
1493003633.5,40.4532120217262,-79.9462384747111,12.6099996566772,0.02947998046875,-0.97601318359375,0.05059814453125,-0.0744087208568139,-0.0027089674608286,-0.0114169715931697
1493003633.7,40.4532120217262,-79.9462384747111,12.6099996566772,-0.0310821533203125,-0.928924560546875,0.058197021484375,-0.0669968772270144,-0.0102033690844206,-0.0123879601266126
1493003633.9,40.4532120217262,-79.9462384747111,12.6099996566772,0.0846710205078125,-1.06890869140625,0.0231170654296875,-0.0565279909819129,-0.00282268443937498,0.00475960150018961
1493003634.1,40.4532120217262,-79.9462384747111,12.6099996566772,0.0764312744140625,-1.02783203125,-0.0313568115234375,-0.0175678084468167,0.0320223815793308,-0.0215867848478553
1493003634.3,40.4533101250368,-79.9462837133824,10.7799997329712,-0.0074462890625,-1.04368591308594,-0.012542724609375,0.0131344441801618,-0.0298638895158216,0.0353966066804612
1493003634.5,40.4533101250368,-79.9462837133824,10.7799997329712,-0.132156372070312,-0.971511840820312,-0.0257110595703125,-0.0159954781392339,-0.0903072599323689,0.0299232780081303
1493003634.7,40.4533101250368,-79.9462837133824,10.7799997329712,0.0537567138671875,-1.01802062988281,-0.053253173828125,-0.0243724513480782,0.0852496507061995,-0.0399194531597427
1493003634.9,40.4533101250368,-79.9462837133824,10.7799997329712,0.062835693359375,-1.02545166015625,-0.0302734375,-0.0181917870902223,0.0575527753693754,-0.0397846972085847
1493003635.1,40.4533101250368,-79.9462837133824,10.7799997329712,0.0403289794921875,-1.03651428222656,-0.0362701416015625,-0.0135597510062474,-0.0690504407435745,0.0192312188636802
1493003635.3,40.4533879068745,-79.9463195811524,8.68000030517578,0.0366668701171875,-1.01736450195312,-0.0964813232421875,-0.00669864908987631,-0.0159099906682424,0.0138332576501986
1493003635.5,40.4533879068745,-79.9463195811524,8.68000030517578,0.0008087158203125,-1.01194763183594,-0.0157470703125,-0.0259849953881211,-0.0221660223849475,0.0189830122500848
1493003635.7,40.4533879068745,-79.9463195811524,8.68000030517578,0.03692626953125,-0.971954345703125,-0.0254364013671875,0.0253125472128761,0.012603942491018,0.0247495549584334
1493003635.9,40.4533879068745,-79.9463195811524,8.68000030517578,0.0464324951171875,-1.00439453125,0.0109710693359375,-0.00835673318455964,0.0234563239330909,0.000920122156622377
1493003636.1,40.4533879068745,-79.9463195811524,8.68000030517578,0.009429931640625,-1.00784301757812,-0.0240478515625,-0.0203044727829821,0.00970722217333882,0.0104292051448593
1493003636.3,40.453442665131,-79.9463448319901,5.78000020980835,0.03973388671875,-0.993133544921875,-0.0258026123046875,-0.00361763802476364,-0.00954583461128002,0.025576732793012
1493003636.5,40.453442665131,-79.9463448319901,5.78000020980835,-0.0195159912109375,-1.02394104003906,-0.00927734375,-0.021006215730218,-0.023258184747989,0.043559728053772
1493003636.7,40.453442665131,-79.9463448319901,5.78000020980835,0.02508544921875,-1.03504943847656,-0.0177001953125,-0.0325978906908969,-0.00192040546205614,-0.0312489995987718
1493003636.9,40.453442665131,-79.9463448319901,5.78000020980835,0.025390625,-0.97491455078125,0.01910400390625,-0.0220903886099893,0.0203529423148216,-0.00880840530543708
1493003637.1,40.453442665131,-79.9463448319901,5.78000020980835,0.0348358154296875,-1.02888488769531,-0.005401611328125,-0.0180578300873913,0.0330951028664147,0.0146567070592511
1493003637.3,40.4534834626764,-79.9463636450835,3.89000010490417,0.0136871337890625,-1.010986328125,-0.008209228515625,-0.0235372840302293,0.0182391913576257,0.0178375866652417
1493003637.5,40.4534834626764,-79.9463636450835,3.89000010490417,0.007568359375,-1.01234436035156,-0.000762939453125,-0.0189947301588812,0.00331297239605857,-0.0108651646153053
1493003637.7,40.4534834626764,-79.9463636450835,3.89000010490417,0.0294189453125,-1.00901794433594,-0.0119476318359375,-0.0242358311841571,0.00653752784392651,-0.015192002438357
1493003637.9,40.4534834626764,-79.9463636450835,3.89000010490417,-0.0067901611328125,-1.03836059570312,-0.0294647216796875,-0.0062379222212926,0.00642168033650807,-0.00754393641986746
1493003638.1,40.4534834626764,-79.9463636450835,3.89000010490417,0.012298583984375,-1.00981140136719,-0.01263427734375,-0.0118105868022834,-0.0169430308550841,-0.00220962475643874
1493003638.3,40.4534965585134,-79.9463696840057,1.67999994754791,0.016571044921875,-1.01730346679688,0.0135650634765625,-0.0128180606426604,-0.00736284146574207,-0.00117844878236006
1493003638.5,40.4534965585134,-79.9463696840057,1.67999994754791,0.0273895263671875,-1.0064697265625,0.0720367431640625,-0.01912389347175,-0.00413136179903992,-0.00551620556588113
1493003638.7,40.4534965585134,-79.9463696840057,1.67999994754791,0.013153076171875,-0.981781005859375,0.116043090820312,-0.00357502744732237,-0.0233761627842795,0.0149507200435958
1493003638.9,40.4534965585134,-79.9463696840057,1.67999994754791,0.048797607421875,-0.963699340820312,0.23760986328125,-0.00846725436979793,-0.00100933805314003,-0.0043489420600994
1493003639.1,40.4534965585134,-79.9463696840057,1.67999994754791,0.043609619140625,-0.940185546875,0.16448974609375,-0.0117599867415719,-0.00630583282908962,-0.000104129598622098
1493003639.3,40.4534972915797,-79.9463700220468,0.0,0.0454559326171875,-0.960418701171875,0.20941162109375,-0.0117599867415719,-0.00630583282908962,-0.000104129598622098
1493003639.5,40.4534972915797,-79.9463700220468,0.0,0.0401153564453125,-0.971710205078125,0.19403076171875,-0.0127940921928497,-0.00417184184760913,-0.0011864382656303
1493003639.7,40.4534972915797,-79.9463700220468,0.0,0.046417236328125,-0.959945678710938,0.192459106445312,-0.0139107556379199,-0.00522778521982554,0.00200349608806661
1493003639.9,40.4534972915797,-79.9463700220468,0.0,0.03662109375,-0.958358764648438,0.19921875,-0.014991466408274,-0.00734819407974663,0.00199790344977744
1493003640.1,40.4534972915797,-79.9463700220468,0.0,0.04339599609375,-0.966598510742188,0.191452026367188,-0.0127794448068542,-0.00417210816371813,-0.00225250164998902
1493003640.3,40.4535013582306,-79.9463718973136,0.400000005960464,0.0401153564453125,-0.9593505859375,0.2005615234375,-0.0138734713826588,-0.00416465131266591,-0.000131293841740906
1493003640.5,40.4535013582306,-79.9463718973136,0.400000005960464,0.06890869140625,-0.999359130859375,0.208328247070312,-0.0590209760783361,-0.0336527687986773,0.0144095657100917
1493003640.7,40.4535013582306,-79.9463718973136,0.400000005960464,0.0326385498046875,-0.975845336914062,0.192901611328125,-0.00440540107520908,-0.0116715697933813,0.00424987246754845
1493003640.9,40.4535013582306,-79.9463718973136,0.400000005960464,0.0478057861328125,-0.957794189453125,0.203338623046875,-0.0180218774126752,-0.0030751521107145,-0.00764007653521932
1493003641.1,40.4535013582306,-79.9463718973136,0.400000005960464,0.0383453369140625,-0.961288452148438,0.191604614257812,-0.0160029349902861,-0.0041508028749975,-0.000153131762679556
1493003641.3,40.4535018597791,-79.9463721285941,0.319999992847443,0.04449462890625,-0.9605712890625,0.194686889648438,-0.0138734713826588,-0.00416465131266591,-0.000131293841740906
1493003641.5,40.4535018597791,-79.9463721285941,0.319999992847443,0.0369110107421875,-0.960952758789062,0.199447631835938,-0.0149302137032022,-0.00309406055445406,-0.000144875963300311
1493003641.7,40.4535018597791,-79.9463721285941,0.319999992847443,0.0417327880859375,-0.963226318359375,0.194732666015625,-0.012771455323584,-0.00310844162434049,-0.0022551648110791
1493003641.9,40.4535018597791,-79.9463721285941,0.319999992847443,0.0388336181640625,-0.958206176757812,0.199478149414062,-0.0128167290621153,-0.00523524207087777,-0.000117711720181502
1493003642.1,40.4535018597791,-79.9463721285941,0.319999992847443,0.0418243408203125,-0.959884643554688,0.194351196289062,-0.0116987340365001,-0.00205169930379704,-0.00224690901169985
1493003642.3,40.4535128538424,-79.9463771983192,0.189999997615814,0.04168701171875,-0.962158203125,0.1953125,-0.013881460865929,-0.00522831785204356,-0.000128630680650827
1493003642.5,40.4535128538424,-79.9463771983192,0.189999997615814,0.0419921875,-0.961151123046875,0.19659423828125,-0.0149461926697427,-0.00522139363320935,-0.000139549641120152
1493003642.7,40.4535128538424,-79.9463771983192,0.189999997615814,0.04248046875,-0.961532592773438,0.197967529296875,-0.0149688295390084,-0.00628479385647799,0.000929176904328646
1493003642.9,40.4535128538424,-79.9463771983192,0.189999997615814,0.0399322509765625,-0.963836669921875,0.196121215820312,-0.0160042665708312,-0.0062784022698618,-0.00121386882485812
1493003643.1,40.4535128538424,-79.9463771983192,0.189999997615814,0.041839599609375,-0.961990356445312,0.197418212890625,-0.0128007500955749,-0.00310790899212247,-0.000123038042361661
1493003643.3,40.4535114477076,-79.9463765499041,0.0,0.04010009765625,-0.96270751953125,0.194839477539062,-0.0138521660939381,-0.00522885048426158,-0.00226075744936827
1493003643.5,40.4535114477076,-79.9463765499041,0.0,0.04302978515625,-0.964736938476562,0.193572998046875,-0.0117533288388467,-0.00736976568457628,-0.00116752982189074
1493003643.7,40.4535114477076,-79.9463765499041,0.0,0.04156494140625,-0.962265014648438,0.193328857421875,-0.0149302137032022,-0.00309406055445406,-0.000144875963300311
1493003643.9,40.4535114477076,-79.9463765499041,0.0,0.043243408203125,-0.961395263671875,0.192642211914062,-0.0138894503491993,-0.00629198439142121,-0.000125967519560748
1493003644.1,40.4535114477076,-79.9463765499041,0.0,0.0395965576171875,-0.963455200195312,0.1964111328125,-0.0127940921928497,-0.00417184184760913,-0.0011864382656303
1493003644.3,40.4535085140376,-79.9463751970922,0.0,0.0617523193359375,-0.944320678710938,0.225341796875,-0.0102105596193638,0.0192099135749596,-0.0214783941914891
1493003644.5,40.4535085140376,-79.9463751970922,0.0,0.0522308349609375,-0.942901611328125,0.271270751953125,-0.00730398560565132,0.00430100516047797,-0.00861559244251534
1493003644.7,40.4535085140376,-79.9463751970922,0.0,0.05352783203125,-0.942123413085938,0.263473510742188,-0.0160482087288175,-0.00627760332153478,0.00198432132821804
1493003644.9,40.4535085140376,-79.9463751970922,0.0,0.0494842529296875,-0.94720458984375,0.264633178710938,-0.0106925917766681,-0.00205755825819522,0.00202826348620435
1493003645.1,40.4535085140376,-79.9463751970922,0.0,0.0473785400390625,-0.954025268554688,0.236907958984375,-0.00960655468413383,-0.00312868164862509,-9.02811609536862e-05
1493003645.3,40.4535101156298,-79.9463759356391,0.360000014305115,0.042816162109375,-0.97601318359375,0.17205810546875,-0.0170556825691945,0.00330258606780726,0.00301549730229672
1493003645.5,40.4535101156298,-79.9463759356391,0.360000014305115,0.0348052978515625,-0.965774536132812,0.154510498046875,-0.0192171041099028,-0.000938231652034916,0.00300431202571839
1493003645.7,40.4535101156298,-79.9463759356391,0.360000014305115,0.0389556884765625,-0.975448608398438,0.1605224609375,-0.0118092552217384,-0.00311350163041164,0.00521819783990126
1493003645.9,40.4535101156298,-79.9463759356391,0.360000014305115,0.027374267578125,-0.970230102539062,0.153106689453125,-0.0192037883044524,-0.00306609736300823,0.000877511579181109
1493003646.1,40.4535101156298,-79.9463759356391,0.360000014305115,0.035675048828125,-0.964874267578125,0.145370483398438,-0.0191811514351867,-0.00200269713973959,-0.000191214966267689
1493003646.3,40.4535153137597,-79.9463783326682,0.209999993443489,0.0478973388671875,-0.9345703125,0.245498657226562,-0.00207220564419066,-0.00211481622163192,-0.00534682852055209
1493003646.5,40.4535153137597,-79.9463783326682,0.209999993443489,0.0644683837890625,-0.9422607421875,0.27972412109375,-0.011561581240361,0.0064563014306791,-0.00759853122221408
1493003646.7,40.4535153137597,-79.9463783326682,0.209999993443489,0.08740234375,-0.925247192382812,0.32373046875,-0.00067990502629723,0.0180847280144011,-0.0181792702330989
1493003646.9,40.4535153137597,-79.9463783326682,0.209999993443489,0.104034423828125,-0.906875610351562,0.369522094726562,-0.00787203786616522,0.0489789945559743,-0.0204650613967139
1493003647.1,40.4535153137597,-79.9463783326682,0.209999993443489,0.111679077148438,-0.91217041015625,0.3802490234375,-0.00224877322446291,0.082980903773561,-0.023693877902326
1493003647.3,40.4535204884109,-79.9463807188705,0.670000016689301,0.129196166992188,-0.910293579101562,0.368133544921875,-0.00797004219428014,0.130881850720271,-0.0462665649857286
1493003647.5,40.4535204884109,-79.9463807188705,0.670000016689301,0.164321899414062,-0.904510498046875,0.381134033203125,-0.0326900360646136,0.199116831538063,-0.0701524568026493
1493003647.7,40.4535204884109,-79.9463807188705,0.670000016689301,0.2462158203125,-0.921188354492188,0.334274291992188,-0.0410169418449644,0.286388886776069,-0.114177705414967
1493003647.9,40.4535204884109,-79.9463807188705,0.670000016689301,0.237335205078125,-0.996673583984375,0.306137084960938,0.0230094455021756,0.314693761789758,-0.108264156214446
1493003648.1,40.4535204884109,-79.9463807188705,0.670000016689301,0.174606323242188,-0.892333984375,0.324081420898438,0.0458255455092115,0.353901085674014,-0.119860092232869
1493003648.3,40.4535355590945,-79.9463876684596,2.71000003814697,0.230545043945312,-0.9051513671875,0.31890869140625,0.0543287525537255,0.377249817899065,-0.105972506096433
1493003648.5,40.4535355590945,-79.9463876684596,2.71000003814697,0.2078857421875,-0.917877197265625,0.346954345703125,0.0219558989749403,0.407239674934448,-0.136235337143548
1493003648.7,40.4535355590945,-79.9463876684596,2.71000003814697,0.169540405273438,-0.9202880859375,0.365798950195312,-0.00240909552208568,0.464842517732317,-0.114242952861674
1493003648.9,40.4535355590945,-79.9463876684596,2.71000003814697,0.103286743164062,-0.829437255859375,0.369613647460938,-0.0821260290636455,0.470690819486131,-0.0447040883741791
1493003649.1,40.4535355590945,-79.9463876684596,2.71000003814697,0.184005737304688,-0.911849975585938,0.33795166015625,-0.00994291192981084,0.434029477603991,-0.20273633377559
1493003649.3,40.4535534465554,-79.9463959169577,3.85999989509583,0.3138427734375,-0.769287109375,0.360748291015625,-0.05908435931228,0.512009231166492,-0.14906378411446
1493003649.5,40.4535534465554,-79.9463959169577,3.85999989509583,0.445770263671875,-0.843765258789062,0.338607788085938,-0.12489320037701,0.47202240003117,-0.109118231976035
1493003649.7,40.4535534465554,-79.9463959169577,3.85999989509583,0.284957885742188,-0.96148681640625,0.267822265625,-0.0701718978786069,0.52696740806114,-0.186533395387439
1493003649.9,40.4535534465554,-79.9463959169577,3.85999989509583,0.344223022460938,-0.782394409179688,0.460556030273438,-0.0399018762965482,0.481033738211671,-0.166913088688498
1493003650.1,40.4535534465554,-79.9463959169577,3.85999989509583,0.284347534179688,-0.833389282226562,0.33245849609375,-0.116955116115811,0.604904284730091,-0.304497050608063
1493003650.3,40.4535500160396,-79.946470982726,5.36999988555908,0.258163452148438,-0.90582275390625,0.37127685546875,-0.0469640468752203,0.375770165597417,-0.175243456578266
1493003650.5,40.4535500160396,-79.946470982726,5.36999988555908,0.292892456054688,-0.92633056640625,0.374847412109375,-0.053809169825051,0.348160908260457,-0.157116650618642
1493003650.7,40.4535500160396,-79.946470982726,5.36999988555908,0.133377075195312,-0.894134521484375,0.351669311523438,-0.0680541521797758,0.335492517271059,-0.134839308100129
1493003650.9,40.4535500160396,-79.946470982726,5.36999988555908,0.1640625,-0.910003662109375,0.488006591796875,-0.00631834968621299,0.293602591220767,-0.155423412797569
1493003651.1,40.4535304862672,-79.9465294816727,7.1100001335144,0.209732055664062,-0.967178344726562,0.43145751953125,-0.0179829952607601,0.177734843778035,-0.144581683999857
1493003651.3,40.4535304862672,-79.9465294816727,7.1100001335144,0.3172607421875,-0.762725830078125,0.298202514648438,-0.149044343038503,0.246659849634267,-0.179154042322938
1493003651.5,40.4535304862672,-79.9465294816727,7.1100001335144,0.198165893554688,-0.975631713867188,0.3787841796875,0.0313115838843886,0.00619904006937744,0.127184051546696
1493003651.7,40.4535304862672,-79.9465294816727,7.1100001335144,0.255111694335938,-0.898605346679688,0.329315185546875,-0.0924529688226458,0.252685251600571,-0.109286277440819
1493003651.9,40.4535304862672,-79.9465294816727,7.1100001335144,-0.0255584716796875,-0.906570434570312,0.35546875,-0.00294785301060871,0.0659726254717699,0.0179252046651053
1493003652.1,40.4535304862672,-79.9465294816727,7.1100001335144,0.0664215087890625,-0.973785400390625,0.216476440429688,-0.277418827592464,0.335785731307077,-0.165771391529181
1493003652.3,40.4535015244373,-79.9466162331468,8.46000003814697,-0.0370025634765625,-0.671051025390625,0.217849731445312,-0.030653250462921,0.160795008716259,-0.161727115097787
1493003652.5,40.4535015244373,-79.9466162331468,8.46000003814697,0.254409790039062,-0.948165893554688,0.178543090820312,0.0122774389413743,0.00950029455663967,0.0416835310658112
1493003652.7,40.4535015244373,-79.9466162331468,8.46000003814697,0.0641021728515625,-0.896469116210938,0.284652709960938,0.087921067595658,-0.185632447990665,0.165576181821278
1493003652.9,40.4535015244373,-79.9466162331468,8.46000003814697,0.04949951171875,-0.964370727539062,0.312911987304688,-0.0334815275405852,0.065103369691968,-0.00797430325202426
1493003653.1,40.4535015244373,-79.9466162331468,8.46000003814697,0.03338623046875,-1.02336120605469,0.16241455078125,-0.0224445890349698,-0.0190016543777154,-0.00444561480766927
1493003653.3,40.4534705305469,-79.9467090713994,9.0,0.106353759765625,-0.867965698242188,0.245803833007812,-0.0227117040923047,-0.0434769037438706,-0.0758215278151009
1493003653.5,40.4534705305469,-79.9467090713994,9.0,0.057647705078125,-0.868484497070312,0.197860717773438,-0.0772069042141602,0.0845247382574799,-0.070312512784163
1493003653.7,40.4534705305469,-79.9467090713994,9.0,0.01324462890625,-0.9942626953125,0.220413208007812,-0.108844192699865,-0.0152340803835803,0.0852882665420056
1493003653.9,40.4534705305469,-79.9467090713994,9.0,0.001800537109375,-0.968246459960938,0.223419189453125,0.0864563289961144,0.0239029360478972,-0.00130894367577395
1493003654.1,40.4534705305469,-79.9467090713994,9.0,-0.0210113525390625,-0.910980224609375,0.245346069335938,0.00358514745946467,-0.0585250954833633,0.0172471638515712
1493003654.3,40.4534410096314,-79.9468001764141,8.68000030517578,0.10198974609375,-0.846359252929688,0.216094970703125,-0.0641869759608718,0.0355143184006427,-0.0370000959727979
1493003654.5,40.4534410096314,-79.9468001764141,8.68000030517578,0.0151214599609375,-1.03657531738281,0.197723388671875,-0.0461081069008689,0.185369593991074,-0.108638064031493
1493003654.7,40.4534410096314,-79.9468001764141,8.68000030517578,0.126953125,-0.887939453125,0.170074462890625,-0.0651491760627174,0.0238174485769056,-0.0508405441579397
1493003654.9,40.4534410096314,-79.9468001764141,8.68000030517578,0.0296783447265625,-0.979934692382812,0.223434448242188,0.0487259942524168,-0.00456918548224895,0.01650387559133
1493003655.1,40.4534410096314,-79.9468001764141,8.68000030517578,-0.0546722412109375,-0.974716186523438,0.108657836914062,0.0438151252023107,-0.0470945417686342,-0.0367473619853494
1493003655.3,40.453412189433,-79.9468908185092,8.3100004196167,-0.205307006835938,-0.983474731445312,0.20086669921875,0.0382355364024856,-0.223610723031849,0.118252075566679
1493003655.5,40.453412189433,-79.9468908185092,8.3100004196167,0.0166015625,-0.95172119140625,0.2130126953125,0.0839415059787526,-0.0462753534173259,0.0660178992103013
1493003655.7,40.453412189433,-79.9468908185092,8.3100004196167,0.086334228515625,-0.935577392578125,-0.302703857421875,0.0748231087224302,0.151597781891671,-0.170219403181832
1493003655.9,40.453412189433,-79.9468908185092,8.3100004196167,0.16845703125,-0.897857666015625,0.102996826171875,-0.0223875973876421,0.104374609442386,-0.096457830469907
1493003656.1,40.453412189433,-79.9468908185092,8.3100004196167,0.1348876953125,-1.04747009277344,0.0849151611328125,-0.0103450492544128,0.014957111630212,-0.0140052978566177
1493003656.3,40.4533856573929,-79.946974264142,7.30999994277954,0.127166748046875,-1.01870727539062,0.0957183837890625,0.0728891211388147,0.029307022531886,-0.0185212201170651
1493003656.5,40.4533856573929,-79.946974264142,7.30999994277954,0.082763671875,-1.03596496582031,0.115478515625,0.0409618144103998,0.00611062312118681,-0.0326490233838264
1493003656.7,40.4533856573929,-79.946974264142,7.30999994277954,-0.031219482421875,-0.9876708984375,0.104721069335938,0.0196235024922489,-0.0841492325437787,0.0761192692249718
1493003656.9,40.4533856573929,-79.946974264142,7.30999994277954,0.1256103515625,-1.06632995605469,0.0846405029296875,-0.00487358479484501,0.0521532162592397,-0.00444934323319538
1493003657.1,40.4533856573929,-79.946974264142,7.30999994277954,0.278366088867188,-0.9339599609375,-0.04779052734375,-0.0679060804231674,0.141900946046583,-0.095954493023882
1493003657.3,40.4533630160717,-79.9470454731169,5.76999998092651,0.0965423583984375,-1.01423645019531,-0.0068817138671875,-0.007763647209799,0.109601862029993,-0.072864886372895
1493003657.5,40.4533630160717,-79.9470454731169,5.76999998092651,-0.0870513916015625,-1.03291320800781,0.108352661132812,0.038179077387376,0.043357327810926,-0.0423695613626156
1493003657.7,40.4533630160717,-79.9470454731169,5.76999998092651,-0.0282745361328125,-0.898147583007812,0.12384033203125,-0.0215961059116706,-0.0647361197776461,0.0639187956391008
1493003657.9,40.4533630160717,-79.9470454731169,5.76999998092651,0.0799713134765625,-0.964309692382812,0.1236572265625,-0.105473163392043,0.0655667597216418,-0.0385665673259825
1493003658.1,40.4533630160717,-79.9470454731169,5.76999998092651,0.1103515625,-0.983322143554688,0.0690155029296875,-0.0460889321410203,-0.0709596609290523,0.0604854483617707
1493003658.3,40.4533456934678,-79.9470999542513,4.07999992370605,0.0763092041015625,-0.916702270507812,0.0493621826171875,0.0137368512187377,0.0828767741749389,-0.0245961568796448
1493003658.5,40.4533456934678,-79.9470999542513,4.07999992370605,0.008209228515625,-1.03489685058594,0.0865936279296875,-0.0153057194169034,0.00542326124383736,0.0318157202787406
1493003658.7,40.4533456934678,-79.9470999542513,4.07999992370605,0.0465240478515625,-0.968307495117188,0.118011474609375,-0.0116547918785138,0.0096494315776841,0.000921986369385432
1493003658.9,40.4533456934678,-79.9470999542513,4.07999992370605,0.0470428466796875,-0.99853515625,0.0499267578125,-0.00961188100631399,6.285060172587e-05,0.00203385612449351
1493003659.1,40.4533456934678,-79.9470999542513,4.07999992370605,0.027496337890625,-1.01406860351562,0.0313873291015625,-0.0460844047671672,-0.0124625286371348,0.014487330013922
1493003659.3,40.4533311506406,-79.9471456927401,2.85999989509583,0.02716064453125,-1.03561401367188,-0.00018310546875,-0.0246752527640202,-0.00515641250261142,0.0104228135582431
1493003659.5,40.4533311506406,-79.9471456927401,2.85999989509583,0.038665771484375,-1.01388549804688,-0.0117340087890625,-0.0294902480148834,0.0235918788325759,-0.01102495428071
1493003659.7,40.4533311506406,-79.9471456927401,2.85999989509583,0.0287017822265625,-0.987518310546875,0.0138092041015625,0.0021374530908976,0.00104981810170924,1.91747598485705e-05
1493003659.9,40.4533311506406,-79.9471456927401,2.85999989509583,0.0247650146484375,-1.00578308105469,0.089202880859375,-0.00326476918032814,-0.00742462680303191,0.0010519486305813
1493003660.1,40.4533311506406,-79.9471456927401,2.85999989509583,0.0394744873046875,-0.973526000976562,0.13519287109375,-0.00746244369051103,-0.00314279640240251,-0.00113450662437376
1493003660.3,40.4533258162464,-79.9471624698858,0.709999978542328,0.0354156494140625,-0.98614501953125,0.119979858398438,-0.0170144035722982,-0.000953411670248367,-0.00230416697513656
1493003660.5,40.4533258162464,-79.9471624698858,0.709999978542328,0.03509521484375,-0.9835205078125,0.116378784179688,-0.0149089084144816,-0.00415825972604972,-0.00227433957092767
1493003660.7,40.4533258162464,-79.9471624698858,0.709999978542328,0.04486083984375,-0.986785888671875,0.119827270507812,-0.0137669449390556,0.00221628265916394,-0.00441152634571626
1493003660.9,40.4533258162464,-79.9471624698858,0.709999978542328,0.055755615234375,-0.943267822265625,0.27276611328125,-0.00856445974958582,-0.00419900609072793,0.000989364344964437
1493003661.1,40.4533258162464,-79.9471624698858,0.709999978542328,0.047119140625,-0.946380615234375,0.1907958984375,-0.0105660916248894,0.00113157714717467,-0.00544216968757692
1493003661.3,40.4533250232553,-79.9471649639134,0.189999997615814,0.052886962890625,-0.95111083984375,0.242141723632812,-0.012839365931381,-0.00629864229414641,0.000951014825267296
1493003661.5,40.4533250232553,-79.9471649639134,0.189999997615814,0.0478515625,-0.962921142578125,0.230072021484375,-0.0106566391019521,-0.00312202374589989,-0.00116726350578173
1493003661.7,40.4533250232553,-79.9471649639134,0.189999997615814,0.0521087646484375,-0.949493408203125,0.227401733398438,-0.014923555800477,-0.00415799340994071,-0.00120827618656895
1493003661.9,40.4533250232553,-79.9471649639134,0.189999997615814,0.0413055419921875,-0.975433349609375,0.1875,0.00297714778259958,-0.00746350895494706,0.0117780962369844
1493003662.1,40.4533250232553,-79.9471649639134,0.189999997615814,0.028411865234375,-0.955215454101562,0.21649169921875,-0.00368155389092554,-0.0297570967561094,0.0192309525475712
1493003662.3,40.453324668814,-79.9471660786629,0.200000002980232,0.051025390625,-0.945693969726562,0.237396240234375,-0.0159416822852143,0.000103330650295074,-0.00229591117575731
1493003662.5,40.453324668814,-79.9471660786629,0.200000002980232,0.0579376220703125,-0.95855712890625,0.230056762695312,-0.0158671137746921,0.00222959846461434,-0.00656549103537235
1493003662.7,40.453324668814,-79.9471660786629,0.200000002980232,0.0491790771484375,-0.954803466796875,0.230499267578125,-0.0128167290621153,-0.00523524207087777,-0.000117711720181502
1493003662.9,40.453324668814,-79.9471660786629,0.200000002980232,0.0521697998046875,-0.948226928710938,0.230819702148438,-0.0106859338739429,-0.00312149111368188,0.000964863262935708
1493003663.1,40.453324668814,-79.9471660786629,0.200000002980232,0.045745849609375,-0.956268310546875,0.229995727539062,-0.0139120872184649,-0.00735538461468985,0.00094275902588805
1493003663.3,40.4533240453177,-79.9471680396143,0.159999996423721,0.0523834228515625,-0.95263671875,0.2340087890625,-0.0138668134799336,-0.00522858416815257,-0.00119469406500955
1493003663.5,40.4533240453177,-79.9471680396143,0.159999996423721,0.0479278564453125,-0.951629638671875,0.230484008789062,-0.0128233869648405,-0.00417130921539111,0.000945688503087137
1493003663.7,40.4533240453177,-79.9471680396143,0.159999996423721,0.0498046875,-0.952728271484375,0.224029541015625,-0.0128020816761199,-0.00523550838698677,-0.00118377510454022
1493003663.9,40.4533240453177,-79.9471680396143,0.159999996423721,0.0466766357421875,-0.952804565429688,0.234817504882812,-0.0128233869648405,-0.00417130921539111,0.000945688503087137
1493003664.1,40.4533240453177,-79.9471680396143,0.159999996423721,0.05194091796875,-0.954742431640625,0.230438232421875,-0.0106726180684925,-0.00524935682465519,-0.00116193718360157
1493003664.3,40.4533241504774,-79.947167708878,0.0,0.0459136962890625,-0.954193115234375,0.230194091796875,-0.0139107556379199,-0.00522778521982554,0.00200349608806661
1493003664.5,40.4533241504774,-79.947167708878,0.0,0.0507049560546875,-0.951385498046875,0.23175048828125,-0.0138734713826588,-0.00416465131266591,-0.000131293841740906
1493003664.7,40.4533241504774,-79.947167708878,0.0,0.0484771728515625,-0.953125,0.232162475585938,-0.0138961082519245,-0.00522805153593455,0.000937432703707892
1493003664.9,40.4533241504774,-79.947167708878,0.0,0.049713134765625,-0.954879760742188,0.230911254882812,-0.0128260501259306,-0.00842650800511972,-0.00117578562126998
1493003665.1,40.4533241504774,-79.947167708878,0.0,0.0498504638671875,-0.953887939453125,0.233779907226562,-0.0128233869648405,-0.00417130921539111,0.000945688503087137
1493003665.3,40.4533241496438,-79.9471677114997,0.0,0.051116943359375,-0.95257568359375,0.231399536132812,-0.0138881187686542,-0.0041643849965569,0.000934769542617813
1493003665.5,40.4533241496438,-79.9471677114997,0.0,0.0518646240234375,-0.954421997070312,0.229476928710938,-0.0128087395788451,-0.00417157553150012,-0.000120374881271582
1493003665.7,40.4533241496438,-79.9471677114997,0.0,0.0493011474609375,-0.953079223632812,0.23291015625,-0.013881460865929,-0.00522831785204356,-0.000128630680650827
1493003665.9,40.4533241496438,-79.9471677114997,0.0,0.0499420166015625,-0.954544067382812,0.230575561523438,-0.0128153974815703,-0.00310764267601346,0.000943025341997058
1493003666.1,40.4533241496438,-79.9471677114997,0.0,0.0475311279296875,-0.953155517578125,0.228713989257812,-0.0138734713826588,-0.00416465131266591,-0.000131293841740906
1493003666.3,40.4533246281808,-79.9471662064582,0.0,0.0477294921875,-0.951522827148438,0.236251831054688,-0.0128167290621153,-0.00523524207087777,-0.000117711720181502
1493003666.5,40.4533246281808,-79.9471662064582,0.0,0.050872802734375,-0.95440673828125,0.228897094726562,-0.013881460865929,-0.00522831785204356,-0.000128630680650827
1493003666.7,40.4533246281808,-79.9471662064582,0.0,0.0503997802734375,-0.951934814453125,0.23480224609375,-0.013881460865929,-0.00522831785204356,-0.000128630680650827
1493003666.9,40.4533246281808,-79.9471662064582,0.0,0.0493621826171875,-0.95343017578125,0.23260498046875,-0.0117373498723062,-0.00524243260582098,-0.0011728561440709
1493003667.1,40.4533246281808,-79.9471662064582,0.0,0.0511627197265625,-0.952896118164062,0.228897094726562,-0.013881460865929,-0.00522831785204356,-0.000128630680650827
1493003667.3,40.4533231880941,-79.9471707356591,0.180000007152557,0.048675537109375,-0.952301025390625,0.2330322265625,-0.0128233869648405,-0.00417130921539111,0.000945688503087137
1493003667.5,40.4533231880941,-79.9471707356591,0.180000007152557,0.052215576171875,-0.954788208007812,0.230682373046875,-0.0149528505724679,-0.0041574607777227,0.000923850582148488
1493003667.7,40.4533231880941,-79.9471707356591,0.180000007152557,0.0491180419921875,-0.952377319335938,0.232025146484375,-0.0128087395788451,-0.00417157553150012,-0.000120374881271582
1493003667.9,40.4533231880941,-79.9471707356591,0.180000007152557,0.05078125,-0.951507568359375,0.232101440429688,-0.0127940921928497,-0.00417184184760913,-0.0011864382656303
1493003668.1,40.4533231880941,-79.9471707356591,0.180000007152557,0.048095703125,-0.95294189453125,0.231887817382812,-0.0138894503491993,-0.00629198439142121,-0.000125967519560748
1493003668.3,40.4533236804253,-79.9471691872336,0.209999993443489,0.049346923828125,-0.955108642578125,0.229522705078125,-0.014923555800477,-0.00415799340994071,-0.00120827618656895
1493003668.5,40.4533236804253,-79.9471691872336,0.209999993443489,0.049346923828125,-0.952789306640625,0.230575561523438,-0.0149155663172068,-0.00309432687056307,-0.00121093934765903
1493003668.7,40.4533236804253,-79.9471691872336,0.209999993443489,0.051361083984375,-0.950851440429688,0.22869873046875,-0.0138734713826588,-0.00416465131266591,-0.000131293841740906
1493003668.9,40.4533236804253,-79.9471691872336,0.209999993443489,0.051055908203125,-0.952590942382812,0.23455810546875,-0.0128153974815703,-0.00310764267601346,0.000943025341997058
1493003669.1,40.4533236804253,-79.9471691872336,0.209999993443489,0.0466156005859375,-0.95587158203125,0.23162841796875,-0.0138441766106679,-0.00416518394488393,-0.00226342061045834
1493003669.3,40.453324000039,-79.94716818202,0.0,0.05316162109375,-0.955398559570312,0.233001708984375,-0.0138961082519245,-0.00522805153593455,0.000937432703707892
1493003669.5,40.453324000039,-79.94716818202,0.0,0.048370361328125,-0.951385498046875,0.235855102539062,-0.013881460865929,-0.00522831785204356,-0.000128630680650827
1493003669.7,40.453324000039,-79.94716818202,0.0,0.051910400390625,-0.953720092773438,0.228515625,-0.0149541821530129,-0.006285060172587,-0.000136886480030073
1493003669.9,40.453324000039,-79.94716818202,0.0,0.050018310546875,-0.954391479492188,0.231796264648438,-0.0149448610891977,-0.00309379423834505,0.000921187421058408
1493003670.1,40.453324000039,-79.94716818202,0.0,0.0516357421875,-0.95458984375,0.2318115234375,-0.013881460865929,-0.00522831785204356,-0.000128630680650827
1493003670.3,40.4533238413843,-79.9471686810034,0.0,0.047821044921875,-0.953659057617188,0.231414794921875,-0.0149461926697427,-0.00522139363320935,-0.000139549641120152
1493003670.5,40.4533238413843,-79.9471686810034,0.0,0.0494384765625,-0.95355224609375,0.23382568359375,-0.0117519972583017,-0.00524216628971197,-0.000106792759712177
1493003670.7,40.4533238413843,-79.9471686810034,0.0,0.049163818359375,-0.956573486328125,0.231353759765625,-0.0117666446442971,-0.00524189997360296,0.000959270624646542
1493003670.9,40.4533238413843,-79.9471686810034,0.0,0.0504913330078125,-0.957305908203125,0.231414794921875,-0.0138734713826588,-0.00416465131266591,-0.000131293841740906
1493003671.1,40.4533238413843,-79.9471686810034,0.0,0.048553466796875,-0.955322265625,0.233016967773438,-0.0138734713826588,-0.00416465131266591,-0.000131293841740906
1493003671.3,40.4533238406005,-79.9471686834682,0.0,0.0498809814453125,-0.954391479492188,0.234298706054688,-0.0106952549377582,-0.00631275704792383,-9.32106381527733e-05
1493003671.5,40.4533238406005,-79.9471686834682,0.0,0.0507354736328125,-0.953842163085938,0.231674194335938,-0.0159949455070159,-0.00308713633561985,-0.000155794923769635
1493003671.7,40.4533238406005,-79.9471686834682,0.0,0.0508575439453125,-0.951202392578125,0.231658935546875,-0.0149382031864725,-0.00415772709383171,-0.000142212802210231
1493003671.9,40.4533238406005,-79.9471686834682,0.0,0.0540924072265625,-0.9564208984375,0.226898193359375,-0.0170676667940998,-0.00414387865616329,-0.000164050723148881
1493003672.1,40.4533238406005,-79.9471686834682,0.0,0.05230712890625,-0.953323364257812,0.232894897460938,-0.0138894503491993,-0.00629198439142121,-0.000125967519560748
1493003672.3,40.4533238398789,-79.9471686857379,0.0,0.04766845703125,-0.9547119140625,0.236068725585938,-0.0138961082519245,-0.00522805153593455,0.000937432703707892
1493003672.5,40.4533238398789,-79.9471686857379,0.0,0.052093505859375,-0.954360961914062,0.233627319335938,-0.0138654818993885,-0.00310098477328826,-0.000133957002830986
1493003672.7,40.4533238398789,-79.9471686857379,0.0,0.0483245849609375,-0.953414916992188,0.233139038085938,-0.0170610088913746,-0.00520781151164995,-0.00122745094641752
1493003672.9,40.4533238398789,-79.9471686857379,0.0,0.0530242919921875,-0.953201293945312,0.23321533203125,-0.0149608400557381,-0.00522112731710035,0.000926513743238567
1493003673.1,40.4533238398789,-79.9471686857379,0.0,0.047119140625,-0.958328247070312,0.233001708984375,-0.013881460865929,-0.00522831785204356,-0.000128630680650827
1493003673.3,40.4533238391869,-79.9471686879142,0.0,0.0485687255859375,-0.953292846679688,0.239532470703125,-0.0149089084144816,-0.00415825972604972,-0.00227433957092767
1493003673.5,40.4533238391869,-79.9471686879142,0.0,0.053009033203125,-0.9525146484375,0.226791381835938,-0.0117506656777566,-0.00311456689484767,0.000953944302466383
1493003673.7,40.4533238391869,-79.9471686879142,0.0,0.0477142333984375,-0.951675415039062,0.231460571289062,-0.0138734713826588,-0.00416465131266591,-0.000131293841740906
1493003673.9,40.4533238391869,-79.9471686879142,0.0,0.0506744384765625,-0.952117919921875,0.234832763671875,-0.0138961082519245,-0.00522805153593455,0.000937432703707892
1493003674.1,40.4533238391869,-79.9471686879142,0.0,0.0464019775390625,-0.955764770507812,0.231842041015625,-0.0127940921928497,-0.00417184184760913,-0.0011864382656303
1493003674.3,40.4533238385044,-79.9471686900609,0.0,0.051849365234375,-0.951507568359375,0.232681274414062,-0.013881460865929,-0.00522831785204356,-0.000128630680650827
1493003674.5,40.4533238385044,-79.9471686900609,0.0,0.0471954345703125,-0.949844360351562,0.236251831054688,-0.0128167290621153,-0.00523524207087777,-0.000117711720181502
1493003674.7,40.4533238385044,-79.9471686900609,0.0,0.0506439208984375,-0.956878662109375,0.231124877929688,-0.0149834769250038,-0.00628452754036899,0.00199524028868737
1493003674.9,40.4533238385044,-79.9471686900609,0.0,0.048126220703125,-0.953262329101562,0.234832763671875,-0.0138588239966633,-0.00416491762877492,-0.00119735722609963
1493003675.1,40.4533238385044,-79.9471686900609,0.0,0.052703857421875,-0.948196411132812,0.233230590820312,-0.012838034350836,-0.0041710428992821,0.00201175188744586
1493003675.3,40.4533238378266,-79.9471686921924,0.0,0.056915283203125,-0.942108154296875,0.26458740234375,-0.0169984246057578,0.00117392140850693,-0.00230949329731672
1493003675.5,40.4533238378266,-79.9471686921924,0.0,0.051788330078125,-0.950469970703125,0.26275634765625,-0.00966780738920565,-0.00738281517391766,0.00205249825212407
1493003675.7,40.4533238378266,-79.9471686921924,0.0,0.0536346435546875,-0.933319091796875,0.2633056640625,-0.0181683512726296,-0.00307248894962442,0.00302055730836787
1493003675.9,40.4533238378266,-79.9471686921924,0.0,0.044830322265625,-0.963134765625,0.208663940429688,-0.0128153974815703,-0.00310764267601346,0.000943025341997058
1493003676.1,40.4533238378266,-79.9471686921924,0.0,0.0382537841796875,-0.9873046875,0.121917724609375,-0.0298511063425892,-0.00299685517466617,0.00076832197448786
1493003676.3,40.4533266244987,-79.9471599278601,0.200000002980232,0.0649871826171875,-0.927413940429688,0.279693603515625,-0.000944889554760114,0.00425999247969075,-0.00641795191098196
1493003676.5,40.4533266244987,-79.9471599278601,0.200000002980232,0.044342041015625,-0.971298217773438,0.208084106445312,-0.0150726928215215,-0.00841052903857924,0.00733088353266112
1493003676.7,40.4533266244987,-79.9471599278601,0.200000002980232,0.053131103515625,-0.936599731445312,0.244216918945312,-0.0138428450301229,-0.00203758455001963,-0.00120268354827978
1493003676.9,40.4533266244987,-79.9471599278601,0.200000002980232,0.0485382080078125,-0.96331787109375,0.23187255859375,-0.00957725991214296,-0.0031292142808431,-0.00222240792967112
1493003677.1,40.4533266244987,-79.9471599278601,0.200000002980232,0.05352783203125,-0.962783813476562,0.22821044921875,-0.0128553448979215,-0.0084259753729017,0.000956341147447454
1493003677.3,40.4533254717657,-79.9471635533082,0.0,0.070831298828125,-0.950302124023438,0.205352783203125,-0.0204402939985762,-0.0200770388258894,0.00410739334922921
1493003677.5,40.4533254717657,-79.9471635533082,0.0,0.084991455078125,-0.943832397460938,0.228866577148438,-0.0104076335400297,0.00857537871005515,-0.0129232555057185
1493003677.7,40.4533254717657,-79.9471635533082,0.0,0.050537109375,-0.955474853515625,0.229507446289062,-0.0097197390304622,-0.00844568276496829,0.00525335156629031
1493003677.9,40.4533254717657,-79.9471635533082,0.0,0.0554656982421875,-0.950302124023438,0.230239868164062,-0.0149621716362832,-0.00734872671196465,-0.000134223318939994
1493003678.1,40.4533254717657,-79.9471635533082,0.0,0.056304931640625,-0.949752807617188,0.232696533203125,-0.0116840866505046,-0.00205196561990605,-0.00331297239605857
1493003678.3,40.4533254711019,-79.9471635553959,0.0,0.0417022705078125,-0.95941162109375,0.228561401367188,-0.0139187451211901,-0.00629145175920319,0.00200615924915669
1493003678.5,40.4533254711019,-79.9471635553959,0.0,0.053741455078125,-0.955108642578125,0.235870361328125,-0.0138881187686542,-0.0041643849965569,0.000934769542617813
1493003678.7,40.4533254711019,-79.9471635553959,0.0,0.049346923828125,-0.953399658203125,0.207992553710938,-0.0192490620429837,-0.00519289780954551,0.00301496467007871
1493003678.9,40.4533254711019,-79.9471635553959,0.0,0.084747314453125,-0.925704956054688,0.32476806640625,0.000308926686449192,0.0138239365863833,-0.0149595084751931
1493003679.1,40.4533254711019,-79.9471635553959,0.0,0.0546417236328125,-0.923095703125,0.359970092773438,-0.00320884279743647,2.1038972611626e-05,0.00103330650295074
1493003679.3,40.4533258548066,-79.9471623486106,0.0,0.0553131103515625,-0.914688110351562,0.418228149414062,0.00517319041747892,-0.00641475611767386,0.00753301745939813
1493003679.5,40.4533258548066,-79.9471623486106,0.0,0.075408935546875,-0.895660400390625,0.434280395507812,-0.00733194879709715,0.00642913718756029,-0.00542272861161934
1493003679.7,40.4533258548066,-79.9471623486106,0.0,0.0712127685546875,-0.892562866210938,0.435272216796875,-0.00334333243248548,-0.0159336928019441,0.00213931730366065
1493003679.9,40.4533258548066,-79.9471623486106,0.0,0.0930328369140625,-0.888412475585938,0.436264038085938,0.000109189604693249,-0.00106579706824971,-0.00852584391377967
1493003680.1,40.4533258548066,-79.9471623486106,0.0,0.06243896484375,-0.861221313476562,0.467575073242188,-0.0206626679495978,-0.0243282428739828,0.0179768699902529
1493003680.3,40.4533200312066,-79.9471806643518,1.70000004768372,0.069244384765625,-0.899017333984375,0.418075561523438,-0.00490554272792596,0.0127927606123046,-0.0235399471913194
1493003680.5,40.4533200312066,-79.9471806643518,1.70000004768372,0.0738525390625,-0.87506103515625,0.411972045898438,-0.0158058610696203,0.0181856618197151,-0.00234118491428866
1493003680.7,40.4533200312066,-79.9471806643518,1.70000004768372,0.0276641845703125,-0.867034912109375,0.456924438476562,-0.0255900485984624,-0.0157778978781744,0.0712150580775909
1493003680.9,40.4533200312066,-79.9471806643518,1.70000004768372,0.0858612060546875,-0.87982177734375,0.35614013671875,-0.013376791839359,0.028804484034188,-0.0183369293696316
1493003681.1,40.4533200312066,-79.9471806643518,1.70000004768372,0.0611419677734375,-0.861236572265625,0.4840087890625,-0.00925102267860825,-0.00845420488045654,-0.0288606767331887
1493003681.3,40.4533095977877,-79.9472134783853,3.50999999046326,-0.0018310546875,-0.889877319335938,0.475540161132812,0.0422957918004204,-0.0640879063683208,0.0645712701061702
1493003681.5,40.4533095977877,-79.9472134783853,3.50999999046326,0.163299560546875,-0.880294799804688,0.485733032226562,0.065537997581869,-0.0344626360861704,0.0167531474693615
1493003681.7,40.4533095977877,-79.9472134783853,3.50999999046326,0.0980224609375,-0.93377685546875,0.432586669921875,-0.0078107851610934,0.0415311982514587,-0.0289749263439531
1493003681.9,40.4533095977877,-79.9472134783853,3.50999999046326,-0.0110931396484375,-0.886993408203125,0.432205200195312,0.0291240633649975,-0.0469890805894671,0.0249423678213551
1493003682.1,40.4533095977877,-79.9472134783853,3.50999999046326,0.130096435546875,-0.922088623046875,0.495742797851562,-0.00141706801603116,0.00319233119867798,-0.0501348064690687
1493003682.3,40.4532925977302,-79.9472669450824,5.80999994277954,-0.053131103515625,-0.903915405273438,0.468994140625,-0.0401333049952761,-0.0954610092738903,0.0787352923637566
1493003682.5,40.4532925977302,-79.9472669450824,5.80999994277954,-0.0709381103515625,-1.02273559570312,0.371856689453125,0.0901362849903859,-0.102682969517967,0.127001092379808
1493003682.7,40.4532925977302,-79.9472669450824,5.80999994277954,0.0077056884765625,-0.89642333984375,0.414031982421875,-0.0155123807174935,0.0702946696048595,-0.0728427821358473
1493003682.9,40.4532925977302,-79.9472669450824,5.80999994277954,0.119308471679688,-0.86956787109375,0.431259155273438,-0.0302998489862675,-0.0646897807746787,-0.000143278066646263
1493003683.1,40.4532925977302,-79.9472669450824,5.80999994277954,0.194488525390625,-0.907684326171875,0.307418823242188,0.0222786740990579,0.0509065905529736,-0.0436180512816448
1493003683.3,40.4532684287462,-79.947342958693,7.30999994277954,0.236740112304688,-0.906951904296875,0.439132690429688,-0.0283368329467701,-0.0264033779953726,0.0328306509701698
1493003683.5,40.4532684287462,-79.947342958693,7.30999994277954,0.04107666015625,-0.986297607421875,0.376632690429688,0.111150490203874,-0.0783611182306005,0.0834387011649456
1493003683.7,40.4532684287462,-79.947342958693,7.30999994277954,0.07568359375,-0.92791748046875,0.365737915039062,-0.0309379423834505,0.0714648625878403,-0.0346200289065941
1493003683.9,40.4532684287462,-79.947342958693,7.30999994277954,0.046844482421875,-1.05607604980469,0.3582763671875,-0.0154141100732696,-0.0903053957196059,0.0651142886524374
1493003684.1,40.4532684287462,-79.947342958693,7.30999994277954,0.0550689697265625,-0.886871337890625,0.286727905273438,0.0513417510750926,-0.102437692381571,0.0828884920837352
1493003684.3,40.4532488951604,-79.947404393563,8.8100004196167,0.045013427734375,-0.85845947265625,0.308197021484375,-0.0762486988539497,0.11324266955624,-0.046920104717234
1493003684.5,40.4532488951604,-79.947404393563,8.8100004196167,-0.13653564453125,-1.3377685546875,0.250717163085938,-0.0699702965840879,0.164253656023945,-0.0885698136372013
1493003684.7,40.4532488951604,-79.947404393563,8.8100004196167,-0.070587158203125,-1.08221435546875,0.440322875976562,0.109582420954035,-0.0868555368435173,0.115430989023958
1493003684.9,40.4532488951604,-79.947404393563,8.8100004196167,0.266647338867188,-0.916458129882812,0.315292358398438,0.0161036024794911,-0.132006503648612,-0.00375931819475585
1493003685.1,40.4532488951604,-79.947404393563,8.8100004196167,0.255996704101562,-0.879074096679688,0.336166381835938,0.017308416556643,-0.116033928694752,0.149746618617956
1493003685.3,40.4532104319649,-79.947535375609,9.97999954223633,0.31915283203125,-1.27764892578125,0.1109619140625,0.0286076764296312,0.217872143514946,-0.0258584952363424
1493003685.5,40.4532104319649,-79.947535375609,9.97999954223633,-0.282791137695312,-0.843597412109375,0.477981567382812,0.0714238499070531,-0.034482609794346,0.13089836231903
1493003685.7,40.4532104319649,-79.947535375609,9.97999954223633,-0.718246459960938,-1.324951171875,0.696853637695312,0.126702285705501,0.293777294588276,-0.303331917631153
1493003685.9,40.4532104319649,-79.947535375609,9.97999954223633,-0.192703247070312,-0.864776611328125,0.364059448242188,0.0198575943520668,0.321071766284389,-0.262913920715348
1493003686.1,40.4532104319649,-79.947535375609,9.97999954223633,0.0528717041015625,-1.0030517578125,0.373779296875,-0.163518357246974,0.207400327792646,-0.154677994008456
1493003686.3,40.4531762056333,-79.9476506348038,10.9399995803833,0.170822143554688,-0.657470703125,0.361541748046875,0.130491697620575,-0.285907387250983,0.112960108164583
1493003686.5,40.4531762056333,-79.9476506348038,10.9399995803833,-0.374649047851562,-1.28535461425781,0.654144287109375,-0.49078117411747,0.625359226114663,-0.678353468646149
1493003686.7,40.4531762056333,-79.9476506348038,10.9399995803833,0.420166015625,-0.964508056640625,0.191070556640625,-0.0145075700382067,0.103267000745022,-0.0505270900976374
1493003686.9,40.4531762056333,-79.9476506348038,10.9399995803833,0.0760345458984375,-0.917694091796875,0.310592651367188,-0.0381966542505705,0.0427868787054311,-0.0644743310424913
1493003687.1,40.4531762056333,-79.9476506348038,10.9399995803833,0.022308349609375,-0.902175903320312,0.31231689453125,-0.100049369515988,-0.0291240633649975,0.0576925913266046
1493003687.3,40.4531387168298,-79.9477768805661,11.7399997711182,-0.0102081298828125,-1.05564880371094,0.300247192382812,-0.00320617963634639,0.0276800974219566,0.0158889516956307
1493003687.5,40.4531387168298,-79.9477768805661,11.7399997711182,-0.0594024658203125,-0.83172607421875,0.308517456054688,-0.00111772870950626,-0.175496190565715,0.0633480802174968
1493003687.7,40.4531387168298,-79.9477768805661,11.7399997711182,0.090850830078125,-0.8912353515625,0.273696899414062,0.0476420876887545,-0.109866846558456,0.0380887962264223
1493003687.9,40.4531387168298,-79.9477768805661,11.7399997711182,0.0279693603515625,-0.98455810546875,0.316635131835938,0.0927733471017823,0.0781046558176259,-0.0440327054633701
1493003688.1,40.4531387168298,-79.9477768805661,11.7399997711182,-0.0482025146484375,-0.819839477539062,0.263214111328125,-0.0222065024335167,-0.166838520177976,0.130281307894458
1493003688.3,40.4530979192614,-79.9479174283223,12.5600004196167,0.0884857177734375,-0.972274780273438,0.281600952148438,-0.0340381282084118,-0.028501948934355,-0.0184005789196845
1493003688.5,40.4530979192614,-79.9479174283223,12.5600004196167,0.08282470703125,-0.944854736328125,0.40283203125,0.0888081665547634,-0.0186674276609104,-0.0406249245325047
1493003688.7,40.4530979192614,-79.9479174283223,12.5600004196167,0.0084991455078125,-1.04594421386719,0.304000854492188,0.0940647139143617,-0.00166740515849861,0.0510794297077198
1493003688.9,40.4530979192614,-79.9479174283223,12.5600004196167,0.011077880859375,-1.0709228515625,0.208511352539062,-0.035456527804988,0.066178221507924,-0.0186594381776402
1493003689.1,40.4530979192614,-79.9479174283223,12.5600004196167,0.0574798583984375,-0.73895263671875,0.283340454101562,0.114975055845337,0.00882678111695863,0.00755165958702869
1493003689.3,40.4530566927973,-79.9480596469717,13.1000003814697,0.014007568359375,-0.99945068359375,0.228591918945312,-0.237680735702956,-0.312201309325553,0.309706726332476
1493003689.5,40.4530566927973,-79.9480596469717,13.1000003814697,0.201950073242188,-1.19117736816406,0.212051391601562,0.298368850623682,-0.252977933004371,0.00370765286960832
1493003689.7,40.4530566927973,-79.9480596469717,13.1000003814697,0.215927124023438,-0.935806274414062,0.348953247070312,0.217658824311631,-0.0535351305488819,0.0183598325550063
1493003689.9,40.4530566927973,-79.9480596469717,13.1000003814697,0.211929321289062,-0.881988525390625,0.328781127929688,-0.0765429781544034,0.157928115802789,-0.00119123195559244
1493003690.1,40.4530566927973,-79.9480596469717,13.1000003814697,0.396453857421875,-0.868637084960938,0.18157958984375,0.0624183706809502,-0.0323155956153485,0.0124508107283385
1493003690.3,40.4530132379187,-79.9482095529673,13.4799995422363,0.0345458984375,-1.09977722167969,0.374298095703125,-0.483358145211093,-0.10535332114299,0.0113163041039647
1493003690.5,40.4530132379187,-79.9482095529673,13.4799995422363,-0.0181884765625,-1.06289672851562,0.297683715820312,0.0984884908010924,0.118487765323151,-0.0504756910885988
1493003690.7,40.4530132379187,-79.9482095529673,13.4799995422363,-0.052215576171875,-1.25689697265625,0.329238891601562,0.128800856644483,0.0906132571416191,-0.17910530647499
1493003690.9,40.4530132379187,-79.9482095529673,13.4799995422363,0.074127197265625,-0.719070434570312,0.331573486328125,0.117362846078702,0.0471054607291036,0.00960975047744192
1493003691.1,40.4530132379187,-79.9482095529673,13.4799995422363,0.0135345458984375,-1.18136596679688,0.114852905273438,0.244703225181386,-0.0281845001324176,0.00151187655083798
1493003691.3,40.4529698253299,-79.9483617827761,13.9899997711182,-0.114730834960938,-1.06071472167969,0.615524291992188,0.153488359949518,0.118134363846498,-0.023256320535226
1493003691.5,40.4529698253299,-79.9483617827761,13.9899997711182,0.219741821289062,-0.888229370117188,0.130081176757812,0.013108611517588,0.215827368429984,-0.139030591023696
1493003691.7,40.4529698253299,-79.9483617827761,13.9899997711182,0.0279083251953125,-0.979324340820312,0.263595581054688,-0.128759311331478,0.0593461480474348,0.0251839165322253
1493003691.9,40.4529698253299,-79.9483617827761,13.9899997711182,0.0516815185546875,-0.989593505859375,0.159210205078125,0.0282862328860586,-0.00763767969023825,-0.0476703171963094
1493003692.1,40.4529698253299,-79.9483617827761,13.9899997711182,0.07232666015625,-0.828475952148438,0.247268676757812,-0.0584430701217889,0.0120806313368174,-0.00276196436652118
1493003692.3,40.4529266068174,-79.9485163212339,13.9799995422363,0.306503295898438,-0.970565795898438,0.294326782226562,-0.084729801661416,0.0154391437875164,-0.0254302589330576
1493003692.5,40.4529266068174,-79.9485163212339,13.9799995422363,-0.1331787109375,-1.0494384765625,0.339736938476562,0.117038739374039,-0.27514901539539,0.322838773667657
1493003692.7,40.4529266068174,-79.9485163212339,13.9799995422363,-0.0406341552734375,-1.07302856445312,0.223587036132812,-0.00517425568191495,0.205310278969152,-0.131727138050262
1493003692.9,40.4529266068174,-79.9485163212339,13.9799995422363,0.05694580078125,-1.03163146972656,0.243270874023438,-0.227068305075099,0.0259351942757367,-0.0461065090042148
1493003693.1,40.4529266068174,-79.9485163212339,13.9799995422363,0.08184814453125,-0.730255126953125,0.19976806640625,-0.258647270332932,-0.0185313401292074,-0.0196597214830739
1493003693.3,40.452883248775,-79.9486713586156,13.6599998474121,0.15728759765625,-0.817535400390625,0.0620880126953125,-0.0508453378479018,-0.0656162945179173,0.0220392559170597
1493003693.5,40.452883248775,-79.9486713586156,13.6599998474121,0.0925445556640625,-0.935638427734375,0.043182373046875,0.38679165776871,-0.178010480950858,0.119570606622378
1493003693.7,40.452883248775,-79.9486713586156,13.6599998474121,-0.005096435546875,-0.91796875,-0.01654052734375,0.100498378475775,-0.0697937290038156,0.0108049771746695
1493003693.9,40.452883248775,-79.9486713586156,13.6599998474121,0.033050537109375,-0.943832397460938,0.172897338867188,-0.0396227770143079,-0.000803475700876906,0.0155896123891058
1493003694.1,40.452883248775,-79.9486713586156,13.6599998474121,0.121902465820312,-1.05453491210938,0.218246459960938,-0.0652045698133911,0.0801880467383949,-0.093635146030532
1493003694.3,40.4528416925491,-79.9488199531574,13.3000001907349,0.040252685546875,-1.01844787597656,0.23828125,-0.0326591433959687,0.0172293206722676,-0.0163720491173711
1493003694.5,40.4528416925491,-79.9488199531574,13.3000001907349,0.027587890625,-1.00228881835938,0.2384033203125,-0.0599858393412718,-0.0496048374121429,-0.00155235659940719
1493003694.7,40.4528416925491,-79.9488199531574,13.3000001907349,0.14044189453125,-0.905181884765625,0.168975830078125,0.0546046560426577,0.177273051645015,-0.0798644726659502
1493003694.9,40.4528416925491,-79.9488199531574,13.3000001907349,-0.0049591064453125,-0.799072265625,0.137786865234375,-0.0910215197367282,-0.12705941560768,-0.0325904338398447
1493003695.1,40.4528416925491,-79.9488199531574,13.3000001907349,0.0796356201171875,-1.15568542480469,0.18170166015625,-0.00580489222804572,0.243606535444491,-0.142494564653562
1493003695.3,40.452801174196,-79.9489648365291,13.0100002288818,0.176620483398438,-1.01617431640625,0.183990478515625,-0.0284103361928563,0.0991028820645737,-0.0485262571706608
1493003695.5,40.452801174196,-79.9489648365291,13.0100002288818,0.123367309570312,-0.914520263671875,0.176177978515625,-0.024803883444671,0.0278116575798065,-0.0397756424608785
1493003695.7,40.452801174196,-79.9489648365291,13.0100002288818,0.0068511962890625,-1.05464172363281,0.124404907226562,0.131364948142012,-0.0285056773598811,0.0344711582016586
1493003695.9,40.452801174196,-79.9489648365291,13.0100002288818,0.00201416015625,-0.986373901367188,0.107925415039062,0.0282918255243478,-0.112930280760374,0.0496269416491906
1493003696.1,40.452801174196,-79.9489648365291,13.0100002288818,0.0789794921875,-1.04200744628906,0.07275390625,0.0811838026699755,0.0281794401263464,-0.0802738005254954
1493003696.3,40.452770092582,-79.9490759765112,12.7399997711182,-0.093902587890625,-0.934173583984375,0.215896606445312,-0.0494317319412878,0.000326769865752723,0.0325456927335313
1493003696.5,40.452770092582,-79.9490759765112,12.7399997711182,-0.106689453125,-0.828811645507812,0.078765869140625,-0.00170548836208674,0.155310228451241,-0.0238749728564514
1493003696.7,40.452770092582,-79.9490759765112,12.7399997711182,0.152725219726562,-1.0572509765625,0.241439819335938,-0.000930508484873686,0.164870444132407,-0.0750699837554806
1493003696.9,40.452770092582,-79.9490759765112,12.7399997711182,0.043914794921875,-0.65087890625,0.149490356445312,-0.0736289472896387,-0.0601565479671459,-0.0219228757774233
1493003697.1,40.452770092582,-79.9490759765112,12.7399997711182,-0.237228393554688,-1.02621459960938,0.0880889892578125,0.060196229067388,-0.0355039320723914,-0.0600662668061922
1493003697.3,40.4527184594212,-79.9492458177688,11.9899997711182,0.185455322265625,-1.07382202148438,0.116729736328125,0.045104095169909,0.0464974610522385,-0.0796242555356251
1493003697.5,40.4527184594212,-79.9492458177688,11.9899997711182,0.142181396484375,-1.00852966308594,0.06591796875,0.0256683455345107,0.255109260824761,-0.101685882005841
1493003697.7,40.4527184594212,-79.9492458177688,11.9899997711182,-0.0579986572265625,-1.02157592773438,0.125762939453125,0.0691950503907658,-0.0483089432257104,0.0530775994736062
