timestamp,latitude,longitude,speed,accelerometerX,accelerometerY,accelerometerZ,gyroX,gyroY,gyroZ
1490546494.0,40.4632058926303,-79.9550663028657,11.7200002670288,0.143722534179688,-1.05293273925781,0.239669799804688,-100.0,-100.0,-100.0
1490546494.1,40.4632058926303,-79.9550663028657,11.7200002670288,0.0238189697265625,-0.945816040039062,0.27716064453125,-0.0362565413964478,-0.0540344732532717,0.0269977955506783
1490546494.3,40.4632058926303,-79.9550663028657,11.7200002670288,0.042999267578125,-0.975143432617188,0.172637939453125,0.0360922243571899,-0.0235956072581021,-0.0111778197272806
1490546494.6,40.4632058926303,-79.9550663028657,11.7200002670288,0.074310302734375,-0.96649169921875,0.214981079101562,-0.0872978879005794,0.00569889841666056,0.0160543339993247
1490546494.7,40.4632305354257,-79.9549954757839,14.9899997711182,-0.125,-1.21446228027344,0.182907104492188,0.265020214821491,-0.11409381584063,0.149926648307646
1490546494.9,40.4632305354257,-79.9549954757839,14.9899997711182,0.0424957275390625,-0.509613037109375,0.345703125,-0.155408765411574,-0.221968085271488,-0.0059958408782044
1490546495.1,40.4632305354257,-79.9549954757839,14.9899997711182,-0.133621215820312,-0.835403442382812,0.311325073242188,-0.0187691604145514,0.0523929007573469,0.0355508037075768
1490546495.3,40.46328296423,-79.9548284244537,16.3999996185303,0.155319213867188,-0.9937744140625,0.154006958007812,0.0181896565613502,0.158197894021214,-0.0723841857961357
1490546495.5,40.46328296423,-79.9548284244537,16.3999996185303,0.081268310546875,-0.985748291015625,0.166793823242188,0.0287341765814099,0.0349052534593415,-0.025879534208954
1490546495.7,40.46328296423,-79.9548284244537,16.3999996185303,0.05615234375,-0.94232177734375,0.285186767578125,0.00411591546471746,0.0211175358637833,-0.0330626123011157
1490546495.9,40.46328296423,-79.9548284244537,16.3999996185303,0.0987396240234375,-0.954391479492188,0.24505615234375,-0.0129501534327283,0.0063050338807626,-0.0264808759830939
1490546496.1,40.463296558226,-79.9546342201831,15.8699998855591,0.164230346679688,-1.00668334960938,0.251968383789062,0.0179979089628645,0.119836656415277,-0.0810011098191961
1490546496.3,40.463296558226,-79.9546342201831,15.8699998855591,0.00048828125,-1.03889465332031,0.311447143554688,-0.0139749378201908,-0.0658674306087118,0.0170892383989295
1490546496.5,40.463296558226,-79.9546342201831,15.8699998855591,0.054443359375,-0.910476684570312,0.279739379882812,-0.110868994076653,0.0131309820707447,-0.00495667542085548
1490546496.7,40.463296558226,-79.9546342201831,15.8699998855591,0.159133911132812,-0.9385986328125,0.240570068359375,-0.153628708538965,0.0822173754890353,-0.057574080658096
1490546496.9,40.463296558226,-79.9546342201831,15.8699998855591,0.042510986328125,-0.946929931640625,0.28948974609375,-0.0375558976922974,0.00633006759500934,-0.0389644435928403
1490546497.1,40.463296558226,-79.9546342201831,15.8699998855591,0.0120391845703125,-0.967514038085938,0.202728271484375,0.0276326931545532,-0.0468777604559018,0.0112710303654334
1490546497.3,40.463296558226,-79.9546342201831,15.8699998855591,0.0243072509765625,-0.987014770507812,0.279983520507812,0.0148982557701213,-0.0117511983099746,0.00191614440431201
1490546497.5,40.4633185984134,-79.9544203297719,15.6400003433228,0.053192138671875,-1.01565551757812,0.267654418945312,-0.0694967865422718,-0.010518687357486,-0.0236667136592072
1490546497.7,40.4633185984134,-79.9544203297719,15.6400003433228,-0.079986572265625,-1.01570129394531,0.379440307617188,-0.0410172081610734,-0.142501755188505,-0.000871386308673927
1490546497.9,40.4633185984134,-79.9544203297719,15.6400003433228,0.0547027587890625,-1.02317810058594,0.290725708007812,-0.0808029706340942,0.0304761502504308,-0.140733682540801
1490546498.1,40.4633448690182,-79.9542471277814,15.3500003814697,0.0384674072265625,-0.866012573242188,0.247314453125,-0.0893621040614998,0.00256861887138143,0.0278039344126453
1490546498.3,40.4633448690182,-79.9542471277814,15.3500003814697,-0.0390472412109375,-1.44973754882812,0.29644775390625,0.182006287850413,0.0331369144955289,-0.0630266366739243
1490546498.5,40.4633448690182,-79.9542471277814,15.3500003814697,0.11981201171875,-0.9273681640625,0.168899536132812,-0.154037237450183,0.178557494238761,-0.168254256613462
1490546498.7,40.4633448690182,-79.9542471277814,15.3500003814697,-0.043548583984375,-0.919357299804688,0.0596771240234375,-0.117843546655461,-0.0392837566075408,-0.0636407616212965
1490546498.9,40.4633448690182,-79.9542471277814,15.3500003814697,0.108261108398438,-0.947769165039062,0.0035400390625,-0.0951883015782662,0.0617014477155008,-0.076494242306455
1490546499.1,40.4633448690182,-79.9542471277814,15.3500003814697,0.24652099609375,-0.831985473632812,-0.0962982177734375,-0.112551046621147,-0.0255250674678645,-0.0764734696499523
1490546499.3,40.4633637191687,-79.9540456457776,14.5500001907349,0.239044189453125,-1.02362060546875,0.210906982421875,0.0595797072750347,0.018820026791372,-0.0284420278098282
1490546499.5,40.4633637191687,-79.9540456457776,14.5500001907349,0.339340209960938,-0.934661865234375,0.300827026367188,-0.048127315639367,0.144469564917964,-0.097165166055432
1490546499.7,40.4633637191687,-79.9540456457776,14.5500001907349,0.406692504882812,-1.09684753417969,0.167526245117188,0.104669421375057,0.266294271086985,-0.110561398970749
1490546499.9,40.4633637191687,-79.9540456457776,14.5500001907349,0.156600952148438,-0.885635375976562,0.291107177734375,-0.0294396479541719,0.117195599562245,0.00064395235158116
1490546500.1,40.4633637191687,-79.9540456457776,14.5500001907349,0.43359375,-0.863357543945312,0.14666748046875,-0.00916979626536083,0.34861657512297,-0.117454192504092
1490546500.3,40.4633672585514,-79.9539567137993,12.5200004577637,-0.0479736328125,-0.815643310546875,0.207839965820312,-0.148239003124863,-0.0749120583028389,0.0326413002166652
1490546500.5,40.4633672585514,-79.9539567137993,12.5200004577637,0.053314208984375,-0.678619384765625,0.411972045898438,-0.223998745602674,-0.152518436680511,0.222182203423131
1490546500.7,40.4633672585514,-79.9539567137993,12.5200004577637,0.330322265625,-0.839370727539062,0.38275146484375,-0.157980313760154,0.446382550320323,-0.259300277432219
1490546500.9,40.4633672585514,-79.9539567137993,12.5200004577637,0.143875122070312,-1.05302429199219,0.26361083984375,0.0406547519367136,0.147555902305257,-0.0556321035912102
1490546501.1,40.4633672585514,-79.9539567137993,12.5200004577637,0.0264434814453125,-0.892257690429688,0.332763671875,-0.069203306190145,-0.0209305819552598,0.0253604841124976
1490546501.3,40.4633899022194,-79.9538329287135,12.1599998474121,0.2353515625,-0.890731811523438,0.242828369140625,-0.0532586944277316,0.182854504657604,-0.0874140017241069
1490546501.5,40.4633899022194,-79.9538329287135,12.1599998474121,-0.0190582275390625,-0.945510864257812,0.320968627929688,0.0116814234894146,-0.0457320685549497,0.0168088075361441
1490546501.7,40.4633899022194,-79.9538329287135,12.1599998474121,0.0981292724609375,-0.89935302734375,0.19573974609375,-0.0145634964210983,0.0151722950462904,0.0460758826516789
1490546501.9,40.4633899022194,-79.9538329287135,12.1599998474121,0.0846405029296875,-0.968719482421875,0.257247924804688,-0.00627573910877172,0.0733743490894271,-0.0200133892758365
1490546502.1,40.4633899022194,-79.9538329287135,12.1599998474121,-0.0860748291015625,-0.99884033203125,0.258773803710938,0.012669988886052,-0.176396871646379,0.0730158876067025
1490546502.3,40.4634404775887,-79.9536461330161,12.1400003433228,0.085540771484375,-0.961715698242188,0.152114868164062,-0.0112875419641918,0.0332671430728338,0.0482085420526144
1490546502.5,40.4634404775887,-79.9536461330161,12.1400003433228,-0.04180908203125,-0.95867919921875,0.220901489257812,0.0257732740814598,-0.0795954933958522,0.0688056962393962
1490546502.7,40.4634404775887,-79.9536461330161,12.1400003433228,0.10589599609375,-0.91351318359375,0.234359741210938,-0.132112763776106,0.0291877129150504,-0.00145009121354815
1490546502.9,40.4634404775887,-79.9536461330161,12.1400003433228,0.0984649658203125,-1.03605651855469,0.20037841796875,0.0648743378382212,0.106909139851814,-0.0794948259066472
1490546503.1,40.4634404775887,-79.9536461330161,12.1400003433228,-0.0590057373046875,-0.954910278320312,0.190353393554688,-0.000887098959105394,-0.0922505685797998,0.0744481356409471
1490546503.3,40.4634718538156,-79.9535143071615,11.6800003051758,0.0723876953125,-0.96087646484375,0.207183837890625,-0.0575160237463323,0.0374019669812908,-0.0109123025665997
1490546503.5,40.4634718538156,-79.9535143071615,11.6800003051758,0.008392333984375,-1.04060363769531,0.186920166015625,0.0640138704900166,-0.0309818845414368,0.0225748176122747
1490546503.7,40.4634718538156,-79.9535143071615,11.6800003051758,-0.000640869140625,-0.934494018554688,0.355987548828125,0.054380950511091,-0.0500884674661013,0.0269192322985209
1490546503.9,40.4634718538156,-79.9535143071615,11.6800003051758,0.0862884521484375,-1.03129577636719,0.121536254882812,0.00310577846325041,0.00841851852184948,-0.018149176512781
1490546504.1,40.4634718538156,-79.9535143071615,11.6800003051758,0.056488037109375,-0.781661987304688,0.089752197265625,-0.291602024609899,-0.132111165879452,-0.0115203022434648
1490546504.3,40.4635010606811,-79.9533981990408,11.0500001907349,0.056365966796875,-0.971099853515625,-0.0152130126953125,-0.00427597144623122,0.135922415715464,-0.0721492949879907
1490546504.5,40.4635010606811,-79.9533981990408,11.0500001907349,0.021026611328125,-1.11549377441406,0.264129638671875,0.215638017676479,0.0727202767257037,0.00275344225103292
1490546504.7,40.4635010606811,-79.9533981990408,11.0500001907349,-0.02679443359375,-0.953872680664062,0.277374267578125,-0.0171683342833048,-0.027626567884046,-0.00197766342549284
1490546504.9,40.4635010606811,-79.9533981990408,11.0500001907349,0.055206298828125,-0.960983276367188,0.18756103515625,-0.0130524188185874,0.0221606960627674,-0.0499041767186678
1490546505.1,40.4635315672502,-79.9532871276372,9.68000030517578,0.107147216796875,-0.941818237304688,0.15301513671875,0.0299006411388646,-0.139169874348707,0.0792804414388959
1490546505.3,40.4635315672502,-79.9532871276372,9.68000030517578,0.0339508056640625,-1.09254455566406,0.174957275390625,-0.0885050988227123,-0.0591690478349445,0.0287176649826515
1490546505.5,40.4635315672502,-79.9532871276372,9.68000030517578,-0.0831146240234375,-0.90179443359375,0.133468627929688,-0.0266220235208681,-0.0508543925956081,0.0311480657934578
1490546505.7,40.4635315672502,-79.9532871276372,9.68000030517578,0.02691650390625,-1.13038635253906,0.072021484375,-0.0798474284349737,-0.118571122265271,0.0785922806132194
1490546505.9,40.4635315672502,-79.9532871276372,9.68000030517578,-0.236190795898438,-0.980667114257812,0.1072998046875,-0.0648250693580548,-0.172708659852729,0.120933079836062
1490546506.1,40.4635513643754,-79.953195240723,8.47999954223633,-0.048736572265625,-0.987945556640625,0.0465545654296875,-0.0573791372663022,-0.189735846598259,0.127197633668256
1490546506.3,40.4635513643754,-79.953195240723,8.47999954223633,-0.0848236083984375,-1.08375549316406,-0.018524169921875,0.0444873070614467,-0.112914035477725,0.0151704308335274
1490546506.5,40.4635513643754,-79.953195240723,8.47999954223633,-0.091644287109375,-1.007568359375,-0.0131072998046875,0.0124923560413437,-0.130862675960423,0.0230014560189054
1490546506.7,40.4635513643754,-79.953195240723,8.47999954223633,-0.298095703125,-1.01164245605469,0.0530242919921875,-0.0181712807498287,-0.327017806050209,0.162641111983902
1490546506.9,40.4635513643754,-79.953195240723,8.47999954223633,-0.2132568359375,-0.878875732421875,-0.037689208984375,-0.0629587260661272,-0.329747812483649,0.00431005990818424
1490546507.1,40.4635513643754,-79.953195240723,8.47999954223633,-0.1873779296875,-1.03895568847656,0.03118896484375,-0.0126148614514873,-0.431691754799119,0.0919469682155307
1490546507.3,40.4635696412936,-79.9530736646456,6.25,-0.216339111328125,-0.999130249023438,0.117996215820312,-0.0274563918903899,-0.42627168934859,0.101746069446477
1490546507.5,40.4635696412936,-79.9530736646456,6.25,-0.208724975585938,-1.03253173828125,0.0386810302734375,0.0682256597539769,-0.449399379203165,0.231643083195637
1490546507.7,40.4635696412936,-79.9530736646456,6.25,-0.217300415039062,-0.926177978515625,0.133041381835938,0.000899349500119759,-0.498124840823364,0.233454831685218
1490546507.9,40.4635696412936,-79.9530736646456,6.25,-0.686996459960938,-1.02743530273438,0.25152587890625,0.226530346534903,-0.77707338814597,0.160624832722603
1490546508.1,40.4635696412936,-79.9530736646456,6.25,0.0708465576171875,-0.917648315429688,0.190719604492188,0.0268241574476051,-0.445637397847319,0.0978112489358852
1490546508.3,40.4635536361561,-79.9530862993582,4.09999990463257,-0.114288330078125,-0.992630004882812,0.200820922851562,0.0102893891876301,-0.52378652845515,0.216213793104154
1490546508.5,40.4635536361561,-79.9530862993582,4.09999990463257,-0.146896362304688,-1.0181884765625,0.2366943359375,-0.0274619845286791,-0.499542707787722,0.138902226659154
1490546508.7,40.4635536361561,-79.9530862993582,4.09999990463257,-0.106246948242188,-1.03178405761719,0.164398193359375,0.0127312415911238,-0.53494836921589,0.109516108242892
1490546508.9,40.4635536361561,-79.9530862993582,4.09999990463257,-0.126968383789062,-0.945663452148438,0.282516479492188,-0.00428662409059154,-0.538046690828088,0.117190539556174
1490546509.1,40.4635536361561,-79.9530862993582,4.09999990463257,-0.118011474609375,-0.98358154296875,0.309188842773438,0.015057246487199,-0.594282533038419,0.169069183907026
1490546509.3,40.4635809478974,-79.9529898738269,2.57999992370605,-0.136520385742188,-0.912811279296875,0.327682495117188,-0.0288055492986241,-0.619722379351401,0.159971559307207
1490546509.5,40.4635809478974,-79.9529898738269,2.57999992370605,-0.0298614501953125,-0.950271606445312,0.325164794921875,0.0341766125850959,-0.577409277003895,0.149669120630235
1490546509.7,40.4635809478974,-79.9529898738269,2.57999992370605,-0.0344696044921875,-0.935440063476562,0.419662475585938,-0.0256366539175388,-0.53799236234185,0.113196863185491
1490546509.9,40.4635809478974,-79.9529898738269,2.57999992370605,-0.0097808837890625,-1.00920104980469,0.377914428710938,0.0471565934220331,-0.43184994656787,0.101849666412881
1490546510.1,40.4635809478974,-79.9529898738269,2.57999992370605,-0.0442657470703125,-0.9677734375,0.345748901367188,0.0507353492948815,-0.292492053046204,0.0861279612337076
1490546510.3,40.4635014474556,-79.9530708688078,2.40000009536743,-0.204833984375,-0.909225463867188,0.649581909179688,-0.0307485916299459,-0.373234569923553,0.0603197997419677
1490546510.5,40.4635014474556,-79.9530708688078,2.40000009536743,-0.0139923095703125,-0.892593383789062,0.413619995117188,-0.129606196558123,-0.4119745090365,0.124407706110289
1490546510.7,40.4635014474556,-79.9530708688078,2.40000009536743,-0.057952880859375,-0.933090209960938,0.40399169921875,0.0100454436317789,-0.405031914390772,0.118379907299003
1490546510.9,40.4635014474556,-79.9530708688078,2.40000009536743,0.11285400390625,-0.899505615234375,0.463211059570312,-0.0131959632013426,-0.262513913919618,0.0763467031820646
1490546511.1,40.4634730121529,-79.9530888169847,3.48000001907349,-0.153839111328125,-0.9967041015625,0.436065673828125,-0.126690834112813,-0.300999254832353,0.183277947270926
1490546511.3,40.4634730121529,-79.9530888169847,3.48000001907349,0.135284423828125,-0.94970703125,0.552215576171875,-0.0259146879353431,-0.130748692665767,0.019225093593173
1490546511.5,40.4634730121529,-79.9530888169847,3.48000001907349,-0.0110626220703125,-0.924041748046875,0.4669189453125,0.112519355004175,-0.070816915494624,-0.0367867767694825
1490546511.7,40.4634730121529,-79.9530888169847,3.48000001907349,0.043792724609375,-0.846405029296875,0.441574096679688,-0.162876002792047,0.042145323198831,0.0149674979584633
1490546511.9,40.4634730121529,-79.9530888169847,3.48000001907349,0.0980377197265625,-0.921600341796875,0.391159057617188,0.0502320118488566,-0.13387790694661,0.0875650029579144
1490546512.1,40.4634730121529,-79.9530888169847,3.48000001907349,0.0087432861328125,-0.87689208984375,0.611709594726562,-0.010587929545828,-0.0222102308590428,0.0224784111808138
1490546512.3,40.4634273158831,-79.9531282086167,5.55000019073486,0.049560546875,-0.857315063476562,0.460281372070312,0.0286710596635751,-0.0384062450283597,0.0027459853999807
1490546512.5,40.4634273158831,-79.9531282086167,5.55000019073486,0.01123046875,-0.812713623046875,0.593353271484375,-0.0456569674122095,0.0608146150725044,-0.00354466741089547
1490546512.7,40.4634273158831,-79.9531282086167,5.55000019073486,0.0477294921875,-0.96868896484375,0.642913818359375,-0.0648021661726801,-0.0473952126557042,0.0593687849167004
1490546512.9,40.4634273158831,-79.9531282086167,5.55000019073486,0.208541870117188,-0.876205444335938,0.536224365234375,0.0524128744655225,-0.146593169571194,0.101371362681103
1490546513.1,40.4634273158831,-79.9531282086167,5.55000019073486,0.109375,-1.05693054199219,0.592941284179688,-0.0431008653979514,0.0433621215008882,-0.0899964690331567
1490546513.3,40.4633685599883,-79.9531837443873,7.46999979019165,0.164657592773438,-0.88592529296875,0.408935546875,-0.105279817896903,0.0419642282447056,0.0184993821961264
1490546513.5,40.4633685599883,-79.9531837443873,7.46999979019165,-0.0457611083984375,-1.06439208984375,0.324737548828125,0.0874566123015481,0.0273298917386112,-0.0095820536021051
1490546513.7,40.4633685599883,-79.9531837443873,7.46999979019165,0.0660552978515625,-0.783447265625,0.454238891601562,0.0500506505786222,0.0826101917498219,-0.0516352314272193
1490546513.9,40.4633685599883,-79.9531837443873,7.46999979019165,0.512237548828125,-1.0115966796875,0.40875244140625,0.116465360791345,0.458803267328344,-0.358742978851887
1490546514.1,40.4632954497792,-79.953253541827,9.75,0.23284912109375,-0.823501586914062,0.46148681640625,-0.2055334518685,-0.0193028578970033,0.0452289974250337
1490546514.3,40.4632954497792,-79.953253541827,9.75,-0.257736206054688,-0.860153198242188,0.462966918945312,-0.05642945402158,0.258275759360866,-0.122391959481208
1490546514.5,40.4632954497792,-79.953253541827,9.75,0.0540313720703125,-0.990890502929688,0.419662475585938,0.134051545049684,0.00570955106102088,-0.0454164839657753
1490546514.7,40.4632954497792,-79.953253541827,9.75,0.061248779296875,-1.02931213378906,0.615478515625,-0.00872265151833653,0.0572326634063479,-0.0584100469242719
1490546514.9,40.4632954497792,-79.953253541827,9.75,-0.167221069335938,-1.04347229003906,0.67315673828125,0.113117500985007,0.169580244520213,-0.0725002996196631
1490546515.1,40.4632954497792,-79.953253541827,9.75,0.0619354248046875,-0.929214477539062,0.641677856445312,0.0209287177424967,0.109018896067375,-0.115188375048652
1490546515.3,40.4632041633004,-79.9533376856697,12.1099996566772,0.125335693359375,-1.04269409179688,0.495468139648438,-0.00845740067376464,0.0510482707229659,-0.0157712399754492
1490546515.5,40.4632041633004,-79.9533376856697,12.1099996566772,0.273452758789062,-0.777481079101562,0.367111206054688,-0.281413302911474,0.105064101848607,-0.0462969250221555
1490546515.7,40.4632041633004,-79.9533376856697,12.1099996566772,-0.0406494140625,-1.11575317382812,0.110107421875,0.619086949115308,-0.154217799772091,0.026954918657128
1490546515.9,40.4632041633004,-79.9533376856697,12.1099996566772,-0.410003662109375,-0.9173583984375,0.754989624023438,-0.243340751967701,0.906405279111815,-0.507763353440579
1490546516.1,40.4632041633004,-79.9533376856697,12.1099996566772,-0.606399536132812,-0.680984497070312,0.749374389648438,-0.13318548506319,-0.625969622636509,0.337243812003895
1490546516.3,40.4630982824387,-79.9534381265218,14.289999961853,0.40191650390625,-0.380416870117188,0.665618896484375,0.263358402301282,-0.507390777204077,0.265283335137191
1490546516.5,40.4630982824387,-79.9534381265218,14.289999961853,0.381240844726562,-1.57325744628906,0.121780395507812,-0.20651882147183,0.366206221490725,-0.142627722708066
1490546516.7,40.4630982824387,-79.9534381265218,14.289999961853,-0.275131225585938,-0.780609130859375,0.68218994140625,0.145217380552059,0.393600029095498,-0.171570691118938
1490546516.9,40.4630982824387,-79.9534381265218,14.289999961853,-0.139236450195312,-0.8768310546875,0.39031982421875,0.122536835444508,0.033507626519268,-0.0281434874516304
1490546517.1,40.4630982824387,-79.9534381265218,14.289999961853,0.006500244140625,-0.82403564453125,0.352340698242188,0.142594699510549,0.0651531708043525,-0.0741818195319392
1490546517.3,40.4629759764729,-79.9535431035228,16.1200008392334,-0.247940063476562,-0.676910400390625,0.361953735351562,0.0597642643385772,0.0858459324742682,-0.0357553344792948
1490546517.5,40.4629759764729,-79.9535431035228,16.1200008392334,0.634307861328125,-0.362960815429688,0.476638793945312,0.500780545062391,-0.514811409265473,0.219586952940848
1490546517.7,40.4629759764729,-79.9535431035228,16.1200008392334,1.20777893066406,-0.844940185546875,0.600387573242188,-0.229862227374701,-0.476736727792829,0.31109077115099
1490546517.9,40.4629759764729,-79.9535431035228,16.1200008392334,0.183807373046875,-1.0418701171875,0.587875366210938,-0.163823555507897,0.213188974738042,-0.0560771178093625
1490546518.1,40.4629759764729,-79.9535431035228,16.1200008392334,-0.139694213867188,-0.727294921875,0.6461181640625,0.205775533211589,0.0576995155454388,-0.0291477654986992
1490546518.3,40.4628442342997,-79.9536596264039,17.6900005340576,0.0626373291015625,-1.10833740234375,0.371124267578125,0.222822427349186,-0.0804066922638904,0.040701090939681
1490546518.5,40.4628442342997,-79.9536596264039,17.6900005340576,-0.0054931640625,-1.06440734863281,0.546279907226562,0.0534600294061416,0.0179752720935988,0.0132239263927885
1490546518.7,40.4628442342997,-79.9536596264039,17.6900005340576,0.258514404296875,-0.8641357421875,0.3614501953125,-0.313498002460313,-0.169913405972582,0.0814493198306564
1490546518.9,40.4628442342997,-79.9536596264039,17.6900005340576,0.168548583984375,-0.921493530273438,0.380233764648438,-0.0482026830982162,0.116808642255856,-0.0940284949235367
1490546519.1,40.4628442342997,-79.9536596264039,17.6900005340576,-0.138504028320312,-1.08033752441406,0.614242553710938,-0.093704388218874,0.125702268716176,-0.0475731118165215
1490546519.3,40.4626966618155,-79.9537934042328,19.1900005340576,0.03936767578125,-1.04095458984375,0.240020751953125,0.108471616463363,0.0504003236297496,-0.0673827692689669
1490546519.5,40.4626966618155,-79.9537934042328,19.1900005340576,0.136093139648438,-0.81170654296875,0.459228515625,0.0394632536650122,0.121987158995516,-0.0610076942515352
1490546519.7,40.4626966618155,-79.9537934042328,19.1900005340576,0.025787353515625,-1.03486633300781,0.4718017578125,-0.105379686437781,-0.009074455098336,0.03011396034218
1490546519.9,40.4626966618155,-79.9537934042328,19.1900005340576,0.0119476318359375,-0.845352172851562,0.571060180664062,0.36030172703791,-0.0214546920577874,0.00176168106108742
1490546520.1,40.4626966618155,-79.9537934042328,19.1900005340576,0.055572509765625,-0.740478515625,0.558242797851562,-0.093334475143462,-0.0492413159233471,0.0981185777256804
1490546520.3,40.4625470582449,-79.9539423117555,20.5699996948242,-0.010040283203125,-1.0989990234375,0.344314575195312,-0.00790213158648312,-0.107837251491707,0.149150336849888
1490546520.5,40.4625470582449,-79.9539423117555,20.5699996948242,0.378982543945312,-1.32577514648438,0.223617553710938,-0.414526616309123,-0.174694312761492,0.1221818360712
1490546520.7,40.4625470582449,-79.9539423117555,20.5699996948242,0.0450592041015625,-0.924362182617188,0.135650634765625,-0.00756284486360702,0.0307488579460549,-0.0307589779581972
1490546520.9,40.4625470582449,-79.9539423117555,20.5699996948242,0.00238037109375,-1.06163024902344,0.20196533203125,-0.162524998160375,-0.0985247097919175,-0.018418688415097
1490546521.1,40.4625470582449,-79.9539423117555,20.5699996948242,0.183273315429688,-0.793319702148438,0.531143188476562,0.0464931999944943,-0.0301866646399392,-0.046516902128196
1490546521.3,40.4623899937827,-79.9540941441097,21.8999996185303,0.120559692382812,-1.13694763183594,0.550933837890625,-0.380351335304572,0.0269794197391567,0.0262329356856075
1490546521.5,40.4623899937827,-79.9540941441097,21.8999996185303,0.09613037109375,-0.9434814453125,0.3890380859375,0.129073830656216,0.008100004455476,0.00584004595443476
1490546521.7,40.4623899937827,-79.9540941441097,21.8999996185303,-0.016693115234375,-0.9061279296875,0.583770751953125,-0.0254070894315739,0.161614996015895,-0.0568915124707087
1490546521.9,40.4623899937827,-79.9540941441097,21.8999996185303,0.10821533203125,-0.909530639648438,0.34869384765625,-0.00688267352120078,-0.135481662555056,0.156538744662095
1490546522.1,40.4623899937827,-79.9540941441097,21.8999996185303,0.372650146484375,-0.762344360351562,0.443588256835938,-0.0160295666011869,-0.279235636088116,0.139262552354642
1490546522.3,40.4622147145654,-79.9542549331535,23.1499996185303,-0.13525390625,-1.13961791992188,0.233535766601562,-0.242036601981889,0.282206125967991,-0.148766841652916
1490546522.5,40.4622147145654,-79.9542549331535,23.1499996185303,-0.172698974609375,-0.832321166992188,0.434112548828125,-0.12046383085199,0.0110406669311415,-0.00377290031631526
1490546522.7,40.4622147145654,-79.9542549331535,23.1499996185303,0.064117431640625,-1.05589294433594,0.32928466796875,-0.33292070260637,0.117748471804545,-0.102131695172321
1490546522.9,40.4622147145654,-79.9542549331535,23.1499996185303,0.384780883789062,-0.811126708984375,0.11767578125,-0.107022324198142,-0.306792162835493,0.0987678563994417
1490546523.1,40.4622147145654,-79.9542549331535,23.1499996185303,0.0955352783203125,-0.799713134765625,0.476715087890625,0.0531401837592231,0.0188120373081017,-0.0347585132832782
1490546523.3,40.4620289343073,-79.9544218410627,24.3099994659424,-0.0392608642578125,-0.82794189453125,0.629837036132812,-0.176950809153116,0.0399181215791977,-0.0157842894647906
1490546523.5,40.4620289343073,-79.9544218410627,24.3099994659424,0.04766845703125,-0.8133544921875,0.3021240234375,-0.0462641681407475,-0.00681662712616682,0.0997494975772449
1490546523.7,40.4620289343073,-79.9544218410627,24.3099994659424,-0.062103271484375,-1.20246887207031,0.509689331054688,0.253326807107171,0.164481089981038,-0.147879476377702
1490546523.9,40.4620289343073,-79.9544218410627,24.3099994659424,-0.295684814453125,-0.80712890625,0.319534301757812,0.105079814499038,-0.117495737817097,-0.00907259088557294
1490546524.1,40.4620289343073,-79.9544218410627,24.3099994659424,0.007659912109375,-0.87139892578125,0.58758544921875,-0.0959060234920425,-0.0559141323506496,0.0362842382717846
1490546524.3,40.4618408702809,-79.9545933438668,25.2999992370605,-0.095184326171875,-0.988815307617188,0.38470458984375,0.0659539833441394,0.100543918530416,-0.0741911405957544
1490546524.5,40.4618408702809,-79.9545933438668,25.2999992370605,0.121536254882812,-1.18525695800781,0.528350830078125,0.124584007374452,0.158737716774173,-0.105729892121127
1490546524.7,40.4618408702809,-79.9545933438668,25.2999992370605,0.0494537353515625,-0.650619506835938,0.0997314453125,-0.043760530399964,0.102053131920163,-0.059993828824542
1490546524.9,40.4618408702809,-79.9545933438668,25.2999992370605,-0.3397216796875,-0.626617431640625,0.268447875976562,0.23074852738548,0.218578946468253,-0.203987486855709
1490546525.1,40.4618408702809,-79.9545933438668,25.2999992370605,0.14593505859375,-0.896270751953125,0.487442016601562,0.0929006462018881,-0.040566601304632,0.0424467930342279
1490546525.3,40.4616470131393,-79.9547739133026,26.1800003051758,0.202957153320312,-0.91656494140625,0.0691070556640625,-0.152679291610352,0.270077557731552,-0.17232702886852
1490546525.5,40.4616470131393,-79.9547739133026,26.1800003051758,-0.2445068359375,-0.480453491210938,0.628463745117188,0.119492842318547,-0.0842371168597513,0.0558712554570994
1490546525.7,40.4616470131393,-79.9547739133026,26.1800003051758,-0.0960540771484375,-0.932235717773438,0.492263793945312,0.0785174457865882,0.122328576247264,0.0387383412162926
1490546525.9,40.4616470131393,-79.9547739133026,26.1800003051758,0.0180206298828125,-0.70123291015625,0.286712646484375,-0.089500588438184,-0.0410643461123678,0.0298383231693568
1490546526.1,40.4616470131393,-79.9547739133026,26.1800003051758,0.0391845703125,-1.10971069335938,0.392868041992188,0.0758380394138594,0.144249587811924,-0.0539548447366783
1490546526.3,40.4614565054218,-79.9549508148987,26.6399993896484,0.0276031494140625,-1.01467895507812,0.477371215820312,0.126045550180687,0.15901228868256,-0.0470953407169612
1490546526.5,40.4614565054218,-79.9549508148987,26.6399993896484,-0.240890502929688,-1.01348876953125,0.21380615234375,-0.0626375488386637,0.355058229167653,-0.144485277568396
1490546526.7,40.4614565054218,-79.9549508148987,26.6399993896484,-0.0385589599609375,-0.8599853515625,0.32867431640625,-0.0177758013279519,-0.298069777633266,0.206425344517568
1490546526.9,40.4614565054218,-79.9549508148987,26.6399993896484,0.0971221923828125,-0.90753173828125,0.0682373046875,-0.0632564674759981,-0.280358691119803,0.0929392620376943
1490546527.1,40.4614565054218,-79.9549508148987,26.6399993896484,0.0847320556640625,-0.753204345703125,0.0198822021484375,-0.16449387315427,0.0279567998592158,-0.0596931579374721
1490546527.3,40.4612613630174,-79.9551344172278,26.3799991607666,-0.107009887695312,-1.10581970214844,-0.010284423828125,0.149345546557791,0.225718348718538,-0.104824949982718
1490546527.5,40.4612613630174,-79.9551344172278,26.3799991607666,0.131591796875,-1.06895446777344,0.343536376953125,-0.317091938351375,-0.185354413972861,0.189166995389418
1490546527.7,40.4612613630174,-79.9551344172278,26.3799991607666,0.115951538085938,-0.786834716796875,0.1236572265625,-0.183656648777935,0.238287137483167,-0.164540744789456
1490546527.9,40.4612613630174,-79.9551344172278,26.3799991607666,0.0063018798828125,-0.867431640625,0.0458526611328125,-0.255399012751362,0.0110803480313837,-0.0926995775395871
1490546528.1,40.4612613630174,-79.9551344172278,26.3799991607666,0.180328369140625,-0.810394287109375,0.346847534179688,-0.0952527500766461,0.0637797786301987,-0.0871527456211701
1490546528.3,40.461074866569,-79.955306224843,26.0499992370605,-0.0090484619140625,-0.991180419921875,0.43548583984375,0.114866132556753,-0.0504983279578645,-0.0154418069486064
1490546528.5,40.461074866569,-79.955306224843,26.0499992370605,0.093963623046875,-0.8951416015625,0.352737426757812,-0.0705684425649196,0.00222320687799815,-0.031088677301149
1490546528.7,40.461074866569,-79.955306224843,26.0499992370605,0.0528717041015625,-0.827545166015625,0.133438110351562,-0.0951129341194169,-0.0253165419545113,-0.0201753094701133
1490546528.9,40.461074866569,-79.955306224843,26.0499992370605,0.14862060546875,-1.2232666015625,0.142715454101562,-0.0416643563059627,0.102020375038755,-0.0653526415699995
1490546529.1,40.461074866569,-79.955306224843,26.0499992370605,-0.252304077148438,-0.824081420898438,0.397720336914062,0.0196056593129453,0.1106575390861,0.00427011249183305
1490546529.3,40.4608828088095,-79.9554941095015,25.2000007629395,0.025848388671875,-1.08189392089844,0.310577392578125,0.0206786469161383,-0.235501737299053,0.184751207985958
1490546529.5,40.4608828088095,-79.9554941095015,25.2000007629395,0.149017333984375,-1.13604736328125,0.271347045898438,-0.0937174377082154,0.0216325912186046,0.00444215269825217
1490546529.7,40.4608828088095,-79.9554941095015,25.2000007629395,0.170425415039062,-0.872329711914062,0.151077270507812,-0.227866987086014,0.12310009401506,-0.0202770422237543
1490546529.9,40.4608828088095,-79.9554941095015,25.2000007629395,-0.0872955322265625,-1.07667541503906,0.156631469726562,0.249199440049767,0.166716014767832,-0.128626419593083
1490546530.1,40.4608828088095,-79.9554941095015,25.2000007629395,-0.30328369140625,-0.945968627929688,0.554122924804688,0.0839186027933779,-0.073773024304612,-0.00763634810969321
1490546530.3,40.4607035399611,-79.9556603061824,24.4899997711182,-0.105300903320312,-0.776962280273438,0.276351928710938,-0.091856420738468,-0.219603730855716,0.0891772806818483
1490546530.5,40.4607035399611,-79.9556603061824,24.4899997711182,0.338943481445312,-0.947647094726562,0.0845947265625,-0.135371674002036,-0.311695042402329,0.166301360586107
1490546530.7,40.4607035399611,-79.9556603061824,24.4899997711182,0.122146606445312,-1.31639099121094,0.166213989257812,0.0298372579049208,0.588147142519094,-0.307221730719323
1490546530.9,40.4607035399611,-79.9556603061824,24.4899997711182,-0.0076904296875,-0.499374389648438,0.37689208984375,0.248598897223954,-0.134515734027684,0.0967683550530102
1490546531.1,40.4607035399611,-79.9556603061824,24.4899997711182,0.0359344482421875,-0.816452026367188,0.19482421875,0.0306425978185607,-0.086309588820051,0.00367729283318141
1490546531.3,40.4605294671286,-79.9558278825879,23.7600002288818,0.259933471679688,-1.06292724609375,0.236495971679688,-0.195848600248318,-0.0734268133629017,0.0865713775552058
1490546531.5,40.4605294671286,-79.9558278825879,23.7600002288818,0.0175018310546875,-1.10333251953125,0.199600219726562,-0.0542184976845962,-0.0304971892230424,0.0390110489119167
1490546531.7,40.4605294671286,-79.9558278825879,23.7600002288818,0.141586303710938,-0.8765869140625,0.231948852539062,0.12064093106448,0.225874676274526,-0.092728605995469
1490546531.9,40.4605294671286,-79.9558278825879,23.7600002288818,-0.339859008789062,-0.751480102539062,0.344879150390625,-0.0226914640680202,0.0402142650924145,-0.0657361367669709
1490546532.1,40.4605294671286,-79.9558278825879,23.7600002288818,0.091400146484375,-0.915679931640625,0.500579833984375,-0.141423174947023,-0.0555261097798251,0.0848531060198867
1490546532.3,40.4603570932899,-79.9559847079962,22.4500007629395,0.237472534179688,-1.12985229492188,0.313674926757812,-0.137858267511843,-0.0266095066637447,0.124331273387003
1490546532.5,40.4603570932899,-79.9559847079962,22.4500007629395,-0.0267333984375,-1.10125732421875,0.241958618164062,0.106058526199643,0.160641610637471,-0.166274995291315
1490546532.7,40.4603570932899,-79.9559847079962,22.4500007629395,-0.026031494140625,-1.1387939453125,0.363693237304688,-0.00351270947781452,0.100664826043905,-0.0989002155056186
1490546532.9,40.4603570932899,-79.9559847079962,22.4500007629395,-0.072662353515625,-0.617889404296875,0.173553466796875,-0.32480285497159,-0.18868869165764,0.154065999589956
1490546533.1,40.4603570932899,-79.9559847079962,22.4500007629395,0.195480346679688,-1.07734680175781,0.0331573486328125,-0.0798761905747466,0.168105918540745,-0.074312048109244
1490546533.3,40.4601971665774,-79.9561414495855,22.0300006866455,0.06951904296875,-1.05484008789062,0.230636596679688,-0.0465664369244715,-0.0378227464335234,0.0708890871601652
1490546533.5,40.4601971665774,-79.9561414495855,22.0300006866455,-0.0054931640625,-0.804428100585938,0.183609008789062,-0.0344578423962082,0.0391655122551413,-0.0709207787771371
1490546533.7,40.4601971665774,-79.9561414495855,22.0300006866455,-0.128631591796875,-0.579574584960938,0.196945190429688,0.19941031189019,-0.0664916755682264,0.0399647268982741
1490546533.9,40.4601971665774,-79.9561414495855,22.0300006866455,0.452239990234375,-0.96160888671875,0.080352783203125,-0.168398067312326,0.0898119119696142,-0.0381732184329778
1490546534.1,40.4601971665774,-79.9561414495855,22.0300006866455,-0.113983154296875,-0.918319702148438,0.253662109375,0.0790279737675564,-0.00761078176322845,0.0235037282004943
1490546534.3,40.4600345124151,-79.9562844194159,21.3199996948242,0.01385498046875,-0.733734130859375,0.407424926757812,-0.0786607238532344,0.0981257682606236,-0.0158356884738292
1490546534.5,40.4600345124151,-79.9562844194159,21.3199996948242,-0.03466796875,-1.20980834960938,0.315139770507812,0.0946546040958143,-0.0748191139807951,0.00395506053487668
1490546534.7,40.4600345124151,-79.9562844194159,21.3199996948242,0.18017578125,-1.10494995117188,0.150833129882812,-0.133254993567641,-0.00484109422954604,0.00488477007142334
1490546534.9,40.4600345124151,-79.9562844194159,21.3199996948242,-0.0155029296875,-0.838775634765625,0.0977325439453125,0.149179098989661,0.0737578442863985,-0.050784884091157
1490546535.1,40.4600345124151,-79.9562844194159,21.3199996948242,0.0442047119140625,-0.616104125976562,0.219268798828125,-0.12028939380059,-0.00264052422081356,0.0292521614134304
1490546535.3,40.4598751277474,-79.9564292958139,20.7299995422363,0.142318725585938,-1.28518676757812,-0.03631591796875,-0.0689814648713414,0.0280702505216532,0.0329350468849009
1490546535.5,40.4598751277474,-79.9564292958139,20.7299995422363,0.0330352783203125,-1.15495300292969,0.187606811523438,-0.101215834073443,0.0789728463329917,-0.0305222229372891
1490546535.7,40.4598751277474,-79.9564292958139,20.7299995422363,0.109939575195312,-1.19287109375,0.095794677734375,0.268442643138352,0.024400148223415,-0.0470846880726009
1490546535.9,40.4598751277474,-79.9564292958139,20.7299995422363,0.340576171875,-1.22604370117188,0.304092407226562,0.254850667882915,0.00233772280487156,0.00422537138551972
1490546536.1,40.4598751277474,-79.9564292958139,20.7299995422363,-0.100448608398438,-0.894027709960938,0.04693603515625,0.0839460333526057,0.00163704512207171,-0.0426550522314721
1490546536.3,40.4597324456773,-79.9565677795239,20.0900001525879,0.04180908203125,-0.848052978515625,0.007232666015625,-0.160026420425662,0.0142809350294409,-0.0224571058920932
1490546536.5,40.4597324456773,-79.9565677795239,20.0900001525879,0.0466766357421875,-0.906097412109375,0.254165649414062,-0.0672964828496483,0.0171297184474987,-0.027896878734689
1490546536.7,40.4597324456773,-79.9565677795239,20.0900001525879,-0.122161865234375,-0.892135620117188,0.292022705078125,-0.077637004730208,-0.0102156196254349,0.0340237471385253
1490546536.9,40.4597324456773,-79.9565677795239,20.0900001525879,0.243972778320312,-1.012939453125,0.206756591796875,0.0471438102488007,-0.174139309990319,0.124836208729682
1490546537.1,40.4597324456773,-79.9565677795239,20.0900001525879,-0.0176544189453125,-0.647979736328125,0.421142578125,-0.162540710810806,0.0211444337907931,0.0757003539855023
1490546537.3,40.4595819939824,-79.9567028431999,19.2900009155273,-0.142181396484375,-0.956741333007812,0.212326049804688,0.127968885119943,0.156734220686106,-0.0769845302631385
1490546537.5,40.4595819939824,-79.9567028431999,19.2900009155273,-0.102920532226562,-0.808334350585938,0.698745727539062,0.306172178933723,-0.00198272343156399,0.0280894252815018
1490546537.7,40.4595819939824,-79.9567028431999,19.2900009155273,-0.0288848876953125,-1.01119995117188,-0.115692138671875,0.0248432982288042,-0.198422279125771,0.150658218659091
1490546537.9,40.4595819939824,-79.9567028431999,19.2900009155273,0.198959350585938,-1.1063232421875,0.262069702148438,-0.329230360283847,-0.0571202780083465,0.0616468529131542
1490546538.1,40.4595819939824,-79.9567028431999,19.2900009155273,-0.007415771484375,-0.931320190429688,0.2462158203125,0.305526362369378,0.0811403931442072,0.0474838959200038
1490546538.3,40.4594447440758,-79.9568326118736,18.2399997711182,0.141815185546875,-0.786758422851562,0.185806274414062,-0.0459392624877578,0.0170804499673322,-0.0228368726635385
1490546538.5,40.4594447440758,-79.9568326118736,18.2399997711182,0.125137329101562,-0.859222412109375,0.08935546875,-0.633237389251335,0.064866348354951,-0.0237806969538626
1490546538.7,40.4594447440758,-79.9568326118736,18.2399997711182,0.271743774414062,-0.824081420898438,0.370468139648438,-0.298479904441138,-0.31537233523551,0.170502497205707
1490546538.9,40.4594447440758,-79.9568326118736,18.2399997711182,0.1627197265625,-1.15705871582031,0.42535400390625,0.355086724991317,-0.16257985927883,0.0921488358261588
1490546539.1,40.4594447440758,-79.9568326118736,18.2399997711182,0.354049682617188,-1.09910583496094,0.131332397460938,-0.132010498390247,-0.359374414346345,0.215203922418796
1490546539.3,40.4593203580334,-79.9569474518943,16.7600002288818,0.434738159179688,-1.27531433105469,0.110305786132812,-0.255281301031181,0.0193499958482977,0.0790098642721438
1490546539.5,40.4593203580334,-79.9569474518943,16.7600002288818,-0.122833251953125,-0.997695922851562,0.100112915039062,0.232269192367915,0.288976680407299,-0.172919315894954
1490546539.7,40.4593203580334,-79.9569474518943,16.7600002288818,0.143035888671875,-0.902267456054688,0.0021514892578125,-0.0694070380135361,0.103161539565854,-0.0692624283663448
1490546539.9,40.4593203580334,-79.9569474518943,16.7600002288818,0.056365966796875,-1.07582092285156,0.138595581054688,0.0727812631146665,-0.0754409620953286,0.0810136266763194
1490546540.1,40.4593203580334,-79.9569474518943,16.7600002288818,-0.0630035400390625,-1.20896911621094,0.199630737304688,0.189519331601636,-0.0220693496373776,-0.0269911376479531
1490546540.3,40.4592012963275,-79.9570515259258,14.5100002288818,0.04327392578125,-1.00698852539062,0.130081176757812,-0.0298561663486603,0.0638104049827346,-0.0335984403124397
1490546540.5,40.4592012963275,-79.9570515259258,14.5100002288818,-0.022125244140625,-1.03291320800781,-0.104217529296875,0.00110414658794685,0.0456822674425652,-0.0180381226953247
1490546540.7,40.4592012963275,-79.9570515259258,14.5100002288818,-0.114913940429688,-1.09916687011719,-0.0337677001953125,0.108468686986164,-0.0876411693650906,0.00374973081483157
1490546540.9,40.4592012963275,-79.9570515259258,14.5100002288818,0.067596435546875,-1.01716613769531,0.11572265625,0.0641494253895017,0.0466279559456523,0.00248952298700607
1490546541.1,40.4592012963275,-79.9570515259258,14.5100002288818,0.404617309570312,-1.0201416015625,-0.0858154296875,-0.507381189824152,-0.0533953145916527,0.0447283231400988
1490546541.3,40.4591178971851,-79.957129398254,12.0600004196167,-0.434310913085938,-1.11962890625,-0.150726318359375,0.10795176741858,0.233733132019131,-0.239713526563013
1490546541.5,40.4591178971851,-79.957129398254,12.0600004196167,0.117431640625,-0.738998413085938,0.0021820068359375,-0.356964519875932,-0.102694154794546,0.0832235177488672
1490546541.7,40.4591178971851,-79.957129398254,12.0600004196167,-0.0442352294921875,-0.977447509765625,-0.051361083984375,-0.0490405135771551,0.016098009841202,-0.00786990733729316
1490546541.9,40.4591178971851,-79.957129398254,12.0600004196167,0.14556884765625,-1.092041015625,0.0284881591796875,0.0168556791713295,0.02846839310462,-0.0449384465501061
1490546542.1,40.4591178971851,-79.957129398254,12.0600004196167,0.099273681640625,-0.992919921875,0.10943603515625,-0.00426079142801777,0.084964692469561,-0.0434734416344535
1490546542.3,40.4590304110984,-79.9572013703471,9.59000015258789,0.119873046875,-1.00462341308594,0.0794219970703125,-0.0353028634100904,0.0244590040835057,-0.0304202238675391
1490546542.5,40.4590304110984,-79.9572013703471,9.59000015258789,0.046661376953125,-1.09934997558594,0.089599609375,-0.00105754126887047,0.0966373275273783,-0.0488194712066785
1490546542.7,40.4590304110984,-79.9572013703471,9.59000015258789,0.112518310546875,-0.948745727539062,-0.0093231201171875,-0.0870715192079227,-0.0525431030428273,0.0799022895534294
1490546542.9,40.4590304110984,-79.9572013703471,9.59000015258789,0.02203369140625,-1.03941345214844,0.0531005859375,0.036198218168575,0.0476223802966879,-0.0323438251229033
1490546543.1,40.4590304110984,-79.9572013703471,9.59000015258789,0.11199951171875,-1.01560974121094,0.03277587890625,-0.00512045982789535,0.0394544652334149,0.0108198908767739
1490546543.3,40.4589864160304,-79.9572282595431,7.36999988555908,0.02685546875,-0.924545288085938,0.08111572265625,-0.0296889198322033,0.0501241538247084,-0.00163970828316179
1490546543.5,40.4589864160304,-79.9572282595431,7.36999988555908,0.0686798095703125,-0.99908447265625,0.128814697265625,-0.0744742346196299,0.0800048212553974,-0.0180634227256804
1490546543.7,40.4589864160304,-79.9572282595431,7.36999988555908,0.0859375,-1.01292419433594,0.101516723632812,0.0660304160674246,-0.00664831534527381,-0.00725445080937584
1490546543.9,40.4589864160304,-79.9572282595431,7.36999988555908,0.112777709960938,-0.994110107421875,0.0950927734375,0.0424931320371953,0.0984970129165806,-0.0738971276114097
1490546544.1,40.4589864160304,-79.9572282595431,7.36999988555908,0.078643798828125,-1.00242614746094,0.208084106445312,-0.0297501725372752,0.0490192082884345,-0.0101727427318847
1490546544.3,40.4589819904052,-79.9572201362096,5.40999984741211,0.079132080078125,-0.996902465820312,0.1793212890625,-0.0307595105904152,0.0713615319375453,-0.013307815967126
1490546544.5,40.4589819904052,-79.9572201362096,5.40999984741211,0.062957763671875,-1.01142883300781,0.194168090820312,-0.0114768927176965,0.10002992844003,-0.014553909041174
1490546544.7,40.4589819904052,-79.9572201362096,5.40999984741211,0.123550415039062,-0.98876953125,0.144607543945312,-0.0116763634833434,0.0574158888893453,-0.022114090743691
1490546544.9,40.4589819904052,-79.9572201362096,5.40999984741211,0.0767669677734375,-1.065673828125,0.199844360351562,-0.0245327736457009,0.151919758067461,-0.0803859196073878
1490546545.1,40.4589819904052,-79.9572201362096,5.40999984741211,0.012054443359375,-0.977325439453125,0.168243408203125,-0.0223596341961963,0.0776122373320702,-0.035795015579537
1490546545.3,40.45897846824,-79.9572137051195,4.19999980926514,0.061431884765625,-0.981216430664062,0.061614990234375,-0.01058739691361,0.0393769672456936,-0.00937246282431586
1490546545.5,40.45897846824,-79.9572137051195,4.19999980926514,0.0825653076171875,-0.991912841796875,0.0883331298828125,-0.0552134546678498,0.0778644386873007,-0.00658306789856687
1490546545.7,40.45897846824,-79.9572137051195,4.19999980926514,0.0597686767578125,-0.975051879882812,0.157913208007812,0.01189740585382,0.0712225149286431,-0.0117184414285667
1490546545.9,40.45897846824,-79.9572137051195,4.19999980926514,0.0328521728515625,-0.989166259765625,0.12139892578125,-0.023358852237194,0.0946524735669422,-0.0346767542378128
1490546546.1,40.45897846824,-79.9572137051195,4.19999980926514,0.0594329833984375,-0.980880737304688,0.170745849609375,-0.0543726947117118,0.0872587394325552,-0.0449629476321348
1490546546.3,40.4589758934085,-79.9572090037577,2.91000008583069,0.0928955078125,-1.00517272949219,0.207778930664062,0.0363383004419132,0.103998571096466,-0.0407474299426484
1490546546.5,40.4589758934085,-79.9572090037577,2.91000008583069,0.0733642578125,-0.975296020507812,0.176132202148438,0.0224760143358327,0.105106446109939,-0.0416347952178628
1490546546.7,40.4589758934085,-79.9572090037577,2.91000008583069,0.000823974609375,-0.984344482421875,0.225372314453125,-0.0522413668913214,0.0808796696734884,-0.0418055038437369
1490546546.9,40.4589758934085,-79.9572090037577,2.91000008583069,0.03564453125,-0.971969604492188,0.147857666015625,-0.0223798742204809,0.0308769559944877,-0.0145738827493496
1490546547.1,40.4589758934085,-79.9572090037577,2.91000008583069,0.061920166015625,-0.991790771484375,0.21630859375,-0.00734579723476556,0.0988594691409404,-0.0338045689808118
1490546547.3,40.4589684678985,-79.9571954455852,1.70000004768372,0.00189208984375,-1.00282287597656,0.211532592773438,-0.0139120872184649,0.0339899249926813,-0.0253386461915589
1490546547.5,40.4589684678985,-79.9571954455852,1.70000004768372,0.0617218017578125,-0.972381591796875,0.213546752929688,-0.0394392852152015,0.0404915001618918,-0.0196666457019081
1490546547.7,40.4589684678985,-79.9571954455852,1.70000004768372,0.0397796630859375,-0.959136962890625,0.260040283203125,-0.0266361382746455,0.0372685426106779,-0.016637832594161
1490546547.9,40.4589684678985,-79.9571954455852,1.70000004768372,0.011627197265625,-0.949722290039062,0.272232055664062,-0.0106465190898098,0.0265932613810952,-0.0115338843650242
1490546548.1,40.4589684678985,-79.9571954455852,1.70000004768372,0.0464324951171875,-0.927337646484375,0.322921752929688,0.00225090375333497,0.0298076968168209,0.00217260681728664
1490546548.3,40.4588159529787,-79.9573085972108,1.27999997138977,0.0417633056640625,-0.940841674804688,0.383056640625,0.00224824059224489,0.065908443289499,-0.016939835061776
1490546548.5,40.4588159529787,-79.9573085972108,1.27999997138977,0.017181396484375,-0.906036376953125,0.435287475585938,-0.0062781359537528,-0.00307994580067664,0.0192682368028323
1490546548.7,40.4588159529787,-79.9573085972108,1.27999997138977,0.021759033203125,-0.891433715820312,0.454727172851562,-0.0105101652419977,0.0245655305271089,0.00978791595436822
1490546548.9,40.4588159529787,-79.9573085972108,1.27999997138977,-0.011077880859375,-0.869583129882812,0.411529541015625,-0.118256602940533,0.00790053368982907,0.00898870131123545
1490546549.1,40.4588134276271,-79.957319110924,1.75999999046326,0.160263061523438,-0.910995483398438,0.4271240234375,-0.0382949248947944,0.0341718188951337,-0.0047659930868058
1490546549.3,40.4588134276271,-79.957319110924,1.75999999046326,0.033721923828125,-0.931884765625,0.434906005859375,0.00434867574399039,0.243206262332652,-0.113602728935619
1490546549.5,40.4588134276271,-79.957319110924,1.75999999046326,-0.064971923828125,-0.878463745117188,0.347244262695312,-0.00197366868385772,0.0882518322030458,-0.0221668213332745
1490546549.7,40.4588134276271,-79.957319110924,1.75999999046326,-0.0104522705078125,-0.972061157226562,0.358169555664062,-0.0318093286921244,0.028903020994521,0.0111354754659483
1490546549.9,40.4588134276271,-79.957319110924,1.75999999046326,0.021575927734375,-0.959579467773438,0.350784301757812,-0.0202370948074031,0.0298151536678731,-0.012470784436514
1490546550.1,40.4588134276271,-79.957319110924,1.75999999046326,0.0455780029296875,-0.972900390625,0.304336547851562,-0.0511737056103086,0.0362797108979314,-0.0184605000442113
1490546550.3,40.4587787314302,-79.9573319762916,3.36999988555908,0.085205078125,-0.94281005859375,0.244644165039062,-0.0317342275493842,0.0831098007703208,-0.00580356064750068
1490546550.5,40.4587787314302,-79.9573319762916,3.36999988555908,0.0352630615234375,-0.910736083984375,0.160308837890625,-0.0296162155344442,0.0565463667934345,0.00583898068999873
1490546550.7,40.4587787314302,-79.9573319762916,3.36999988555908,0.0641021728515625,-0.938125610351562,0.293045043945312,0.0691215471446796,0.0283059402781252,-0.041338651704646
1490546550.9,40.4587787314302,-79.9573319762916,3.36999988555908,0.089019775390625,-0.938247680664062,0.319931030273438,0.00967792740134795,-0.0233354164196013,0.0243506134271395
1490546551.1,40.458743692727,-79.9573402610108,3.79999995231628,0.101242065429688,-0.91229248046875,0.29779052734375,-0.025407355747683,0.0734819407974663,-0.0112382734840254
1490546551.3,40.458743692727,-79.9573402610108,3.79999995231628,0.186248779296875,-0.89410400390625,0.326675415039062,-0.048968608227723,0.130827522234034,-0.0566622143008529
1490546551.5,40.458743692727,-79.9573402610108,3.79999995231628,0.165435791015625,-0.93560791015625,0.371002197265625,-0.102171376272563,0.214970096875087,-0.0845846593820067
1490546551.7,40.458743692727,-79.9573402610108,3.79999995231628,0.281600952148438,-0.900375366210938,0.333084106445312,-0.02130901714616,0.298460729681289,-0.152606320996484
1490546551.9,40.458743692727,-79.9573402610108,3.79999995231628,0.30963134765625,-0.90155029296875,0.26593017578125,-0.033675671984052,0.428350020263288,-0.156416239251951
1490546552.1,40.458743692727,-79.9573402610108,3.79999995231628,0.145736694335938,-0.881179809570312,0.226119995117188,-0.0474809664428047,0.396580905303624,-0.131785993910353
1490546552.3,40.4587032668481,-79.9573452960069,4.78000020980835,0.28399658203125,-0.881378173828125,0.245849609375,-0.0283384308434242,0.3402033829233,-0.109764581172597
1490546552.5,40.4587032668481,-79.9573452960069,4.78000020980835,0.393539428710938,-0.958023071289062,0.353073120117188,-0.0768684164396111,0.414000109361614,-0.0716528817607999
1490546552.7,40.4587032668481,-79.9573452960069,4.78000020980835,0.25079345703125,-0.88983154296875,0.33843994140625,-0.121961326332942,0.485076150430303,-0.155161890378524
1490546552.9,40.4587032668481,-79.9573452960069,4.78000020980835,0.230026245117188,-0.95172119140625,0.436813354492188,0.0165480840654254,0.343311025599314,-0.0953992239366005
1490546553.1,40.4586585865752,-79.9573244116246,5.8600001335144,0.396820068359375,-0.929061889648438,0.299636840820312,-0.0130028840223119,0.432820402469095,-0.0969502489554626
1490546553.3,40.4586585865752,-79.9573244116246,5.8600001335144,0.233901977539062,-0.9295654296875,0.436752319335938,0.0252678061065628,0.406064421945396,-0.0996317858570634
1490546553.5,40.4586585865752,-79.9573244116246,5.8600001335144,0.219512939453125,-0.823989868164062,0.405776977539062,-0.0471954755739482,0.207773969293584,0.00854288814475618
1490546553.7,40.4586585865752,-79.9573244116246,5.8600001335144,0.209152221679688,-0.9681396484375,0.513717651367188,-0.0199550660479637,0.415462184800067,-0.170483855078076
1490546553.9,40.4586585865752,-79.9573244116246,5.8600001335144,0.231948852539062,-0.853775024414062,0.42425537109375,0.0917325837477794,0.321453397268597,-0.160391273495003
1490546554.1,40.4586585865752,-79.9573244116246,5.8600001335144,-0.042999267578125,-1.18124389648438,0.297500610351562,0.0307818811435719,0.237342247928407,0.0150828128336638
1490546554.3,40.4586070654642,-79.9572680770893,7.75,0.3277587890625,-0.908340454101562,0.519287109375,-0.0274766319146745,0.316695393665062,-0.127958498791691
1490546554.5,40.4586070654642,-79.9572680770893,7.75,1.10000610351562,-0.782745361328125,0.12005615234375,-0.470134485134413,1.14418561703954,-0.586443252053662
1490546554.7,40.4586070654642,-79.9572680770893,7.75,0.1309814453125,-0.918212890625,0.41021728515625,0.133831834259752,0.276016673278537,-0.059722719025572
1490546554.9,40.4586070654642,-79.9572680770893,7.75,0.223434448242188,-0.836807250976562,0.470748901367188,-0.0974445316537813,0.17705440611952,0.00378009085125847
1490546555.1,40.4586070654642,-79.9572680770893,7.75,0.0738525390625,-0.961761474609375,0.521682739257812,0.021509819492352,0.0128002174633569,0.0210837137179393
1490546555.3,40.4585748274031,-79.9572288639763,9.6899995803833,0.277862548828125,-0.871383666992188,0.407150268554688,-0.0274886161395799,0.163781743878783,-0.0504615763348214
1490546555.5,40.4585748274031,-79.9572288639763,9.6899995803833,0.141403198242188,-0.870635986328125,0.3853759765625,-0.0542145029429611,0.116039787649151,-0.0363675952139041
1490546555.7,40.4585748274031,-79.9572288639763,9.6899995803833,0.136566162109375,-0.960784912109375,0.4080810546875,-0.000932905329854757,0.144507914437662,-0.0551095913853367
1490546555.9,40.4585748274031,-79.9572288639763,9.6899995803833,-0.051025390625,-0.718368530273438,0.518783569335938,-0.103978064756073,-0.0566249300455918,0.104635599229213
1490546556.1,40.4585748274031,-79.9572288639763,9.6899995803833,0.33416748046875,-0.946395874023438,0.51177978515625,0.0289634747512658,0.200713929243784,-0.0777557817148255
1490546556.3,40.4585236526306,-79.9570722274974,11.5900001525879,-0.058502197265625,-0.839248657226562,0.451080322265625,-0.0108036455941244,0.00630769704185268,-0.0243753808252773
1490546556.5,40.4585236526306,-79.9570722274974,11.5900001525879,0.008636474609375,-0.898025512695312,0.474288940429688,-0.0166234515242746,-0.0113155051556377,0.0705687088810287
1490546556.7,40.4585236526306,-79.9570722274974,11.5900001525879,0.024993896484375,-0.923355102539062,0.422088623046875,-0.0190711628821664,-0.0051590756637015,0.0204927582720507
1490546556.9,40.4585236526306,-79.9570722274974,11.5900001525879,-0.0083770751953125,-0.911056518554688,0.436370849609375,-0.0361247149224888,-0.00615882633691725,0.0217740050724879
1490546557.1,40.4585236526306,-79.9570722274974,11.5900001525879,-0.011688232421875,-0.950103759765625,0.322525024414062,0.0106361327615585,-0.0520847730192247,0.0232059867906235
1490546557.3,40.4584785970063,-79.956931266685,13.460000038147,-0.0353546142578125,-0.91632080078125,0.393966674804688,0.0904518695795603,-0.0715753837730786,0.0114808874593316
1490546557.5,40.4584785970063,-79.956931266685,13.460000038147,-0.0083465576171875,-0.92083740234375,0.413238525390625,-0.0416222783607394,-0.0211236611342905,0.00474708464306624
1490546557.7,40.4584785970063,-79.956931266685,13.460000038147,0.0774383544921875,-0.874954223632812,0.39642333984375,-0.0150532517455639,0.0371263298084676,-0.038113829940669
1490546557.9,40.4584785970063,-79.956931266685,13.460000038147,-0.0189666748046875,-0.967208862304688,0.37139892578125,0.000133690686721978,-0.0232664405473683,0.0319371604244482
1490546558.1,40.4584785970063,-79.956931266685,13.460000038147,-0.0316619873046875,-0.90655517578125,0.396621704101562,-0.0873021489583235,-0.0282830370927505,0.033038910167414
1490546558.3,40.4584249024012,-79.9567786330942,15.1599998474121,-0.049713134765625,-0.9862060546875,0.369705200195312,-0.0152609783105901,-0.0139882536256412,-0.0424941973016313
1490546558.5,40.4584249024012,-79.9567786330942,15.1599998474121,-0.111419677734375,-0.904022216796875,0.276229858398438,-0.0449887802947086,-0.0732611647430988,0.00680304500460741
1490546558.7,40.4584249024012,-79.9567786330942,15.1599998474121,0.013031005859375,-0.998504638671875,0.354156494140625,0.0233079858603735,-0.0129264512990266,-0.0152561846206279
1490546558.9,40.4584249024012,-79.9567786330942,15.1599998474121,-0.1234130859375,-1.10319519042969,0.416702270507812,0.0976482634771724,-0.071788702976394,-0.0280683863088901
1490546559.1,40.4584249024012,-79.9567786330942,15.1599998474121,0.3125,-0.5731201171875,0.413330078125,-0.371157304273291,0.215671839822323,-0.13127946067102
1490546559.3,40.4583627814336,-79.956614621605,16.1900005340576,0.0957794189453125,-1.0592041015625,0.186065673828125,-0.0665619830210045,0.583916178495286,-0.371055038887432
1490546559.5,40.4583627814336,-79.956614621605,16.1900005340576,-0.224014282226562,-0.862380981445312,0.366531372070312,0.0434840942788138,-0.127731863782925,0.0322117323328354
1490546559.7,40.4583627814336,-79.956614621605,16.1900005340576,-0.0059814453125,-0.892471313476562,0.2684326171875,-0.0651060328530581,-0.0911445577790899,0.0368775905626542
1490546559.9,40.4583627814336,-79.956614621605,16.1900005340576,0.0570526123046875,-0.943328857421875,0.192306518554688,-0.00540035805846268,0.0148351388522864,-0.0180261384704193
1490546560.1,40.4583627814336,-79.956614621605,16.1900005340576,0.0617523193359375,-0.93780517578125,0.1934814453125,-0.0822128481151821,-0.0295331249084337,-0.00222027740079906
1490546560.3,40.4583068974179,-79.9564529087543,16.0200004577637,0.0608367919921875,-0.957931518554688,0.208221435546875,0.00923717424093984,0.0740438677874731,-0.0916588141855842
1490546560.5,40.4583068974179,-79.9564529087543,16.0200004577637,0.0424652099609375,-1.00349426269531,0.26959228515625,-0.00439315053419471,-0.0244981525515299,-0.00639877715113339
1490546560.7,40.4583068974179,-79.9564529087543,16.0200004577637,0.0464630126953125,-0.950668334960938,0.182952880859375,-0.0352400128083645,0.00963744735277875,-0.0133925044897905
1490546560.9,40.4583068974179,-79.9564529087543,16.0200004577637,0.0858001708984375,-0.998855590820312,0.190704345703125,0.0298010389140957,-0.0447360463072601,0.0155139786141476
1490546561.1,40.4583068974179,-79.9564529087543,16.0200004577637,0.0388336181640625,-0.984344482421875,0.14801025390625,-0.0178897846226073,0.025711755060279,0.0216150143554101
1490546561.3,40.4582376090629,-79.9562786523724,16.5400009155273,0.0393829345703125,-1.08380126953125,0.275238037109375,-0.0746398832394328,-0.0942537983517574,0.0476559361264229
1490546561.5,40.4582376090629,-79.9562786523724,16.5400009155273,-0.02996826171875,-1.02072143554688,0.268341064453125,0.00948857664784332,-0.071251543384525,0.0210437663015881
1490546561.7,40.4582376090629,-79.9562786523724,16.5400009155273,-0.24163818359375,-0.917694091796875,0.242889404296875,-0.0518208537551978,-0.120574352037229,0.125152858583293
1490546561.9,40.4582376090629,-79.9562786523724,16.5400009155273,-0.128128051757812,-1.12467956542969,0.231201171875,-0.00112039187059634,-0.0892292123231049,0.0382001163599876
1490546562.1,40.4582376090629,-79.9562786523724,16.5400009155273,-0.2930908203125,-1.00753784179688,0.3109130859375,-0.0395466106071316,-0.299373394986859,0.140582148674776
1490546562.3,40.4581570288958,-79.9561098923855,16.2099990844727,-0.197021484375,-0.980148315429688,0.091400146484375,0.0775690941224109,-0.0726558282273238,-0.00115448033254935
1490546562.5,40.4581570288958,-79.9561098923855,16.2099990844727,-0.4376220703125,-0.915908813476562,0.239974975585938,-0.0205928931290377,-0.19873120581222,0.0531263353215547
1490546562.7,40.4581570288958,-79.9561098923855,16.2099990844727,-0.272018432617188,-1.22906494140625,0.0305328369140625,0.22446160300013,-0.0552768379017937,-0.045641254761778
1490546562.9,40.4581570288958,-79.9561098923855,16.2099990844727,0.207138061523438,-1.4669189453125,0.127609252929688,-0.478449673005968,-0.365573454415722,0.228131971614477
1490546563.1,40.4581570288958,-79.9561098923855,16.2099990844727,-0.160812377929688,-1.17413330078125,0.106857299804688,0.216829249632071,0.309903267620924,-0.260120264731854
1490546563.3,40.4580617852878,-79.9559663038038,15.9700002670288,-0.443466186523438,-0.966995239257812,0.32086181640625,0.035862659871225,-0.277537338260973,0.0863516667652743
1490546563.5,40.4580617852878,-79.9559663038038,15.9700002670288,-0.385299682617188,-1.09028625488281,0.321319580078125,0.212574317158452,-0.131801440244676,-0.0296694787562458
1490546563.7,40.4580617852878,-79.9559663038038,15.9700002670288,-0.07818603515625,-1.26823425292969,0.0876922607421875,0.133253661987096,0.00727176135646136,-0.164840616728199
1490546563.9,40.4580617852878,-79.9559663038038,15.9700002670288,-0.199172973632812,-0.89532470703125,0.528701782226562,-0.0246257179677447,-0.430342863706994,0.366170268816009
1490546564.1,40.4580617852878,-79.9559663038038,15.9700002670288,-0.075408935546875,-1.08010864257812,0.229782104492188,-0.071723189213578,-0.0456183515764033,-0.0194533264985928
1490546564.3,40.4579550502102,-79.9558452698595,15.8999996185303,-0.184066772460938,-0.954681396484375,0.35528564453125,0.0750249763330583,-0.00391857522794259,-0.0980075239082241
1490546564.5,40.4579550502102,-79.9558452698595,15.8999996185303,0.127151489257812,-0.985580444335938,0.381607055664062,-0.0562156021860466,-0.116095980348151,-0.0550041302061696
1490546564.7,40.4579550502102,-79.9558452698595,15.8999996185303,-0.290283203125,-0.876632690429688,0.548477172851562,0.0833156631225839,-0.0214131467447821,0.03408153773418
1490546564.9,40.4579550502102,-79.9558452698595,15.8999996185303,-0.356658935546875,-0.842117309570312,0.439056396484375,-0.0562747243622464,-0.342617804767566,0.21214528190684
1490546565.1,40.4579550502102,-79.9558452698595,15.8999996185303,-0.020660400390625,-0.91986083984375,0.326095581054688,0.0433000698474893,-0.0758311151950252,-0.0220536369869462
1490546565.3,40.4578351891426,-79.9557484593095,16.1200008392334,-0.058258056640625,-0.820510864257812,0.362442016601562,-0.0472966756953712,-0.127531327752842,0.00884062955462704
1490546565.5,40.4578351891426,-79.9557484593095,16.1200008392334,0.14874267578125,-0.937942504882812,0.302032470703125,-0.0586563893251042,0.0182402566220617,-0.0120081933551673
1490546565.7,40.4578351891426,-79.9557484593095,16.1200008392334,0.1002197265625,-0.906585693359375,0.379898071289062,-0.0690507070596835,0.0205886320712936,0.0265202907672271
1490546565.9,40.4578351891426,-79.9557484593095,16.1200008392334,0.0420684814453125,-0.900497436523438,0.367950439453125,0.00443336426665491,0.00116593192523669,0.0244736514695012
1490546566.1,40.4578351891426,-79.9557484593095,16.1200008392334,0.019378662109375,-0.828216552734375,0.346160888671875,-0.142536642598785,-0.0608649488171069,0.0805893851146698
1490546566.3,40.4576922066924,-79.9556595727193,17.0,-0.0020599365234375,-0.94573974609375,0.356216430664062,0.0248542171892735,-0.0540041132168448,0.0774074402442431
1490546566.5,40.4576922066924,-79.9556595727193,17.0,0.103103637695312,-0.949066162109375,0.371200561523438,0.0213265940093545,0.0710725789592717,-0.036366263633359
1490546566.7,40.4576922066924,-79.9556595727193,17.0,0.087738037109375,-0.901611328125,0.409805297851562,-0.0404377043078722,0.0352336212217483,-0.00686909139964138
1490546566.9,40.4576922066924,-79.9556595727193,17.0,-0.118240356445312,-0.858856201171875,0.33343505859375,-0.0416566331388014,-0.151754375763767,0.0673657250379904
1490546567.1,40.4576922066924,-79.9556595727193,17.0,-0.110244750976562,-0.863449096679688,0.288314819335938,0.00306023840861005,-0.0393964083216512,-0.000129429628977851
1490546567.3,40.4575479397581,-79.9555759197656,17.6700000762939,0.390625,-1.01911926269531,0.278167724609375,0.109854329701333,0.253431203021902,-0.125586687524867
1490546567.5,40.4575479397581,-79.9555759197656,17.6700000762939,0.06781005859375,-0.954833984375,0.3443603515625,-0.00346397362986607,0.087957020270374,-0.085066691539311
1490546567.7,40.4575479397581,-79.9555759197656,17.6700000762939,-0.10968017578125,-0.871231079101562,0.362747192382812,-0.0470263648447282,-0.179371356267889,0.0759019552800213
1490546567.9,40.4575479397581,-79.9555759197656,17.6700000762939,-0.018157958984375,-0.843170166015625,0.3616943359375,-0.0305983893444654,-0.0771829357643495,0.0876579472799581
1490546568.1,40.4575479397581,-79.9555759197656,17.6700000762939,0.10626220703125,-0.91668701171875,0.3658447265625,-0.0488532933525226,0.0470231690514201,0.00392922787230291
1490546568.3,40.4574015669175,-79.955484845144,18.2000007629395,0.116165161132812,-0.972900390625,0.311965942382812,0.0425357426146366,0.0656099029313011,-0.0505121763955329
1490546568.5,40.4574015669175,-79.955484845144,18.2000007629395,0.169754028320312,-0.940643310546875,0.262405395507812,0.0188269510102062,0.121789818758741,-0.117265108066696
1490546568.7,40.4574015669175,-79.955484845144,18.2000007629395,0.145462036132812,-0.949417114257812,0.29071044921875,-0.0351313558358893,0.102094144600951,-0.0451738699904691
1490546568.9,40.4574015669175,-79.955484845144,18.2000007629395,0.0385284423828125,-0.938995361328125,0.199996948242188,0.0330277248908357,0.0104885936371681,-0.00892771492227263
1490546569.1,40.4574015669175,-79.955484845144,18.2000007629395,-0.009552001953125,-0.96759033203125,0.333023071289062,-0.00623952011794665,-0.010485664159969,0.0288484261921743
1490546569.3,40.4572465768625,-79.9553896329278,18.6399993896484,0.0749969482421875,-0.99755859375,0.308792114257812,-0.00548637816167224,-0.0117714383342592,-0.0170197298944784
1490546569.5,40.4572465768625,-79.9553896329278,18.6399993896484,0.075439453125,-0.97271728515625,0.290374755859375,-0.0341976515577075,0.0212972992373637,-0.0229766886207676
1490546569.7,40.4572465768625,-79.9553896329278,18.6399993896484,0.0683135986328125,-1.08087158203125,0.31402587890625,0.0460732194905888,0.0191164366206978,0.0239846950933626
1490546569.9,40.4572465768625,-79.9553896329278,18.6399993896484,-0.0952911376953125,-1.01296997070312,0.406036376953125,0.0909224501441773,-0.103099487912456,0.0977816878477853
1490546570.1,40.4572465768625,-79.9553896329278,18.6399993896484,0.072265625,-0.876953125,0.297439575195312,0.00354626530754951,-0.033745180488503,0.0691939851263298
1490546570.3,40.4570880268941,-79.9552846955653,18.8600006103516,-0.006622314453125,-0.913223266601562,0.173690795898438,0.00662195005048203,-0.0359662568376291,0.0520871698642058
1490546570.5,40.4570880268941,-79.9552846955653,18.8600006103516,0.0357818603515625,-0.892303466796875,0.35589599609375,-0.0616993171866288,0.0236699094525153,0.0083048015433031
1490546570.7,40.4570880268941,-79.9552846955653,18.8600006103516,0.072784423828125,-0.972061157226562,0.200546264648438,0.0608409803672962,0.0847878585731797,-0.0336386540448999
1490546570.9,40.4570880268941,-79.9552846955653,18.8600006103516,0.0881195068359375,-0.886566162109375,0.210968017578125,0.00202506769289625,0.0349579840489251,-0.0340706187737107
1490546571.1,40.4570880268941,-79.9552846955653,18.8600006103516,-0.0082550048828125,-0.972549438476562,0.298431396484375,-0.0584939364986094,-0.033675671984052,0.0390581868632111
1490546571.3,40.4569379356809,-79.9551789500344,19.2000007629395,0.11358642578125,-0.921157836914062,0.181076049804688,0.0109589078856761,0.0851199547611126,5.5926382891664e-05
1490546571.5,40.4569379356809,-79.9551789500344,19.2000007629395,0.061309814453125,-0.961624145507812,0.220489501953125,0.0406084129337462,0.0933693625537421,-0.0344277486758903
1490546571.7,40.4569379356809,-79.9551789500344,19.2000007629395,0.066925048828125,-0.924484252929688,0.24737548828125,-0.0671300352815184,0.0544113105475179,-0.0224813406580129
1490546571.9,40.4569379356809,-79.9551789500344,19.2000007629395,0.0141448974609375,-0.974517822265625,0.211837768554688,-0.00734100354480342,0.0224102342569078,0.00654338679832469
1490546572.1,40.4569379356809,-79.9551789500344,19.2000007629395,0.02618408203125,-0.924835205078125,0.12750244140625,0.0318804350932296,-0.00655430575879401,-0.0121514714218135
1490546572.3,40.4568253560778,-79.955111235624,19.1499996185303,0.0098419189453125,-0.977890014648438,0.201034545898438,-0.0406584803622397,-0.00527172737781185,-0.0186897982140671
1490546572.5,40.4568253560778,-79.955111235624,19.1499996185303,-0.013916015625,-0.938095092773438,0.189407348632812,-0.0494623582938237,0.0062445801240178,-0.0654732827673801
1490546572.7,40.4568253560778,-79.955111235624,19.1499996185303,0.00335693359375,-0.991424560546875,0.258941650390625,-0.00138377850240517,0.0178314613947345,-0.0564611456385519
1490546572.9,40.4568253560778,-79.955111235624,19.1499996185303,0.11163330078125,-0.91473388671875,0.140380859375,0.0608601551271448,0.18036711219947,-0.0803414448171834
1490546573.1,40.4568253560778,-79.955111235624,19.1499996185303,0.2237548828125,-1.18511962890625,0.411026000976562,-0.00343121674845809,0.250133943276275,-0.00578039114601699
1490546573.3,40.4566317983348,-79.9549855013191,19.1599998474121,0.026947021484375,-0.711944580078125,0.05255126953125,-0.0344634350344974,-0.0602055501312033,0.296762431854146
1490546573.5,40.4566317983348,-79.9549855013191,19.1599998474121,0.01715087890625,-0.765289306640625,0.0978240966796875,-0.176056253342958,0.105627893051377,-0.0753637304237163
1490546573.7,40.4566317983348,-79.9549855013191,19.1599998474121,-0.160202026367188,-0.894424438476562,0.245895385742188,-0.00120454776104284,-0.173927854999767,-0.088896050870736
1490546573.9,40.4566317983348,-79.9549855013191,19.1599998474121,0.0205841064453125,-0.964370727539062,0.209365844726562,-0.0590271013488433,-0.12855478055976,0.00898763604679941
1490546574.1,40.4566317983348,-79.9549855013191,19.1599998474121,0.0429229736328125,-0.905487060546875,0.291580200195312,-0.0833665294994044,-0.0402094714024524,-0.00969497163232446
1490546574.3,40.456475098655,-79.9548883550614,18.6000003814697,0.0031585693359375,-0.879623413085938,0.265121459960938,-0.0842320568536802,-0.0464356757149486,0.0233604501338481
1490546574.5,40.456475098655,-79.9548883550614,18.6000003814697,-0.0554962158203125,-0.959976196289062,0.308502197265625,-0.0190120407059667,-0.0783845540481932,0.0672458827889368
1490546574.7,40.456475098655,-79.9548883550614,18.6000003814697,0.0052337646484375,-0.914871215820312,0.175384521484375,-0.0158269000422319,-0.0104470483241628,0.0300369949866767
1490546574.9,40.456475098655,-79.9548883550614,18.6000003814697,-0.0131378173828125,-0.895660400390625,0.288803100585938,0.0404409001011803,-0.03841689767272,0.00899456026563362
1490546575.1,40.456475098655,-79.9548883550614,18.6000003814697,0.0013580322265625,-0.90557861328125,0.24493408203125,-0.0543947989487594,-0.0316830948564547,0.0134167392557102
1490546575.3,40.4563200753559,-79.9547925499081,18.8899993896484,-0.023345947265625,-0.913192749023438,0.173553466796875,-0.0859758947354641,-0.0748247066190843,0.0958333191942834
1490546575.5,40.4563200753559,-79.9547925499081,18.8899993896484,0.010650634765625,-0.877151489257812,0.1517333984375,-0.0273778286382326,-0.0421376000316697,0.0727676809931071
1490546575.7,40.4563200753559,-79.9547925499081,18.8899993896484,0.10968017578125,-0.954605102539062,0.127105712890625,0.0108582403964711,0.0850491146761165,-0.0148726894236565
1490546575.9,40.4563200753559,-79.9547925499081,18.8899993896484,0.111129760742188,-0.945907592773438,0.249969482421875,-0.0423919319157723,0.077839937605272,-0.00248073455540881
1490546576.1,40.4563200753559,-79.9547925499081,18.8899993896484,0.2879638671875,-1.13481140136719,0.142730712890625,0.206585400499082,0.193431248926853,-0.13762018091039
1490546576.3,40.4563200753559,-79.9547925499081,18.8899993896484,0.0999908447265625,-0.96844482421875,0.142898559570312,-0.0557388963509224,0.0445775882224003,-0.0674381630196405
1490546576.5,40.4563200753559,-79.9547925499081,18.8899993896484,0.0510711669921875,-0.9873046875,0.181350708007812,0.0394262357258601,-0.0298822653273431,0.0122263062484448
1490546576.7,40.4561717994888,-79.954694481641,19.0499992370605,-0.0348358154296875,-1.00051879882812,0.196060180664062,0.0309251592102181,-0.0691212808285706,0.0367718630673781
1490546576.9,40.4561717994888,-79.954694481641,19.0499992370605,0.0127716064453125,-0.949432373046875,0.194290161132812,-0.0407476962587574,-0.0860344842794458,0.00991894348000012
1490546577.1,40.4561717994888,-79.954694481641,19.0499992370605,0.0210418701171875,-0.98638916015625,0.0622711181640625,-0.0289696000217729,-0.0202051368743222,-0.0167400979800201
1490546577.3,40.4561717994888,-79.954694481641,19.0499992370605,0.095550537109375,-0.961639404296875,0.234771728515625,-0.00751730480896667,0.0212243286234955,-0.0190509228578818
1490546577.5,40.4561717994888,-79.954694481641,19.0499992370605,-0.02032470703125,-0.95526123046875,0.239471435546875,0.0254606189694845,-0.0500839400922482,0.00702568527173804
1490546577.7,40.4561717994888,-79.954694481641,19.0499992370605,-0.0249786376953125,-0.9481201171875,0.111160278320312,-0.00641315822101981,-0.0477723162660594,0.0223665584150305
1490546577.9,40.4561717994888,-79.954694481641,19.0499992370605,0.0162353515625,-0.960052490234375,0.23077392578125,-0.0703308885956846,-0.0241556700353457,0.0179025677958397
1490546578.1,40.4560143035282,-79.95459415026,19.25,-0.02362060546875,-0.947280883789062,0.248825073242188,0.00564590151096798,-0.00616761476851451,0.0500352042442997
1490546578.3,40.4558567656581,-79.9544939026981,19.2099990844727,-0.0404205322265625,-0.928253173828125,0.255950927734375,-0.0394557968139599,-0.0338490437710161,0.0164207849653196
1490546578.5,40.4558567656581,-79.9544939026981,19.2099990844727,0.13037109375,-1.00495910644531,0.186386108398438,0.0744606524980705,0.098375040138655,-0.0764372506591273
1490546578.7,40.4558567656581,-79.9544939026981,19.2099990844727,0.104476928710938,-0.954132080078125,0.06195068359375,-0.0477965510319791,-0.0273160433009427,0.041069406118439
1490546578.9,40.4558567656581,-79.9544939026981,19.2099990844727,-0.0881195068359375,-1.00001525878906,0.329818725585938,-0.0170532857242134,-0.142224520119028,0.0745392157502278
1490546579.1,40.4558567656581,-79.9544939026981,19.2099990844727,-0.019989013671875,-1.02973937988281,0.10888671875,0.056331183377356,-0.00987393605757778,-0.0210016883563649
1490546579.3,40.4556894209613,-79.95440371342,19.4799995422363,0.10076904296875,-1.01162719726562,0.305343627929688,-0.11864116340194,0.00869175884969161,-0.0485907056690407
1490546579.5,40.4556894209613,-79.95440371342,19.4799995422363,0.0012969970703125,-0.99591064453125,0.281936645507812,0.0327454298152873,-0.0332455714680042,-0.0282199201749156
1490546579.7,40.4556894209613,-79.95440371342,19.4799995422363,0.020172119140625,-0.89068603515625,0.1142578125,0.0266939288703002,-0.0351041915927705,0.0241069341873973
1490546579.9,40.4556894209613,-79.95440371342,19.4799995422363,0.0257568359375,-1.02845764160156,0.204421997070312,-0.0826647865521686,-0.00573671530413969,0.0767544331449557
1490546580.1,40.4556894209613,-79.95440371342,19.4799995422363,0.089080810546875,-0.994644165039062,0.19677734375,0.0405524865508546,0.0200629240721119,-0.00473589936648791
1490546580.3,40.4555229144548,-79.9543198943883,19.4099998474121,0.033905029296875,-0.91229248046875,0.214035034179688,-0.125666848673678,-0.0918497628357429,0.0685729359601233
1490546580.5,40.4555229144548,-79.9543198943883,19.4099998474121,-0.0176239013671875,-0.902435302734375,0.155685424804688,-0.0567690070605651,-0.0414025675708079,-0.0175012294195647
1490546580.7,40.4555229144548,-79.9543198943883,19.4099998474121,0.0192413330078125,-0.963226318359375,0.231369018554688,-0.043322973032864,-0.0494823320019993,0.0836179319063079
1490546580.9,40.4555229144548,-79.9543198943883,19.4099998474121,0.0045928955078125,-0.8658447265625,0.195236206054688,-0.102095209865387,-0.0950341045511506,0.0874608733592923
1490546581.1,40.4555229144548,-79.9543198943883,19.4099998474121,0.160018920898438,-1.05908203125,0.227386474609375,0.0210624084292187,-0.000256728729083639,-0.0386595116480263
1490546581.3,40.455360934176,-79.9542268552631,19.7199993133545,-0.0141754150390625,-0.8924560546875,0.136001586914062,-0.0864038647226398,0.0958306560331933,-0.0562659359306491
1490546581.5,40.455360934176,-79.9542268552631,19.7199993133545,0.023956298828125,-0.976577758789062,0.284408569335938,0.070513581446464,0.0476447508498446,-0.00292122139970792
1490546581.7,40.455360934176,-79.9542268552631,19.7199993133545,-0.0583038330078125,-1.05325317382812,0.167816162109375,-0.0245894989769196,0.0149022505117564,-0.0177816602823501
1490546581.9,40.455360934176,-79.9542268552631,19.7199993133545,-0.0240478515625,-0.960525512695312,0.255905151367188,-0.0224634974787094,0.0233852175319858,-0.0231212982679589
1490546582.1,40.455360934176,-79.9542268552631,19.7199993133545,0.09039306640625,-0.9024658203125,0.299224853515625,0.0755176611347229,0.0548294268386604,-0.0552225094155561
1490546582.3,40.4551980318878,-79.9541364145279,19.3199996948242,0.026702880859375,-0.921524047851562,0.196334838867188,-0.0415844614732603,-0.0062312643185674,0.00264798107186579
1490546582.5,40.4551980318878,-79.9541364145279,19.3199996948242,-0.03125,-1.04377746582031,0.140853881835938,0.0541311460008416,-0.0067287428101942,-0.0326969602834478
1490546582.7,40.4551980318878,-79.9541364145279,19.3199996948242,0.107269287109375,-0.9033203125,0.1820068359375,0.0250464974199772,0.116333800633495,-0.140817838431248
1490546582.9,40.4551980318878,-79.9541364145279,19.3199996948242,-0.035430908203125,-0.830612182617188,0.31646728515625,-0.228835312458367,-0.0722062866353184,0.0955254577722702
1490546583.1,40.4550369317089,-79.9540491589158,19.4799995422363,0.0333404541015625,-0.958984375,0.306411743164062,0.0641190653530748,-0.0234749660607215,0.0343212222322872
1490546583.3,40.4550369317089,-79.9540491589158,19.4799995422363,0.054779052734375,-1.04776000976562,0.202041625976562,0.155700647867047,-0.0174948378329485,0.0150399359401135
1490546583.5,40.4550369317089,-79.9540491589158,19.4799995422363,0.04742431640625,-0.9853515625,0.18206787109375,0.0663579848815044,-0.0319020066980592,0.0545351475382066
1490546583.7,40.4550369317089,-79.9540491589158,19.4799995422363,0.17724609375,-1.11871337890625,0.122909545898438,0.0851532442747386,0.123844447539737,-0.0850461851989174
1490546583.9,40.4550369317089,-79.9540491589158,19.4799995422363,-0.0051422119140625,-0.983840942382812,0.34100341796875,-0.0339513091568752,0.0650061643121802,-0.00901613187046326
1490546584.1,40.4550369317089,-79.9540491589158,19.4799995422363,0.0238494873046875,-0.986236572265625,0.197845458984375,-0.0540392669432339,0.02272102515612,0.0380645614605025
1490546584.3,40.4548719339449,-79.95395964019,19.6499996185303,0.078033447265625,-1.06216430664062,0.0965728759765625,-0.0882326574431972,0.0206608037368347,0.0278310986557641
1490546584.5,40.4548719339449,-79.95395964019,19.6499996185303,-0.019378662109375,-0.88037109375,0.153366088867188,0.086344476230331,0.0326104075480203,-0.0191534545598499
1490546584.7,40.4548719339449,-79.95395964019,19.6499996185303,0.102371215820312,-0.803024291992188,0.11737060546875,-0.0674261787947352,0.0435844954519098,-0.0608931783246618
1490546584.9,40.4548719339449,-79.95395964019,19.6499996185303,0.0724029541015625,-0.846420288085938,0.205535888671875,-0.167370087131556,0.158801100008117,-0.0796178639490089
1490546585.1,40.4547129292418,-79.9538655114173,19.0900001525879,0.127090454101562,-0.998001098632812,0.117019653320312,0.00740039203711219,0.0785065268261188,-0.0500352042442997
1490546585.3,40.4547129292418,-79.9538655114173,19.0900001525879,0.03338623046875,-0.855758666992188,0.375503540039062,0.122487566964341,0.156646602686243,-0.0993095433651638
1490546585.5,40.4547129292418,-79.9538655114173,19.0900001525879,-0.279205322265625,-0.87359619140625,0.325103759765625,-0.0734806092169213,0.133042206996543,-0.0563450318150245
1490546585.7,40.4547129292418,-79.9538655114173,19.0900001525879,0.156143188476562,-0.991714477539062,0.037750244140625,-0.088124799419049,-0.179951392753308,0.147873351107195
1490546585.9,40.4547129292418,-79.9538655114173,19.0900001525879,0.2003173828125,-1.06605529785156,0.185379028320312,0.00486160056993965,0.189721199212264,-0.168118968030086
1490546586.1,40.4545605881516,-79.9537736457586,18.7299995422363,-0.0244293212890625,-0.919281005859375,0.198272705078125,-0.0128620028006467,-0.163835539732803,0.233331261010638
1490546586.3,40.4545605881516,-79.9537736457586,18.7299995422363,0.301589965820312,-1.11849975585938,0.147796630859375,-0.241582266699922,-0.0795622038822262,0.106334962320793
1490546586.5,40.4545605881516,-79.9537736457586,18.7299995422363,0.126220703125,-1.11903381347656,0.0480499267578125,0.0174586188421235,-0.0656112345118462,0.0934710953073831
1490546586.7,40.4545605881516,-79.9537736457586,18.7299995422363,0.0108642578125,-1.26187133789062,0.00341796875,-0.0713354329588625,0.151095243393973,-0.0637957575967391
1490546586.9,40.4545605881516,-79.9537736457586,18.7299995422363,0.0485382080078125,-1.0279541015625,0.31695556640625,-0.0331837861307143,-0.0509484021820879,0.00670397541205647
1490546587.1,40.4544140305747,-79.9536812771856,18.25,0.0692596435546875,-0.989990234375,0.213165283203125,0.17528526820738,0.126064991256645,-0.000875913682527061
1490546587.3,40.4544140305747,-79.9536812771856,18.25,0.0117645263671875,-0.880630493164062,0.33148193359375,0.035255725458796,0.0296617555890845,-0.00464641715386125
1490546587.5,40.4544140305747,-79.9536812771856,18.25,-0.092315673828125,-0.9237060546875,0.330886840820312,-0.0249178667393264,-0.00793542110010911,0.103740777102947
1490546587.7,40.4544140305747,-79.9536812771856,18.25,-0.102157592773438,-0.894973754882812,0.0848388671875,-0.176119103944684,-0.0515689187160763,-0.00320804384910945
1490546587.9,40.4544140305747,-79.9536812771856,18.25,0.039947509765625,-1.0484619140625,0.315933227539062,-0.0811840689860845,-0.0688512362940366,0.0126060730198901
1490546588.1,40.454265628979,-79.953586980775,18.3799991607666,0.100250244140625,-0.969894409179688,0.248764038085938,-0.00827497413909421,0.0150740244020665,0.0299994444153066
1490546588.3,40.454265628979,-79.953586980775,18.3799991607666,0.09490966796875,-1.03939819335938,0.25115966796875,0.0531977080387688,0.076191973522731,-0.0559556776636549
1490546588.5,40.454265628979,-79.953586980775,18.3799991607666,0.0832977294921875,-0.919158935546875,0.251983642578125,-0.00929043746274142,0.0172370438394289,0.0364157984296345
1490546588.7,40.454265628979,-79.953586980775,18.3799991607666,0.003753662109375,-0.89483642578125,0.1966552734375,-0.0617453898734871,0.000276968753368241,0.0135837194560582
1490546588.9,40.454265628979,-79.953586980775,18.3799991607666,0.114578247070312,-0.977066040039062,0.24658203125,-0.0510314928080984,-0.119710955211825,0.083554814988473
1490546589.1,40.454265628979,-79.953586980775,18.3799991607666,0.15618896484375,-1.08389282226562,0.302276611328125,0.0424771530706548,-0.0289352452437109,-0.0102049669810746
1490546589.3,40.4541184008498,-79.9534905050695,17.9200000762939,0.212509155273438,-1.02542114257812,0.2310791015625,-0.0173512934501933,0.0901091207472671,-0.0902169787714153
1490546589.5,40.4541184008498,-79.9534905050695,17.9200000762939,0.104598999023438,-0.97552490234375,0.282760620117188,0.0307967948456763,0.168640947603742,-0.105579423519537
1490546589.7,40.4541184008498,-79.9534905050695,17.9200000762939,0.0645599365234375,-0.962753295898438,0.3114013671875,0.026886209101004,0.0935139722009334,-0.0139909167867313
1490546589.9,40.4541184008498,-79.9534905050695,17.9200000762939,0.0413055419921875,-0.882293701171875,0.311843872070312,-0.0209889051831325,-0.0442889015602357,0.0726813945737885
1490546590.1,40.4541184008498,-79.9534905050695,17.9200000762939,0.106185913085938,-0.904922485351562,0.304336547851562,-0.094845819062082,0.0120358902305041,0.000168844413111024
1490546590.3,40.4539764533196,-79.953394280821,18.1000003814697,0.0560760498046875,-0.962249755859375,0.21209716796875,-0.106636165840081,0.0205268467340037,-0.0135248635959674
1490546590.5,40.4539764533196,-79.953394280821,18.1000003814697,0.089141845703125,-0.948028564453125,0.313568115234375,0.0556598004665471,-0.044633248289183,0.0557085363144955
1490546590.7,40.4539764533196,-79.953394280821,18.1000003814697,0.121170043945312,-0.946640014648438,0.207382202148438,-0.0555756445761006,0.0277030006073313,-0.0344202918248381
1490546590.9,40.4539764533196,-79.953394280821,18.1000003814697,0.0972747802734375,-1.00164794921875,0.210784912109375,0.0296678808595917,-0.0458915919042454,-0.00368235283925256
1490546591.1,40.4539764533196,-79.953394280821,18.1000003814697,0.17474365234375,-1.23080444335938,0.262893676757812,0.0321560722660528,0.0700922693620135,-0.0109125688827087
1490546591.3,40.4538364336271,-79.9532888364791,18.5200004577637,-0.113937377929688,-0.91070556640625,0.194839477539062,-0.0379828024150371,0.35749928262282,-0.284493248712151
1490546591.5,40.4538364336271,-79.9532888364791,18.5200004577637,-0.201248168945312,-0.875869750976562,0.233535766601562,-0.074613251628532,-0.283242894580358,0.149596948964694
1490546591.7,40.4538364336271,-79.9532888364791,18.5200004577637,-0.07879638671875,-0.814987182617188,0.347427368164062,0.0801214677111429,-0.104222809260251,0.0776548479095115
1490546591.9,40.4538364336271,-79.9532888364791,18.5200004577637,-0.0305633544921875,-1.01687622070312,0.259140014648438,-0.00354360214645943,-0.158754228372931,0.189501488422332
1490546592.1,40.4538364336271,-79.9532888364791,18.5200004577637,-0.1197509765625,-0.912994384765625,0.281234741210938,-0.0499049756669948,-0.268329991424242,0.16957838030745
1490546592.3,40.4536970425774,-79.9531814642995,18.2000007629395,0.060516357421875,-0.980682373046875,0.0871124267578125,0.171459637301482,-0.0325797811954844,-0.0118555942247057
1490546592.5,40.4536970425774,-79.9531814642995,18.2000007629395,-0.179229736328125,-0.75970458984375,0.313552856445312,0.114101539007791,0.0445293850066699,-0.178374535071872
1490546592.7,40.4536970425774,-79.9531814642995,18.2000007629395,0.131011962890625,-0.998733520507812,0.244613647460938,-0.0393010671546263,-0.0326783181558173,0.0388161055201229
1490546592.9,40.4536970425774,-79.9531814642995,18.2000007629395,0.1273193359375,-1.00584411621094,0.119964599609375,0.116926886608256,0.269058365982378,-0.191758251130065
1490546593.1,40.4536970425774,-79.9531814642995,18.2000007629395,-0.281402587890625,-0.9053955078125,0.0720062255859375,0.0639962936268221,-0.0564784561856374,0.0331805903374062
1490546593.3,40.4535555979614,-79.9530854915082,18.3199996948242,0.0999603271484375,-1.03730773925781,0.139389038085938,0.0182237450233032,-0.200680639730158,0.118745026684453
1490546593.5,40.4535555979614,-79.9530854915082,18.3199996948242,0.165298461914062,-1.185546875,0.01385498046875,-0.227114910394175,-0.00136007636870347,-0.0024434503001477
1490546593.7,40.4535555979614,-79.9530854915082,18.3199996948242,-0.265472412109375,-0.769775390625,0.081085205078125,-0.187525156577385,-0.246681154922988,0.145786498077009
1490546593.9,40.4535555979614,-79.9530854915082,18.3199996948242,-0.118438720703125,-1.02011108398438,0.1246337890625,0.0235468714101536,-0.20070434186386,0.117610786376188
1490546594.1,40.4534174222876,-79.9529919494688,16.7299995422363,0.0707855224609375,-0.964248657226562,0.0029296875,0.0479185238099047,-0.00339153564821591,-0.00701636420792276
1490546594.3,40.4534174222876,-79.9529919494688,16.7299995422363,0.105636596679688,-1.18475341796875,-0.0608367919921875,-0.140579219197577,-0.163993997817662,0.108054299120548
1490546594.5,40.4534174222876,-79.9529919494688,16.7299995422363,0.104354858398438,-1.10952758789062,-0.0769805908203125,0.101400124820876,-0.0140708116194337,0.0242704522783281
1490546594.7,40.4534174222876,-79.9529919494688,16.7299995422363,0.0088043212890625,-0.959182739257812,0.0803985595703125,-0.0617328730163638,0.0140897200631732,0.00828322993847345
1490546594.9,40.4534174222876,-79.9529919494688,16.7299995422363,-0.0465545654296875,-1.00234985351562,-0.0208587646484375,0.0128920965209646,-0.0392629839510382,0.0349372113924225
1490546595.1,40.4534174222876,-79.9529919494688,16.7299995422363,-0.0220184326171875,-0.997024536132812,0.0584716796875,0.182163148038619,-0.178059216798807,0.0697876037333084
1490546595.3,40.4532909812782,-79.9529111479222,14.2200002670288,0.141326904296875,-1.02197265625,0.02130126953125,-0.0531180795221754,-0.243906940015452,0.154745638300144
1490546595.5,40.4532909812782,-79.9529111479222,14.2200002670288,0.0301971435546875,-1.06929016113281,0.080078125,-0.00412124178689762,0.0224142289985429,0.00970162953504966
1490546595.7,40.4532909812782,-79.9529111479222,14.2200002670288,0.08038330078125,-0.992996215820312,0.0450439453125,-0.0724097521426004,-0.115429124811195,0.0731727477949081
1490546595.9,40.4532909812782,-79.9529111479222,14.2200002670288,0.0774078369140625,-0.97088623046875,0.0618438720703125,-0.17902487901007,-0.127804568080685,0.0798338463134143
1490546596.1,40.4532909812782,-79.9529111479222,14.2200002670288,0.0933990478515625,-1.04789733886719,0.0303802490234375,-0.0319331656828131,0.0447435031583123,-0.0154868143710288
1490546596.3,40.4531847825651,-79.9528520555049,12.3699998855591,-0.0703125,-0.978729248046875,0.12518310546875,0.000887365275214402,0.0370349833830779,-0.0457818696673342
1490546596.5,40.4531847825651,-79.9528520555049,12.3699998855591,0.0146942138671875,-0.972366333007812,0.138473510742188,0.0139373872488207,-0.00424055140373317,0.0136761311458839
1490546596.7,40.4531847825651,-79.9528520555049,12.3699998855591,0.010833740234375,-0.981704711914062,0.129348754882812,-0.0639606072682151,-0.00295957091940506,0.00294039615955649
1490546596.9,40.4531847825651,-79.9528520555049,12.3699998855591,0.02325439453125,-0.933578491210938,0.0521697998046875,-0.00127165942051284,-0.0341198872538772,-0.0128590733234476
1490546597.1,40.4531847825651,-79.9528520555049,12.3699998855591,0.0516357421875,-0.973190307617188,0.0876312255859375,-0.0161848288927386,0.0593826333543688,-0.0593765080838617
1490546597.3,40.4530888516833,-79.9527984113246,10.7600002288818,-0.0396270751953125,-1.0386962890625,0.200180053710938,0.0395021358169273,0.00202639927344129,0.00696656309553828
1490546597.5,40.4530888516833,-79.9527984113246,10.7600002288818,-0.02874755859375,-0.968902587890625,0.1748046875,0.0681031543438333,0.00710637905276744,-0.0232454015747566
1490546597.7,40.4530888516833,-79.9527984113246,10.7600002288818,0.118453979492188,-0.991958618164062,0.178115844726562,-0.0553034695126945,-0.0379396592053778,0.0400741828190763
1490546597.9,40.4530888516833,-79.9527984113246,10.7600002288818,0.0070953369140625,-1.02685546875,0.18890380859375,-0.0172261248789595,0.0562182653471367,-0.0540384679949068
1490546598.1,40.4530888516833,-79.9527984113246,10.7600002288818,0.116073608398438,-0.99639892578125,0.138473510742188,-0.0789257083816973,-0.151593520833926,0.0742390774953759
1490546598.3,40.4530067928512,-79.952749209553,9.73999977111816,0.050201416015625,-0.92559814453125,0.163681030273438,-0.086074165379688,-0.113120164146097,0.101078681277303
1490546598.5,40.4530067928512,-79.952749209553,9.73999977111816,0.0847930908203125,-0.985946655273438,0.220077514648438,0.0169622056149327,0.132603850681116,-0.0830914249587993
1490546598.7,40.4530067928512,-79.952749209553,9.73999977111816,0.10736083984375,-0.931640625,0.217788696289062,0.0470649806805343,-0.0287224586726136,0.0377255410537355
1490546598.9,40.4530067928512,-79.952749209553,9.73999977111816,0.10711669921875,-0.984115600585938,0.187881469726562,0.00975329486019719,0.0329952343255367,0.00635004130318494
1490546599.1,40.4530067928512,-79.952749209553,9.73999977111816,0.030059814453125,-0.963058471679688,0.17388916015625,0.0224712206458706,0.00953731249579177,0.00720065495535624
1490546599.3,40.4529313976322,-79.9526941404491,8.9399995803833,0.0235137939453125,-0.896759033203125,0.28961181640625,0.0404251874507488,0.00829308363450675,-0.0175582210668924
1490546599.5,40.4529313976322,-79.9526941404491,8.9399995803833,0.00555419921875,-0.874954223632812,0.31689453125,0.0108262824633901,0.0595424230197736,-0.00639957609946041
1490546599.7,40.4529313976322,-79.9526941404491,8.9399995803833,0.0140228271484375,-0.8939208984375,0.24566650390625,-0.0158476726987345,0.0245791126486683,0.00878949686169752
1490546599.9,40.4529313976322,-79.9526941404491,8.9399995803833,0.0720977783203125,-1.0196533203125,0.265548706054688,-0.0689348595522651,0.0270412050764466,0.040396957943194
1490546600.1,40.4529313976322,-79.9526941404491,8.9399995803833,-0.0437164306640625,-0.953170776367188,0.231643676757812,0.0172263911950685,0.00324506178826155,0.0232491300002827
1490546600.3,40.4528566310559,-79.9526451901346,9.27999973297119,-0.0484466552734375,-0.8682861328125,0.333465576171875,-0.0715040110558645,-0.0751956849589323,0.0284643983629849
1490546600.5,40.4528566310559,-79.9526451901346,9.27999973297119,-0.042724609375,-0.985916137695312,0.350372314453125,0.0403863052988336,-0.0150947970585691,-0.0112129734536696
1490546600.7,40.4528566310559,-79.9526451901346,9.27999973297119,-0.044952392578125,-1.00241088867188,0.282424926757812,-0.0331339850183298,-0.0264909959952362,0.00142745434428247
1490546600.9,40.4528566310559,-79.9526451901346,9.27999973297119,-0.1029052734375,-0.898422241210938,0.288848876953125,-0.0446446998818703,-0.0241743121629763,0.0325052126849621
1490546601.1,40.4527811101083,-79.952598670572,8.94999980926514,-0.012054443359375,-0.98974609375,0.249420166015625,-0.0299379253941258,0.01384630713954,-0.0198488059204696
1490546601.3,40.4527811101083,-79.952598670572,8.94999980926514,0.0594329833984375,-0.919418334960938,0.289154052734375,0.0359651915731931,0.024097879439691,-0.0547894794223092
1490546601.5,40.4527811101083,-79.952598670572,8.94999980926514,0.103225708007812,-0.93603515625,0.25982666015625,-0.0414534339476284,-0.0220666864762876,0.0303366006093106
1490546601.7,40.4527811101083,-79.952598670572,8.94999980926514,0.0933074951171875,-0.949722290039062,0.214889526367188,-0.0672581333299512,0.0362698572018982,-0.0321190543269007
1490546601.9,40.4527811101083,-79.952598670572,8.94999980926514,0.0543212890625,-0.909164428710938,0.287338256835938,-0.128005636742986,0.0662266910397635,-0.0440737181441573
1490546602.1,40.4527064273511,-79.9525487982481,9.27999973297119,0.0684356689453125,-0.9862060546875,0.282180786132812,-0.0277453448686635,0.00857218291674705,-0.00815832768334874
1490546602.3,40.4527064273511,-79.9525487982481,9.27999973297119,0.138671875,-0.960617065429688,0.241058349609375,0.000981108545585191,0.010554906348311,-0.0181172185797
1490546602.5,40.4527064273511,-79.9525487982481,9.27999973297119,0.071136474609375,-0.9676513671875,0.236709594726562,-0.0425373405112906,0.0363257835847898,-0.00257421150967059
1490546602.7,40.4527064273511,-79.9525487982481,9.27999973297119,0.075927734375,-0.988601684570312,0.219436645507812,0.00102132227804539,-0.0127773142779822,-4.23442613322599e-05
1490546602.9,40.4527064273511,-79.9525487982481,9.27999973297119,0.0886077880859375,-0.98236083984375,0.186477661132812,-0.0405234580949727,0.0680903711706009,-0.0366520208183245
1490546603.1,40.4526317445938,-79.9525045417994,9.10999965667725,0.001556396484375,-0.861129760742188,0.23388671875,3.30231975169826e-05,0.00533244745066566,0.00214464362584081
1490546603.3,40.4526317445938,-79.9525045417994,9.10999965667725,0.135528564453125,-0.986907958984375,0.178848266601562,0.0224270121717753,-0.0276582595010179,0.0199127217866315
1490546603.5,40.4526317445938,-79.9525045417994,9.10999965667725,-0.0443267822265625,-0.949798583984375,0.222259521484375,0.04261537113123,0.0985830330197902,-0.0557695227034583
1490546603.7,40.4526317445938,-79.9525045417994,9.10999965667725,0.0265045166015625,-0.972381591796875,0.20245361328125,-5.48611184556323e-05,-0.0648109546042774,0.0254457052673801
1490546603.9,40.4526317445938,-79.9525045417994,9.10999965667725,-0.021270751953125,-0.989288330078125,0.146041870117188,0.00511966087956833,0.0401831061076606,-0.0522269858214349
1490546604.1,40.4525448242579,-79.9524446950107,9.03999996185303,0.0159912109375,-0.951019287109375,0.136795043945312,-0.033137447127747,0.00323813756942735,-0.0145003795032634
1490546604.3,40.4525448242579,-79.9524446950107,9.03999996185303,0.025238037109375,-0.99444580078125,0.145339965820312,-0.0576925913266046,-0.0232472657875197,-0.00571727422818211
1490546604.5,40.4525448242579,-79.9524446950107,9.03999996185303,-0.03631591796875,-0.983001708984375,0.1624755859375,-0.0278076628381714,0.0276414815861504,-0.0273091190821085
1490546604.7,40.4525448242579,-79.9524446950107,9.03999996185303,0.0052032470703125,-0.960662841796875,0.161590576171875,-0.0193814211491607,-0.0712115959681738,0.00861452717807931
1490546604.9,40.4525448242579,-79.9524446950107,9.03999996185303,0.0542144775390625,-0.94012451171875,0.215896606445312,-0.0427301533742124,-0.0105309378985003,-0.00694499149070864
1490546605.1,40.4524720274289,-79.9524048809707,8.21000003814697,0.04669189453125,-1.01443481445312,0.115554809570312,0.0158508684920426,0.000907338983389996,-0.0215279289877645
1490546605.3,40.4524720274289,-79.9524048809707,8.21000003814697,-0.001251220703125,-0.959579467773438,0.177261352539062,-0.0651627581842768,0.00119575932944558,-0.0194293580487821
1490546605.5,40.4524720274289,-79.9524048809707,8.21000003814697,-0.005828857421875,-0.968429565429688,0.277175903320312,-0.0726174787076266,0.091483844501966,-0.0649827284945875
1490546605.7,40.4524720274289,-79.9524048809707,8.21000003814697,0.0419921875,-0.947158813476562,0.221710205078125,1.33158054503962e-05,-0.0371550919482405,0.021242704435017
1490546605.9,40.4524720274289,-79.9524048809707,8.21000003814697,-0.0075225830078125,-0.975479125976562,0.168121337890625,-0.0115895444318068,0.00438489473481547,0.0182865956250291
1490546606.1,40.4524109652643,-79.9523631390929,7.84000015258789,0.099029541015625,-0.9754638671875,0.212738037109375,0.04570783378903,-0.0278617250083,-0.00597799769890087
1490546606.3,40.4524109652643,-79.9523631390929,7.84000015258789,0.045013427734375,-0.965469360351562,0.28076171875,0.0160103918413384,-0.0457014422024138,0.026351446354116
1490546606.5,40.4524109652643,-79.9523631390929,7.84000015258789,-0.00909423828125,-0.942291259765625,0.27740478515625,-0.0405543507636176,0.0224094353085808,-0.0175611505440915
1490546606.7,40.4524109652643,-79.9523631390929,7.84000015258789,0.0090484619140625,-0.982666015625,0.239151000976562,0.0541697618366477,-0.0141344611694865,-0.0231167708941058
1490546606.9,40.4524109652643,-79.9523631390929,7.84000015258789,0.081298828125,-0.916168212890625,0.2447509765625,-0.0725849881423277,-0.0221103623181649,-0.00125940887949847
1490546607.1,40.4523501964663,-79.9523280189186,7.69999980926514,0.108993530273438,-0.94110107421875,0.17840576171875,-0.0482655336999421,0.0456210147374934,-0.0664645113251075
1490546607.3,40.4523501964663,-79.9523280189186,7.69999980926514,0.079376220703125,-0.984695434570312,0.229400634765625,-0.00211188674443284,0.0754124662716648,-0.0360578695791278
1490546607.5,40.4523501964663,-79.9523280189186,7.69999980926514,0.0281829833984375,-0.935958862304688,0.177688598632812,-0.014989335879402,0.0308002569550934,-0.0253322546049427
1490546607.7,40.4523501964663,-79.9523280189186,7.69999980926514,0.0418853759765625,-1.01863098144531,0.271316528320312,0.0351830211610368,-0.00543018546267157,0.00273879486503749
1490546607.9,40.4523501964663,-79.9523280189186,7.69999980926514,0.10382080078125,-0.966018676757812,0.144195556640625,-0.0298364589565937,-0.00838096795047936,0.00675910284662111
1490546608.1,40.4522986896713,-79.9522965029627,7.03000020980835,0.124465942382812,-1.05419921875,0.1678466796875,0.00641475611767386,0.0318458139990585,-0.0138718734860047
1490546608.3,40.4522986896713,-79.9522965029627,7.03000020980835,0.04571533203125,-0.908233642578125,0.300628662109375,-0.00524962314076419,0.0414872560934724,-0.00943557974215074
1490546608.5,40.4522986896713,-79.9522965029627,7.03000020980835,0.103851318359375,-0.9991455078125,0.155471801757812,-0.00835886371343171,0.00545841497022641,0.0225135649072029
1490546608.7,40.4522986896713,-79.9522965029627,7.03000020980835,0.0819244384765625,-0.96466064453125,0.129562377929688,0.00556094667219446,0.0330607480883527,0.0170676667940998
1490546608.9,40.4522986896713,-79.9522965029627,7.03000020980835,0.0336151123046875,-0.97174072265625,0.100540161132812,-0.0234826892278827,0.0531534995646735,-0.0315712420906714
1490546609.1,40.4522986896713,-79.9522965029627,7.03000020980835,0.0979156494140625,-0.960281372070312,0.128753662109375,-0.0641454306478665,0.0425695647604806,-0.0481403651287083
1490546609.3,40.4522302095224,-79.9522642326355,6.55000019073486,-0.0023651123046875,-0.912506103515625,0.0527191162109375,-0.0539159625847632,0.00263280105365233,0.0668099233184908
1490546609.5,40.4522302095224,-79.9522642326355,6.55000019073486,0.060699462890625,-1.13497924804688,0.243453979492188,-0.0603576166294468,0.0429732999817366,0.0392579239449671
1490546609.7,40.4522302095224,-79.9522642326355,6.55000019073486,0.0611724853515625,-0.891067504882812,0.0908050537109375,-0.0890814068826055,-0.0680693321979893,-0.0523425670127444
1490546609.9,40.4522302095224,-79.9522642326355,6.55000019073486,0.270523071289062,-0.773666381835938,0.23895263671875,0.148314104267603,0.129118838078639,-0.0495803363301142
1490546610.1,40.4522302095224,-79.9522642326355,6.55000019073486,0.248153686523438,-0.9886474609375,0.055633544921875,0.0246819106667454,0.206025870354056,-0.0830211175060212
1490546610.3,40.4521847376977,-79.9522405956685,5.3899998664856,-0.0582122802734375,-0.93780517578125,0.209457397460938,0.0285384342412891,-0.0353140486866687,-0.0185734180744306
1490546610.5,40.4521847376977,-79.9522405956685,5.3899998664856,-0.00482177734375,-0.947418212890625,0.244186401367188,-0.0275432109419265,0.0150854759947538,0.0185142958982309
1490546610.7,40.4521847376977,-79.9522405956685,5.3899998664856,-0.001373291015625,-0.9481201171875,0.193435668945312,0.0128359038219639,-1.43810698864279e-05,0.00623499274409351
1490546610.9,40.4521847376977,-79.9522405956685,5.3899998664856,0.111160278320312,-0.98651123046875,0.266143798828125,0.0180932501298893,0.0487603490304788,-0.0299778728104769
1490546611.1,40.4521847376977,-79.9522405956685,5.3899998664856,0.0496063232421875,-1.05108642578125,0.208465576171875,0.01609854247342,-0.0021038972611626,0.0168527496941304
1490546611.3,40.4521481506903,-79.9522088282555,4.76999998092651,0.140121459960938,-0.962661743164062,0.22515869140625,-0.0808517064820426,0.0301339340503556,0.0106963202021943
1490546611.5,40.4521481506903,-79.9522088282555,4.76999998092651,0.0010223388671875,-0.987045288085938,0.2017822265625,-0.036064793797962,0.0129964924356957,0.0207508185816794
1490546611.7,40.4521481506903,-79.9522088282555,4.76999998092651,-0.0014190673828125,-0.990142822265625,0.191238403320312,-0.00517611989467801,-0.003058374195847,0.0245863031836115
1490546611.9,40.4521481506903,-79.9522088282555,4.76999998092651,-0.0048980712890625,-0.950424194335938,0.187667846679688,-0.0510970065709143,0.0172205322406704,0.00282295075548399
1490546612.1,40.4521481506903,-79.9522088282555,4.76999998092651,0.0379486083984375,-1.01446533203125,0.13873291015625,0.00441472213902435,-0.0328261235963167,0.0393255682366551
1490546612.3,40.4521147907157,-79.9521786534041,3.92000007629395,0.037689208984375,-1.04086303710938,0.108108520507812,0.0170666015296638,-0.00960948416133292,0.00615909265302625
1490546612.5,40.4521147907157,-79.9521786534041,3.92000007629395,-0.0040435791015625,-0.999130249023438,0.168243408203125,0.0149954611499092,-0.039290680826375,0.0306447283474328
1490546612.7,40.4521147907157,-79.9521786534041,3.92000007629395,-0.0071258544921875,-0.984390258789062,0.177932739257812,0.00305970577639204,-0.0723138783433576,0.0168575433840926
1490546612.9,40.4521147907157,-79.9521786534041,3.92000007629395,0.01580810546875,-1.01115417480469,0.1875,-0.0086142608619703,-0.0817923349790586,0.0297813315220291
1490546613.1,40.4521147907157,-79.9521786534041,3.92000007629395,-0.005615234375,-0.986968994140625,0.145660400390625,-0.00430926095985722,-0.0722219992857498,0.0308149043410888
1490546613.3,40.4520900641013,-79.9521649909019,2.74000000953674,-0.02508544921875,-0.97967529296875,0.141525268554688,-0.00642114770429005,-0.0828187172631751,0.0393487377381388
1490546613.5,40.4520900641013,-79.9521649909019,2.74000000953674,-0.0474395751953125,-0.977508544921875,0.163284301757812,-0.00859908084375685,-0.104080330141932,0.043593283883507
1490546613.7,40.4520900641013,-79.9521649909019,2.74000000953674,-0.0428009033203125,-1.01063537597656,0.271865844726562,-0.00535029062996919,-0.0732624963236438,0.0350914084195381
1490546613.9,40.4520900641013,-79.9521649909019,2.74000000953674,-0.073822021484375,-0.932601928710938,0.248580932617188,-0.0149595084751931,-0.161372115724479,0.0787342270993206
1490546614.1,40.4520900641013,-79.9521649909019,2.74000000953674,0.000885009765625,-0.971099853515625,0.2342529296875,-0.0142005075645205,-0.115932728573329,0.00951227878154502
1490546614.3,40.4520762758706,-79.9521564413607,1.82000005245209,0.0485076904296875,-0.989288330078125,0.26007080078125,0.0350139104318168,-0.0926202153391028,0.0228025178854765
1490546614.5,40.4520762758706,-79.9521564413607,1.82000005245209,0.03826904296875,-0.957763671875,0.261566162109375,0.0042618566924538,-0.0764692085922082,0.0392272975924311
1490546614.7,40.4520762758706,-79.9521564413607,1.82000005245209,0.021636962890625,-0.949691772460938,0.256744384765625,0.00209936988730946,-0.0605554894984397,0.0264944581046533
1490546614.9,40.4520762758706,-79.9521564413607,1.82000005245209,0.0403900146484375,-0.973464965820312,0.264892578125,-0.0128790470316232,-0.0286857070495705,0.00223093004515938
1490546615.1,40.4520762758706,-79.9521564413607,1.82000005245209,0.0843963623046875,-0.999435424804688,0.24017333984375,-0.0245191915241415,0.0308793528394688,-0.0156130482066985
1490546615.3,40.4520557821174,-79.952146634534,1.61000001430511,-0.0177764892578125,-0.949325561523438,0.260421752929688,0.00535082326218721,0.0201707820962602,-0.00748667845643075
1490546615.5,40.4520557821174,-79.952146634534,1.61000001430511,0.0159759521484375,-0.95965576171875,0.251358032226562,-0.0330801891643102,0.00115474664865836,-0.00490820588901604
1490546615.7,40.4520557821174,-79.952146634534,1.61000001430511,0.0466766357421875,-0.959457397460938,0.271011352539062,0.0096861832007272,0.0425045836298827,-0.0085570028985336
1490546615.9,40.4520557821174,-79.952146634534,1.61000001430511,0.0089569091796875,-0.965728759765625,0.248321533203125,-0.0379622960746435,0.077941404042804,0.0219905200691113
1490546616.1,40.4520557821174,-79.952146634534,1.61000001430511,-0.0191802978515625,-0.970748901367188,0.288131713867188,0.000196807604556856,0.050045057940333,0.00331164081551353
1490546616.3,40.4520451790099,-79.9521422759443,1.55999994277954,0.035400390625,-0.959442138671875,0.29150390625,-0.0051052798096819,0.0745059262366018,-0.00509595874586662
1490546616.5,40.4520451790099,-79.9521422759443,1.55999994277954,-0.00732421875,-0.959121704101562,0.27691650390625,-0.0210799852924132,0.0607693413339731,0.00467358139698006
1490546616.7,40.4520451790099,-79.9521422759443,1.55999994277954,0.0051422119140625,-0.946365356445312,0.267608642578125,-0.0126729183632511,0.0670251067345692,-0.0167472885149633
1490546616.9,40.4520451790099,-79.9521422759443,1.55999994277954,0.02032470703125,-0.950958251953125,0.24591064453125,-0.017946243637717,0.0915062150551226,-0.0208895692744725
1490546617.1,40.4520451790099,-79.9521422759443,1.55999994277954,-0.016143798828125,-0.95135498046875,0.281692504882812,0.00871812414448339,0.078679898613083,-0.0127272468494887
1490546617.3,40.4520472325761,-79.9521343131363,1.5900000333786,-0.0026092529296875,-0.945358276367188,0.247268676757812,0.0130457609158622,0.0680911701189279,0.00212307202101117
1490546617.5,40.4520472325761,-79.9521343131363,1.5900000333786,-0.0203704833984375,-0.980712890625,0.215728759765625,0.0033577135023719,0.039389217786708,0.00324692600102461
1490546617.7,40.4520472325761,-79.9521343131363,1.5900000333786,-0.0380096435546875,-0.97076416015625,0.196197509765625,-0.0106097674667667,0.0616599024024956,-0.0242507448862615
1490546617.9,40.4520472325761,-79.9521343131363,1.5900000333786,-0.0037689208984375,-0.966445922851562,0.16259765625,-0.00628905491422212,0.0531899848716076,-0.011528291726735
1490546618.1,40.4520472325761,-79.9521343131363,1.5900000333786,-0.0413360595703125,-0.977752685546875,0.199615478515625,-0.00948724506729828,0.0532011701481859,-0.0114875453620568
1490546618.3,40.4520378867541,-79.9521277752518,1.16999995708466,-0.0091094970703125,-0.940093994140625,0.255722045898438,-0.00840147429087297,0.0383455249555059,-0.000871386308673927
1490546618.5,40.4520378867541,-79.9521277752518,1.16999995708466,-0.031280517578125,-0.976638793945312,0.226425170898438,0.00545894760244442,0.0223705531566656,0.00744673104007957
1490546618.7,40.4520378867541,-79.9521277752518,1.16999995708466,-0.0153045654296875,-0.958511352539062,0.2171630859375,-0.0223029088649776,0.0426113763895948,-0.0092158689522192
1490546618.9,40.4520378867541,-79.9521277752518,1.16999995708466,-0.024871826171875,-0.970794677734375,0.208999633789062,-0.00850267441229598,0.0340269429318334,-0.0136769300942109
1490546619.1,40.4520378867541,-79.9521277752518,1.16999995708466,-0.0181427001953125,-0.9776611328125,0.207809448242188,-0.00959457045922847,0.028703283912765,-0.0147416618980246
1490546619.3,40.4520361265544,-79.9521237519383,0.779999971389771,-0.0313262939453125,-0.969772338867188,0.2021484375,-0.0181174848958091,0.0159949455070159,-0.00719745916204815
1490546619.5,40.4520361265544,-79.9521237519383,0.779999971389771,-0.02105712890625,-0.964141845703125,0.222747802734375,-0.00743607839571925,0.00960122836195367,-0.000949683244722256
1490546619.7,40.4520361265544,-79.9521237519383,0.779999971389771,-0.0238037109375,-0.966171264648438,0.25079345703125,-0.00423868719097012,0.00321843017736076,0.00219417842211628
1490546619.9,40.4520361265544,-79.9521237519383,0.779999971389771,-0.0077056884765625,-0.940261840820312,0.297592163085938,-0.0159938802425799,0.00536307380320157,-0.00298327305310676
1490546620.1,40.4520361265544,-79.9521237519383,0.779999971389771,-0.01385498046875,-0.962722778320312,0.277557373046875,-0.0106664927979854,0.0106515790958809,-0.00623818853740161
1490546620.3,40.4520361265544,-79.9521237519383,0.0,-0.0164337158203125,-0.948226928710938,0.275360107421875,-0.011729626705145,0.00534816010109713,-0.00303760153934438
1490546620.5,40.4520361265544,-79.9521237519383,0.0,-0.01708984375,-0.949264526367188,0.284149169921875,-0.0106670254302034,0.00640383715720454,-0.00411511651639044
1490546620.7,40.4520361265544,-79.9521237519383,0.0,-0.01416015625,-0.95556640625,0.270919799804688,-0.0138646829510615,0.0106627643724593,-0.0061974421727234
1490546620.9,40.4520361265544,-79.9521237519383,0.0,-0.0146636962890625,-0.949630737304688,0.284500122070312,-0.0127879669223425,0.00960469047137077,-0.00408076173832842
1490546621.1,40.4520361265544,-79.9521237519383,0.0,-0.015472412109375,-0.952545166015625,0.276443481445312,-0.010655840153625,0.00959723362031855,-0.00410792598144722
1490546621.3,40.4520361265544,-79.9521237519383,0.0,-0.016082763671875,-0.951919555664062,0.279342651367188,-0.00958977676926633,0.00959350519479244,-0.00412150810300663
1490546621.5,40.4520361265544,-79.9521237519383,0.0,-0.01568603515625,-0.951873779296875,0.275222778320312,-0.0127879669223425,0.00960469047137077,-0.00408076173832842
1490546621.7,40.4520361265544,-79.9521237519383,0.0,-0.015625,-0.954193115234375,0.278076171875,-0.0128026143083379,0.00747069948989028,-0.00515188512875829
1490546621.9,40.4520361265544,-79.9521237519383,0.0,-0.01556396484375,-0.951828002929688,0.276565551757812,-0.0127916953478686,0.0085402249836661,-0.00408315858330949
1490546622.1,40.4520361265544,-79.9521237519383,0.0,-0.014404296875,-0.953414916992188,0.281692504882812,-0.0117400130333963,0.00852637654599769,-0.00622940010580435
1490546622.3,40.4520361265544,-79.9521237519383,0.0,-0.016326904296875,-0.950958251953125,0.276138305664062,-0.0117219035379838,0.00960096204584466,-0.00409434385988782
1490546622.5,40.4520361265544,-79.9521237519383,0.0,-0.0162353515625,-0.953903198242188,0.279541015625,-0.0127988858828118,0.00853516497759495,-0.00514948828377722
1490546622.7,40.4520361265544,-79.9521237519383,0.0,-0.015106201171875,-0.952407836914062,0.278594970703125,-0.0138577587322273,0.00854395340919221,-0.00406957646175008
1490546622.9,40.4520361265544,-79.9521237519383,0.0,-0.0152435302734375,-0.952529907226562,0.277069091796875,-0.0106704875396205,0.00746324263883806,-0.00517904937187709
1490546623.1,40.4520361265544,-79.9521237519383,0.0,-0.015777587890625,-0.950439453125,0.278793334960938,-0.010655840153625,0.00959723362031855,-0.00410792598144722
1490546623.3,40.4520361265544,-79.9521237519383,0.0,-0.0155487060546875,-0.954818725585938,0.280548095703125,-0.0149344747609464,0.00960202731028069,-0.00618625689614506
1490546623.5,40.4520361265544,-79.9521237519383,0.0,-0.015289306640625,-0.953277587890625,0.27838134765625,-0.0127879669223425,0.00960469047137077,-0.00408076173832842
1490546623.7,40.4520361265544,-79.9521237519383,0.0,-0.0150299072265625,-0.950790405273438,0.275924682617188,-0.0149200936910599,0.00961214732242299,-0.00405359749520961
1490546623.9,40.4520361265544,-79.9521237519383,0.0,-0.016632080078125,-0.950942993164062,0.277175903320312,-0.0106595685791512,0.00853276813261388,-0.0041103228264283
1490546624.1,40.4520361265544,-79.9521237519383,0.0,-0.016265869140625,-0.953201293945312,0.27935791015625,-0.0127988858828118,0.00853516497759495,-0.00514948828377722
1490546624.3,40.4520361265544,-79.9521237519383,0.0,-0.015838623046875,-0.95306396484375,0.278854370117188,-0.0138505681972841,0.00854901341526336,-0.00300324676128236
1490546624.5,40.4520361265544,-79.9521237519383,0.0,-0.01593017578125,-0.952926635742188,0.281082153320312,-0.00852744181043372,0.00852531128156166,-0.0041374870695471
1490546624.7,40.4520361265544,-79.9521237519383,0.0,-0.0142974853515625,-0.951858520507812,0.2767333984375,-0.0138542966228102,0.00748454792755869,-0.00300564360626343
1490546624.9,40.4520361265544,-79.9521237519383,0.0,-0.0163421630859375,-0.952392578125,0.278884887695312,-0.0117256319635099,0.00853649655813999,-0.00409674070486889
1490546625.1,40.4520361265544,-79.9521237519383,0.0,-0.0153045654296875,-0.954193115234375,0.283035278320312,-0.00960415783915276,0.00958338518265014,-0.00625416750394208
1490546625.3,40.4520361265544,-79.9521237519383,0.0,-0.0168304443359375,-0.952606201171875,0.281814575195312,-0.0117221698540928,0.00747709107650647,-0.00303280784938224
1490546625.5,40.4520361265544,-79.9521237519383,0.0,-0.0177764892578125,-0.949539184570312,0.277130126953125,-0.0160005381453051,0.0096057557358068,-0.00617267477458566
1490546625.7,40.4520361265544,-79.9521237519383,0.0,-0.0161285400390625,-0.951812744140625,0.27984619140625,-0.0127845048129254,0.00854528498973725,-0.00301682888284176
1490546625.9,40.4520361265544,-79.9521237519383,0.0,-0.0160064697265625,-0.95257568359375,0.275070190429688,-0.0127988858828118,0.00853516497759495,-0.00514948828377722
1490546626.1,40.4520361265544,-79.9521237519383,0.0,-0.013580322265625,-0.952423095703125,0.2835693359375,-0.010655840153625,0.00959723362031855,-0.00410792598144722
1490546626.3,40.4520361265544,-79.9521237519383,0.0,-0.0173187255859375,-0.951934814453125,0.272384643554688,-0.0127988858828118,0.00853516497759495,-0.00514948828377722
1490546626.5,40.4520361265544,-79.9521237519383,0.0,-0.0142364501953125,-0.952056884765625,0.2772216796875,-0.0127845048129254,0.00854528498973725,-0.00301682888284176
1490546626.7,40.4520361265544,-79.9521237519383,0.0,-0.0183868408203125,-0.952880859375,0.278076171875,-0.0127916953478686,0.0085402249836661,-0.00408315858330949
1490546626.9,40.4520361265544,-79.9521237519383,0.0,-0.0127410888671875,-0.952987670898438,0.279006958007812,-0.00746856896101822,0.0085165228499644,-0.00521739889157424
1490546627.1,40.4520361265544,-79.9521237519383,0.0,-0.020843505859375,-0.95001220703125,0.283615112304688,-0.00746510685160111,0.00745711736833087,-0.00415346603608758
1490546627.3,40.4520361265544,-79.9521237519383,0.0,-0.0113372802734375,-0.953964233398438,0.277374267578125,-0.0106739496490376,0.00852264812047158,-0.00624298222736375
1490546627.5,40.4520361265544,-79.9521237519383,0.0,-0.017547607421875,-0.951553344726562,0.28277587890625,-0.0117219035379838,0.00960096204584466,-0.00409434385988782
1490546627.7,40.4520361265544,-79.9521237519383,0.0,-0.0150146484375,-0.951095581054688,0.27996826171875,-0.00959350519479244,0.00852903970708777,-0.0041239049479877
1490546627.9,40.4520361265544,-79.9521237519383,0.0,-0.016632080078125,-0.952987670898438,0.275604248046875,-0.0127954237733947,0.00747575949596143,-0.00408555542829056
1490546628.1,40.4520361265544,-79.9521237519383,0.0,-0.01397705078125,-0.9541015625,0.284469604492188,-0.00321150595852655,0.0084965491417888,-0.00633805707827958
1490546628.3,40.4520361265544,-79.9521237519383,0.0,-0.0110931396484375,-0.953765869140625,0.279220581054688,-0.0159616559933899,0.00432390834585265,0.0023459786042508
1490546628.5,40.4520361265544,-79.9521237519383,0.0,-0.0176849365234375,-0.95428466796875,0.283538818359375,-0.0106523780442079,0.00853782813868503,-0.00304399312596057
1490546628.7,40.4520361265544,-79.9521237519383,0.0,-0.0163421630859375,-0.948837280273438,0.272857666015625,-0.0138540303067012,0.00960841889689688,-0.00406717961676901
1490546628.9,40.4520361265544,-79.9521237519383,0.0,-0.0159149169921875,-0.94915771484375,0.277603149414062,-0.0117256319635099,0.00853649655813999,-0.00409674070486889
1490546629.1,40.4520361265544,-79.9521237519383,0.0,-0.017303466796875,-0.956130981445312,0.282852172851562,-0.0106595685791512,0.00853276813261388,-0.0041103228264283
1490546629.3,40.4520361265544,-79.9521237519383,0.0,-0.0145263671875,-0.95513916015625,0.285293579101562,-0.0127988858828118,0.00853516497759495,-0.00514948828377722
1490546629.5,40.4520361265544,-79.9521237519383,0.0,-0.014892578125,-0.949951171875,0.273162841796875,-0.0127916953478686,0.0085402249836661,-0.00408315858330949
