timestamp,latitude,longitude,speed,accelerometerX,accelerometerY,accelerometerZ,gyroX,gyroY,gyroZ
1491141349.8,40.4419409623746,-79.9392138608545,0.0,0.08013916015625,-0.951736450195312,0.232070922851562,-0.0319347635794672,0.0033305492592531,0.00574630268406397
1491141350.0,40.4419409623746,-79.9392138608545,0.0,0.0880584716796875,-0.974014282226562,0.218673706054688,-0.0117077887842063,0.00748721108864877,-0.000900148448446783
1491141350.2,40.4419409623746,-79.9392138608545,0.0,0.0867919921875,-0.969039916992188,0.221725463867188,-0.0127919616639776,0.00641635401432791,-0.0030216225728039
1491141350.4,40.4419409623746,-79.9392138608545,0.0,0.0841522216796875,-0.97119140625,0.226806640625,-0.0138577587322273,0.00854395340919221,-0.00406957646175008
1491141350.6,40.4419409623746,-79.9392138608545,0.0,0.084930419921875,-0.97210693359375,0.2237548828125,-0.0128026143083379,0.00747069948989028,-0.00515188512875829
1491141350.8,40.4419409623746,-79.9392138608545,0.0,0.086669921875,-0.971847534179688,0.223800659179688,-0.0149310126515292,0.00854262182864717,-0.00512232404065841
1491141351.0,40.4419409623746,-79.9392138608545,0.0,0.078277587890625,-0.968887329101562,0.2237548828125,-0.0127991521989208,0.00641129400825676,-0.00408795227327163
1491141351.2,40.4419409623746,-79.9392138608545,0.0,0.0841064453125,-0.968719482421875,0.223129272460938,-0.0138726724343318,0.00428609145837353,-0.00407916384167437
1491141351.4,40.4419409623746,-79.9392138608545,0.0,0.079803466796875,-0.970169067382812,0.222579956054688,-0.0149387358186905,0.00428981988389964,-0.00406558172011497
1491141351.6,40.4419409623746,-79.9392138608545,0.0,0.08868408203125,-0.967880249023438,0.225799560546875,-0.0117440077750314,0.00533804008895482,-0.00517026094027983
1491141351.8,40.4419409623746,-79.9392138608545,0.0,0.0803375244140625,-0.968399047851562,0.225784301757812,-0.0149243547488041,0.00429993989604194,-0.00193292231917951
1491141352.0,40.4419409623746,-79.9392138608545,0.0,0.081695556640625,-0.971511840820312,0.225296020507812,-0.0138582913644453,0.00429621147051583,-0.00194650444073892
1491141352.2,40.4419409623746,-79.9392138608545,0.0,0.082366943359375,-0.969406127929688,0.224594116210938,-0.0127994185150298,0.00428742303891857,-0.00302641626276605
1491141352.4,40.4419409623746,-79.9392138608545,0.0,0.0825958251953125,-0.96893310546875,0.222091674804688,-0.0127850374451434,0.00429754305106087,-0.000893756861830592
1491141352.6,40.4419409623746,-79.9392138608545,0.0,0.0795440673828125,-0.970413208007812,0.225738525390625,-0.0138617534738624,0.00535561695214935,-0.00301043729622557
1491141352.8,40.4419409623746,-79.9392138608545,0.0,0.068084716796875,-0.966384887695312,0.235687255859375,-0.00321390280350762,-0.0106182895822549,0.00321576701627068
1491141353.0,40.4419409623746,-79.9392138608545,0.0,0.075439453125,-0.956558227539062,0.245086669921875,-0.0117477362005575,0.00427357460125015,-0.0051726577852609
1491141353.2,40.4419409623746,-79.9392138608545,0.0,0.088623046875,-0.957427978515625,0.252883911132812,-0.0149302137032022,0.0149142347366617,-0.00830693207217516
1491141353.4,40.4419409623746,-79.9392138608545,0.0,0.0807037353515625,-0.955398559570312,0.29205322265625,-0.00853516497759495,0.00427250933681412,-0.00308074474900366
1491141353.6,40.4419409623746,-79.9392138608545,0.0,0.0729827880859375,-0.9608154296875,0.344680786132812,-0.0021073593705797,0.025509088501324,-0.00951227878154502
1491141353.8,40.4419409623746,-79.9392138608545,0.0,0.0865020751953125,-0.934295654296875,0.3538818359375,-0.00954716619182506,0.00537612329254296,0.0043995421208109
1491141354.0,40.4419409623746,-79.9392138608545,0.0,0.0970306396484375,-0.929367065429688,0.36102294921875,-0.00424667667424035,0.0255114853463051,-0.0105514442388939
1491141354.2,40.441941884384,-79.9392193929105,0.550000011920929,0.087890625,-0.929443359375,0.393325805664062,-0.0212363128484009,0.0181856618197151,0.00351137789726948
1491141354.4,40.441941884384,-79.9392193929105,0.550000011920929,0.09454345703125,-0.95867919921875,0.36517333984375,-0.000991761189945508,0.0478388952933114,-0.0137408459603728
1491141354.6,40.441941884384,-79.9392193929105,0.550000011920929,0.0660400390625,-0.930999755859375,0.350051879882812,-0.0180602269323724,0.071251010752307,-0.0273330875319193
1491141354.8,40.441941884384,-79.9392193929105,0.550000011920929,0.151657104492188,-0.896682739257812,0.340530395507812,-0.0288566819915536,0.134903223966291,-0.0803699406408473
1491141355.0,40.441941884384,-79.9392193929105,0.550000011920929,0.094512939453125,-0.935043334960938,0.432998657226562,3.32895136259905e-05,0.0934655026690939,-0.0435085953608425
1491141355.2,40.4419330414761,-79.9392183032631,0.550000011920929,0.010040283203125,-0.99505615234375,0.41455078125,-0.0447213989212646,0.138233506909435,-0.0630977430750294
1491141355.4,40.4419330414761,-79.9392183032631,0.550000011920929,0.09979248046875,-0.921585083007812,0.417068481445312,-0.036029906387682,0.0905354928377887,-0.0142630918501374
1491141355.6,40.4419330414761,-79.9392183032631,0.550000011920929,0.101119995117188,-0.966995239257812,0.409866333007812,-0.0360874306672277,0.0331555566231595,0.00693407253023931
1491141355.8,40.4419330414761,-79.9392183032631,0.550000011920929,0.10137939453125,-0.938400268554688,0.34405517578125,-0.0297917178502804,0.0617320740680367,-0.0229399369977245
1491141356.0,40.4419330414761,-79.9392183032631,0.550000011920929,0.104904174804688,-0.928482055664062,0.445785522460938,0.0246459579920293,0.0626519299085501,-0.0140332610480635
1491141356.2,40.4419199657072,-79.939244287163,1.49000000953674,0.0612335205078125,-0.96466064453125,0.395889282226562,-0.0477299720047271,0.044936049705125,0.0135078193649909
1491141356.4,40.4419199657072,-79.939244287163,1.49000000953674,-0.0186004638671875,-0.976043701171875,0.426651000976562,-0.015797605270241,-0.00617906636120185,0.0321792417675364
1491141356.6,40.4419199657072,-79.939244287163,1.49000000953674,0.0287322998046875,-0.93218994140625,0.3499755859375,-0.0221987792663555,0.0129530829099274,0.0216405807018749
1491141356.8,40.4419199657072,-79.939244287163,1.49000000953674,0.101364135742188,-0.88348388671875,0.334716796875,-0.0160487413610355,0.0265613034480143,-0.0221292707619044
1491141357.0,40.4419199657072,-79.939244287163,1.49000000953674,0.0995941162109375,-0.953536987304688,0.303939819335938,-0.0695010476000159,0.012838833299163,-0.0364099394752363
1491141357.2,40.4419045849149,-79.9392993562668,3.73000001907349,0.0560150146484375,-0.925140380859375,0.338333129882812,-0.0289197989093885,-0.0244174587705005,-0.00715271805573482
1491141357.4,40.4419045849149,-79.9392993562668,3.73000001907349,0.09613037109375,-0.961318969726562,0.29144287109375,-0.00451885173764645,-0.080864223339166,0.0041374870695471
1491141357.6,40.4419045849149,-79.9392993562668,3.73000001907349,0.0918121337890625,-0.946426391601562,0.33892822265625,-0.0266654330466364,-0.0530086236013732,0.025811623601157
1491141357.8,40.4419045849149,-79.9392993562668,3.73000001907349,0.181610107421875,-0.916702270507812,0.337860107421875,-0.0258872573761152,-0.0553386232390835,-0.0157936105286059
1491141358.0,40.4419045849149,-79.9392993562668,3.73000001907349,0.0889739990234375,-0.910079956054688,0.358261108398438,-0.0151070475995835,-0.047858869001487,-0.00205036772325201
1491141358.2,40.4419045849149,-79.9392993562668,3.73000001907349,0.122299194335938,-0.989959716796875,0.287353515625,-0.0609730731573642,0.00856126395627773,-0.0343955244267004
1491141358.4,40.4418776370962,-79.9393609632551,6.19999980926514,0.05419921875,-0.919708251953125,0.33648681640625,-0.0172519575415333,0.0222211498195122,-0.0402528809282207
1491141358.6,40.4418776370962,-79.9393609632551,6.19999980926514,0.0765838623046875,-0.950958251953125,0.23333740234375,-0.0146841376184789,0.02782950075911,0.021579061680694
1491141358.8,40.4418776370962,-79.9393609632551,6.19999980926514,0.098663330078125,-0.980026245117188,0.341781616210938,-0.059925918216745,0.0871205213719801,-0.0779512577388373
1491141359.0,40.4418776370962,-79.9393609632551,6.19999980926514,0.0790252685546875,-0.98406982421875,0.23760986328125,-0.0149419316119986,0.0361428244179014,-0.0210549515781665
1491141359.2,40.4418776370962,-79.9393609632551,6.19999980926514,0.0833587646484375,-0.959854125976562,0.307220458984375,-0.0180684827317516,0.062750466868883,-0.0241532731903646
1491141359.4,40.4418464564164,-79.9394272641092,7.44000005722046,0.08056640625,-0.963226318359375,0.251693725585938,-0.0747767697194629,0.0468748309787027,-0.0458622971322546
1491141359.6,40.4418464564164,-79.9394272641092,7.44000005722046,0.08917236328125,-0.998062133789062,0.176010131835938,-0.0235423440363005,0.0361220517613988,-0.0316095916103685
1491141359.8,40.4418464564164,-79.9394272641092,7.44000005722046,0.0883026123046875,-0.983535766601562,0.22894287109375,-0.0265557108097251,-0.00939589864190856,0.0195119160425745
1491141360.0,40.4418464564164,-79.9394272641092,7.44000005722046,0.0377197265625,-0.940841674804688,0.190353393554688,-0.0342897969314242,-0.0541583102439604,0.00244504819680175
1491141360.2,40.4418464564164,-79.9394272641092,7.44000005722046,0.00616455078125,-0.9119873046875,0.229446411132812,-0.00864941458835935,0.0105631621476903,-0.023326627988004
1491141360.4,40.4418206820641,-79.9394919724017,7.44000005722046,-0.009796142578125,-0.990097045898438,0.273239135742188,0.0358855630565997,0.191812845932412,-0.153579440058799
1491141360.6,40.4418206820641,-79.9394919724017,7.44000005722046,0.07489013671875,-1.09768676757812,0.193817138671875,0.0182205492299951,-0.124538201003702,0.237291381551586
1491141360.8,40.4418206820641,-79.9394919724017,7.44000005722046,0.23553466796875,-0.879837036132812,0.163742065429688,-0.00560701935905283,0.0582252235446204,-0.0712443528495818
1491141361.0,40.4418206820641,-79.9394919724017,7.44000005722046,0.319427490234375,-1.04855346679688,0.113800048828125,-0.142559279468051,-0.0980453407957032,0.0965004410473482
1491141361.2,40.4418206820641,-79.9394919724017,7.44000005722046,0.121627807617188,-0.957122802734375,0.200942993164062,-0.04873318478736,0.0301182213999241,0.0305491208642989
1491141361.4,40.4418137881821,-79.9395751950889,7.44000005722046,0.0996551513671875,-0.9332275390625,0.215621948242188,0.00415533024885064,0.0487531584955356,-0.0415309319353497
1491141361.6,40.4418137881821,-79.9395751950889,7.44000005722046,0.10137939453125,-0.981704711914062,0.259078979492188,-0.0244400956397662,0.0022652848232214,0.0109804794905057
1491141361.8,40.4418137881821,-79.9395751950889,7.44000005722046,0.06805419921875,-0.923492431640625,0.185256958007812,-0.000956074831338447,-0.0115991318117311,0.0223801405365899
1491141362.0,40.4418137881821,-79.9395751950889,7.44000005722046,0.068389892578125,-0.9532470703125,0.243759155273438,-0.0384565787729622,-0.0222195519228581,0.000438622631536051
1491141362.2,40.4418137881821,-79.9395751950889,7.44000005722046,0.11474609375,-0.99847412109375,0.213638305664062,-0.0235796282915616,0.025477396884352,-0.0316335600601792
1491141362.4,40.4417806994675,-79.9396512002042,7.09999990463257,0.147842407226562,-0.94970703125,0.211196899414062,-0.0448127453466543,-0.0455294019959947,0.0185949896792603
1491141362.6,40.4417806994675,-79.9396512002042,7.09999990463257,0.177383422851562,-0.966384887695312,0.203887939453125,-0.00959030940148434,-0.080663420992974,0.0425932668941823
1491141362.8,40.4417806994675,-79.9396512002042,7.09999990463257,0.113021850585938,-0.96661376953125,0.205413818359375,0.00644884457962688,-0.0403354389220131,0.0286183290739915
1491141363.0,40.4417806994675,-79.9396512002042,7.09999990463257,0.104476928710938,-0.94464111328125,0.25030517578125,-0.0704653782307336,-0.0646002985620521,0.0188778173870267
1491141363.2,40.4417459374545,-79.9397310489033,7.44999980926514,0.0408172607421875,-0.986434936523438,0.299545288085938,0.00321390280350762,-0.0467211665838051,0.0265120349678478
1491141363.4,40.4417459374545,-79.9397310489033,7.44999980926514,0.04156494140625,-0.987701416015625,0.265274047851562,-0.0374107554128881,0.0457203506461533,-0.037809430628073
1491141363.6,40.4417459374545,-79.9397310489033,7.44999980926514,0.0573883056640625,-0.95050048828125,0.274673461914062,-0.00537399276367089,-0.00425945984747273,-0.00420699557399817
1491141363.8,40.4417459374545,-79.9397310489033,7.44999980926514,0.0955963134765625,-0.963546752929688,0.248565673828125,-0.0319350298955762,-0.0274630497931151,0.0216717396866288
1491141364.0,40.4417459374545,-79.9397310489033,7.44999980926514,0.0822906494140625,-0.953384399414062,0.281982421875,-0.0162817679564174,0.00303680259101736,-0.0445749250613103
1491141364.2,40.4417131788571,-79.9398062957361,7.44999980926514,0.090606689453125,-0.955902099609375,0.239639282226562,-0.0587013967475266,0.00334279980026746,-0.0109754194844346
1491141364.4,40.4417131788571,-79.9398062957361,7.44999980926514,0.152557373046875,-0.934783935546875,0.3226318359375,-0.0607853203005136,-0.0996144753099779,0.0496000437221808
1491141364.6,40.4417131788571,-79.9398062957361,7.44999980926514,0.198196411132812,-0.975555419921875,0.170394897460938,-0.0223583026156512,-0.112456504402449,0.0629446113123498
1491141364.8,40.4417131788571,-79.9398062957361,7.44999980926514,-0.087615966796875,-0.928985595703125,0.276397705078125,0.028768265043363,-0.0372759994617301,0.0166106683510422
1491141365.0,40.4417131788571,-79.9398062957361,7.44999980926514,-0.0344390869140625,-0.993362426757812,0.239166259765625,-0.037339649011783,0.0107296097158202,-0.00909762459981969
1491141365.2,40.4417131788571,-79.9398062957361,7.44999980926514,0.0326080322265625,-0.943450927734375,0.248214721679688,0.0020200076868251,0.0232741637145295,-0.0287653355661639
1491141365.4,40.4416761007716,-79.9398914644774,7.73999977111816,0.0337982177734375,-0.976730346679688,0.21697998046875,-0.0353646487473802,0.0191063166085555,-0.0368301862952508
1491141365.6,40.4416761007716,-79.9398914644774,7.73999977111816,0.0968017578125,-0.983779907226562,0.204086303710938,-0.0342778127065189,-0.0159235727898018,-0.015596270291831
1491141365.8,40.4416761007716,-79.9398914644774,7.73999977111816,0.130889892578125,-0.937911987304688,0.1859130859375,-0.0244656619862309,-0.000938231652034916,0.00884062955462704
1491141366.0,40.4416761007716,-79.9398914644774,7.73999977111816,0.0756072998046875,-0.974960327148438,0.17510986328125,-0.0320018752389372,0.012839898563599,-0.00916074151765456
1491141366.2,40.4416422212907,-79.939969285991,8.11999988555908,0.0632781982421875,-0.968490600585938,0.236801147460938,-0.0246853727761625,0.0817308159578778,-0.066681825270058
1491141366.4,40.4416422212907,-79.939969285991,8.11999988555908,0.0640411376953125,-1.01704406738281,0.196395874023438,-0.0151472613320437,0.0614825358738963,-0.0647169450177976
1491141366.6,40.4416422212907,-79.939969285991,8.11999988555908,0.100662231445312,-0.966888427734375,0.149749755859375,0.011730425653472,-0.0563160033591426,0.0295807954919461
1491141366.8,40.4416422212907,-79.939969285991,8.11999988555908,0.1248779296875,-0.998153686523438,0.139083862304688,-0.076662554087348,-0.0814272155936087,0.0573088298135241
1491141367.0,40.4416422212907,-79.939969285991,8.11999988555908,0.0824127197265625,-1.02609252929688,0.094818115234375,-0.0117101856291874,-0.040297355718425,0.0235175766381627
1491141367.2,40.441606414638,-79.9400515342381,7.6399998664856,0.101089477539062,-1.05439758300781,0.13031005859375,-0.0438446862904105,0.0329741953529251,-0.0366903703380217
1491141367.4,40.441606414638,-79.9400515342381,7.6399998664856,0.0977020263671875,-0.987228393554688,0.0256195068359375,-0.0182557029563842,0.0318253076586649,-0.0359524083999607
1491141367.6,40.441606414638,-79.9400515342381,7.6399998664856,0.0603485107421875,-0.996963500976562,0.09124755859375,-0.0201473462786675,-0.0285229879069667,0.0311169068087038
1491141367.8,40.441606414638,-79.9400515342381,7.6399998664856,0.047821044921875,-0.999420166015625,0.0897369384765625,-0.0243849682052015,0.0405303823138069,-0.000662860795320722
1491141368.0,40.441606414638,-79.9400515342381,7.6399998664856,0.0443115234375,-1.00907897949219,0.038421630859375,-0.0235063913615844,0.00747762370872449,-0.0114140421159706
1491141368.2,40.441606414638,-79.9400515342381,7.6399998664856,0.07781982421875,-0.9830322265625,0.0684967041015625,0.00428955356779063,-0.0276049962792163,0.0180109584522059
1491141368.4,40.4415786773607,-79.9401152470473,6.23999977111816,0.102508544921875,-1.03334045410156,0.0376739501953125,-0.0396166517438007,-0.0265293455149333,-0.0112870093319738
1491141368.6,40.4415786773607,-79.9401152470473,6.23999977111816,0.0919647216796875,-1.00627136230469,0.0193634033203125,-0.0148188935696369,-0.0147389987369345,0.0236158472823867
1491141368.8,40.4415786773607,-79.9401152470473,6.23999977111816,0.10009765625,-1.00907897949219,0.0141754150390625,-0.0150668338671233,-0.0138516334617201,-0.0137032953890027
1491141369.0,40.4415786773607,-79.9401152470473,6.23999977111816,0.1005859375,-0.966827392578125,0.0135955810546875,-0.0181068322514487,-0.0137291280515765,0.00979670438596549
1491141369.2,40.4415786773607,-79.9401152470473,6.23999977111816,0.0756072998046875,-1.02067565917969,0.061187744140625,0.0234808250151196,0.0179885878990492,-0.00558970881196731
1491141369.4,40.4415654607866,-79.940145605653,4.46000003814697,0.096649169921875,-1.00909423828125,0.0435638427734375,-0.0107306749802563,-0.0138159471031131,-0.00309432687056307
1491141369.6,40.4415654607866,-79.940145605653,4.46000003814697,0.099761962890625,-1.03776550292969,0.0474090576171875,-0.0106087022023306,-0.0158537979692417,0.0160948140478939
1491141369.8,40.4415654607866,-79.940145605653,4.46000003814697,0.0465240478515625,-0.988922119140625,0.116928100585938,0.0277762375373084,0.00843902486224309,0.00393135840117497
1491141370.0,40.4415654607866,-79.940145605653,4.46000003814697,0.0938568115234375,-1.00039672851562,0.153030395507812,-0.0171198647514654,-0.0137885165438853,-0.00194650444073892
1491141370.2,40.4415654607866,-79.940145605653,4.46000003814697,0.0816802978515625,-0.965835571289062,0.209487915039062,-0.0127695911108209,0.0128031469405559,-0.00300724150291748
1491141370.4,40.4415373514957,-79.9401984828726,2.70000004768372,0.099334716796875,-0.985733032226562,0.2080078125,-0.0191630419397742,0.0075183700734027,0.000261256102936773
1491141370.6,40.4415373514957,-79.9401984828726,2.70000004768372,0.100662231445312,-0.961380004882812,0.298248291015625,0.0213614814196346,0.00526293894621459,0.00293933089512046
1491141370.8,40.4415373514957,-79.9401984828726,2.70000004768372,0.0950469970703125,-0.945037841796875,0.323013305664062,0.00645816564344215,0.0053303169217936,0.00632846969835529
1491141371.0,40.4415373514957,-79.9401984828726,2.70000004768372,0.098358154296875,-0.966171264648438,0.3162841796875,0.00319126593424195,-0.0265621023963413,0.0126952889164077
1491141371.2,40.4415373514957,-79.9401984828726,2.70000004768372,0.100418090820312,-0.935958862304688,0.31353759765625,0.0138388502884878,-0.0159901518170538,0.00511912824735031
1491141371.4,40.4414991735582,-79.9402699309729,2.8199999332428,0.099884033203125,-0.92974853515625,0.343093872070312,-0.0213055550367429,-0.0179656847136745,0.0119605227716549
1491141371.6,40.4414991735582,-79.9402699309729,2.8199999332428,0.109222412109375,-0.956649780273438,0.35638427734375,-0.00423043139159087,0.0117189740607847,-0.000985635919438326
1491141371.8,40.4414991735582,-79.9402699309729,2.8199999332428,0.10723876953125,-0.969482421875,0.370101928710938,0.0053976948973726,0.0212656076203917,-0.00108630340864332
1491141372.0,40.4414991735582,-79.9402699309729,2.8199999332428,0.0913848876953125,-0.93255615234375,0.322113037109375,-0.013007411396165,0.0370581528845616,-0.0509369505894006
1491141372.2,40.4414980646405,-79.9402732090762,3.66000008583069,0.101272583007812,-0.920867919921875,0.333023071289062,-0.00114649084927911,-0.0106712864879475,-0.00640836453105767
1491141372.4,40.4414980646405,-79.9402732090762,3.66000008583069,0.113204956054688,-0.956893920898438,0.3360595703125,-0.0287829124293584,-0.0221974476858104,0.0120460102426464
1491141372.6,40.4414980646405,-79.9402732090762,3.66000008583069,0.0973968505859375,-0.947021484375,0.338424682617188,-0.0447970326962229,-0.00623019905413137,0.000556068035608545
1491141372.8,40.4414980646405,-79.9402732090762,3.66000008583069,0.0873870849609375,-0.939559936523438,0.297561645507812,-0.0149051799889555,-0.0147997188097883,0.0108198908767739
1491141373.0,40.4414980646405,-79.9402732090762,3.66000008583069,0.037078857421875,-0.946640014648438,0.338623046875,-0.0275996699570362,-0.0911384325085827,0.0651931182207037
1491141373.2,40.441495366391,-79.9402811854487,4.96000003814697,0.01239013671875,-0.943145751953125,0.299667358398438,-0.0481699262168082,-0.138010334010086,0.042952793641343
1491141373.4,40.441495366391,-79.9402811854487,4.96000003814697,-0.082550048828125,-0.976486206054688,0.318939208984375,-0.0494160192908563,-0.197596432871737,0.0470974712458333
1491141373.6,40.441495366391,-79.9402811854487,4.96000003814697,-0.073455810546875,-0.942794799804688,0.316207885742188,0.0112992598729882,-0.169174645086194,0.0239950814216139
1491141373.8,40.441495366391,-79.9402811854487,4.96000003814697,-0.05645751953125,-0.949295043945312,0.260406494140625,-0.0357191154884698,-0.198820688024847,0.02345925341029
1491141374.0,40.441495366391,-79.9402811854487,4.96000003814697,-0.0956268310546875,-0.97119140625,0.270065307617188,-0.0122795694702464,-0.165995363376857,0.00404081432197723
1491141374.2,40.4414952547597,-79.9402815154451,5.69999980926514,-0.099334716796875,-0.89080810546875,0.258331298828125,0.0581218928943253,-0.152408448127491,0.00210922358334276
1491141374.4,40.4414952547597,-79.9402815154451,5.69999980926514,-0.087249755859375,-0.96221923828125,0.32061767578125,0.0101527690237091,-0.179845931574141,0.0175867168905563
1491141374.6,40.4414952547597,-79.9402815154451,5.69999980926514,-0.002349853515625,-0.898483276367188,0.412872314453125,-0.0612545692845855,-0.11481047248997,-0.0122806347346824
1491141374.8,40.4414952547597,-79.9402815154451,5.69999980926514,-0.0391845703125,-0.955764770507812,0.261871337890625,-0.00677401654872555,-0.144653855665398,0.0189494564203498
1491141375.0,40.4414952547597,-79.9402815154451,5.69999980926514,-0.037384033203125,-0.965988159179688,0.211517333984375,-0.0185124316854678,-0.209393437552461,0.0509425432276897
1491141375.2,40.4414952547597,-79.9402815154451,5.69999980926514,-0.0756683349609375,-0.99169921875,0.259750366210938,-0.0631635231539543,-0.255870924896524,0.0940607191727266
1491141375.4,40.4415212046458,-79.9404432267756,6.51000022888184,-0.0836944580078125,-0.915771484375,0.319686889648438,0.0592390889716136,-0.146005143602504,0.00637534133354069
1491141375.6,40.4415212046458,-79.9404432267756,6.51000022888184,-0.03228759765625,-0.970016479492188,0.244964599609375,-0.00132146053289732,-0.173256205772849,0.0518730517125634
1491141375.8,40.4415212046458,-79.9404432267756,6.51000022888184,-0.0173492431640625,-0.978683471679688,0.342636108398438,-0.0738081780310011,-0.128401382480971,0.0305043797579856
1491141376.0,40.4415212046458,-79.9404432267756,6.51000022888184,-0.029541015625,-0.94635009765625,0.232040405273438,-0.00348820839578579,-0.133984966022432,0.0263969864087564
1491141376.2,40.4415392700579,-79.9405232550868,7.17000007629395,-0.043670654296875,-1.00888061523438,0.268768310546875,0.0102305333275394,-0.190409626354049,0.0346240236482292
1491141376.4,40.4415392700579,-79.9405232550868,7.17000007629395,-0.0306854248046875,-0.962539672851562,0.337860107421875,-0.0580238885662104,-0.085067224171529,-0.0229175664445679
1491141376.6,40.4415392700579,-79.9405232550868,7.17000007629395,0.0417022705078125,-0.973861694335938,0.256622314453125,-0.0313283617992561,-0.10742818994827,-0.00517984832020412
1491141376.8,40.4415392700579,-79.9405232550868,7.17000007629395,0.137039184570312,-0.941925048828125,0.245086669921875,0.0295941112973965,-0.118148744916384,0.0228129042137278
1491141377.0,40.4415392700579,-79.9405232550868,7.17000007629395,0.08270263671875,-0.99249267578125,0.258087158203125,-0.0429285588754233,-0.0733192216548625,-0.00388741624318866
1491141377.2,40.4415392700579,-79.9405232550868,7.17000007629395,0.11712646484375,-0.942596435546875,0.22711181640625,-0.0459208866762363,-0.0370605497295427,0.00796444955599097
1491141377.4,40.4415598759141,-79.940618846051,8.35000038146973,0.133621215820312,-0.908401489257812,0.234619140625,-0.0833476210556649,0.0819156393375293,-0.0702001273861617
1491141377.6,40.4415598759141,-79.940618846051,8.35000038146973,0.094207763671875,-0.9580078125,0.292510986328125,0.0114782242982415,0.0826077949048409,-0.0799371769637094
1491141377.8,40.4415598759141,-79.940618846051,8.35000038146973,0.09161376953125,-0.982681274414062,0.281005859375,-0.0479006806306012,0.0596817063447847,-0.0195148455197736
1491141378.0,40.4415598759141,-79.940618846051,8.35000038146973,0.178298950195312,-0.973648071289062,0.260696411132812,-0.0182056355278907,0.0870763128978848,-0.0571543664702995
1491141378.2,40.4415791713309,-79.9407140697837,9.27000045776367,0.2242431640625,-0.971023559570312,0.223281860351562,0.0118790300422984,0.068024058459458,-0.0127919616639776
1491141378.4,40.4415791713309,-79.9407140697837,9.27000045776367,0.180587768554688,-1.01107788085938,0.23004150390625,0.0533287355644007,0.00301709519895077,0.00146074385790846
1491141378.6,40.4415791713309,-79.9407140697837,9.27000045776367,0.150360107421875,-0.974929809570312,0.208999633789062,-0.00751064690624147,0.0169816466908903,-0.0158615211364029
1491141378.8,40.4415791713309,-79.9407140697837,9.27000045776367,0.116867065429688,-1.06753540039062,0.19976806640625,0.0575575690593375,0.121903535737287,-0.065503909119916
1491141379.0,40.4415791713309,-79.9407140697837,9.27000045776367,0.0862884521484375,-0.992477416992188,0.130767822265625,-0.081234669046796,0.101007841192307,-0.0829801048252339
1491141379.2,40.4415791713309,-79.9407140697837,9.27000045776367,0.132278442382812,-0.958633422851562,0.159988403320312,-0.0597336379860413,0.129729500916594,-0.0714574057367881
1491141379.4,40.4416024765803,-79.9408290822174,9.86999988555908,0.0654296875,-1.02145385742188,0.20452880859375,0.0674149935181568,0.0965707485001263,-0.0134335171705777
1491141379.6,40.4416024765803,-79.9408290822174,9.86999988555908,0.182266235351562,-0.947052001953125,0.138504028320312,-0.0364142005329804,0.122120317050019,-0.0877679358329784
1491141379.8,40.4416024765803,-79.9408290822174,9.86999988555908,0.234939575195312,-1.09747314453125,0.19342041015625,0.15158712924731,0.0378419211933719,0.00882092216256045
1491141380.0,40.4416024765803,-79.9408290822174,9.86999988555908,0.279251098632812,-0.983612060546875,0.175628662109375,-0.163233132694227,-0.139680934961893,0.0561444957849415
1491141380.2,40.4416024765803,-79.9408290822174,9.86999988555908,0.195083618164062,-1.01373291015625,0.10968017578125,-0.069472285460243,-0.0158106547595824,-0.0172807196813062
1491141380.4,40.4416262876339,-79.9409465908169,10.2399997711182,0.06890869140625,-1.00138854980469,0.136932373046875,0.0320607310990279,0.0551593924977212,-0.01734410291525
1491141380.6,40.4416262876339,-79.9409465908169,10.2399997711182,0.0947265625,-0.94622802734375,0.215255737304688,-0.0394137188687367,0.0150252885541181,-0.00266289477397023
1491141380.8,40.4416262876339,-79.9409465908169,10.2399997711182,0.200469970703125,-0.998214721679688,0.132980346679688,-0.00317235749050239,0.00533857272117284,0.0011190602900513
1491141381.0,40.4416262876339,-79.9409465908169,10.2399997711182,0.106201171875,-1.05210876464844,0.106002807617188,0.0118878184738957,0.0521026161985282,-0.00323094703448413
1491141381.2,40.4416262876339,-79.9409465908169,10.2399997711182,0.0695037841796875,-1.04098510742188,0.13299560546875,-0.00959936414919061,-0.0668658497013825,0.0340937882751944
1491141381.4,40.4416473627096,-79.9410505972449,9.9399995803833,0.0574798583984375,-1.10824584960938,0.181777954101562,0.0107429255212706,-0.17518326913763,0.102902680307899
1491141381.6,40.4416473627096,-79.9410505972449,9.9399995803833,0.0399627685546875,-0.951553344726562,0.193649291992188,0.00857511239394614,-0.115737785181536,0.0668088580540548
1491141381.8,40.4416473627096,-79.9410505972449,9.9399995803833,0.0706024169921875,-0.973709106445312,0.185440063476562,-0.0330562207144995,-0.00838496269211448,0.00360086010989614
1491141382.0,40.4416473627096,-79.9410505972449,9.9399995803833,0.110595703125,-0.971221923828125,0.030059814453125,0.0297661515038156,0.049743321788827,-0.0386555169063911
1491141382.2,40.4416473627096,-79.9410505972449,9.9399995803833,0.07086181640625,-0.979888916015625,-0.051849365234375,-0.00749253741082893,-0.0392832239753228,0.0160013370936321
1491141382.4,40.4416703672703,-79.9411641257663,9.57999992370605,0.129440307617188,-1.044921875,0.0429229736328125,-0.0202227137375167,0.0584950017630454,-0.0252020260276378
1491141382.6,40.4416703672703,-79.9411641257663,9.57999992370605,0.186737060546875,-0.989532470703125,-0.0074920654296875,0.00867258408984304,0.00219524368655232,0.0201564010263737
1491141382.8,40.4416703672703,-79.9411641257663,9.57999992370605,0.207595825195312,-1.01548767089844,-0.0692138671875,0.0224568395759842,0.0381969205666795,-0.00979590543763846
1491141383.0,40.4416703672703,-79.9411641257663,9.57999992370605,0.166488647460938,-1.05839538574219,-0.0484161376953125,0.0117826236108376,0.0445956977178129,-0.0149773516544966
1491141383.2,40.4416703672703,-79.9411641257663,9.57999992370605,0.135650634765625,-0.989990234375,-0.0673065185546875,-0.0469222352461061,0.0489979029997139,-0.0270167039944178
1491141383.4,40.4416890934367,-79.941256401174,8.17000007629395,0.1571044921875,-0.987503051757812,-0.101043701171875,-0.00857804187114523,0.121044932601845,-0.0699958629305526
1491141383.6,40.4416890934367,-79.941256401174,8.17000007629395,0.129257202148438,-1.02143859863281,-0.05902099609375,-0.00740651730761937,0.0446628093772829,-0.0147328734664274
1491141383.8,40.4416890934367,-79.941256401174,8.17000007629395,0.0873870849609375,-0.971115112304688,-0.018707275390625,-0.0671982122054244,0.0267554478914811,-0.0182783398256498
1491141384.0,40.4416890934367,-79.941256401174,8.17000007629395,0.111465454101562,-1.05000305175781,-0.0572509765625,-0.0831580039860512,0.103285909188761,-0.0530909152790566
1491141384.2,40.4416890934367,-79.941256401174,8.17000007629395,0.266616821289062,-0.980880737304688,-0.16058349609375,0.00544509916477601,0.16995681549835,-0.0711285053421633
1491141384.4,40.4417046334554,-79.9413328252902,6.21000003814697,0.124343872070312,-1.0126953125,-0.0528411865234375,-0.0127429594999201,0.0818416034592251,-0.0348413375931797
1491141384.6,40.4417046334554,-79.9413328252902,6.21000003814697,0.106674194335938,-0.99810791015625,0.0490875244140625,-0.0628580585769222,0.00130974262410097,0.00613539051932455
1491141384.8,40.4417046334554,-79.9413328252902,6.21000003814697,0.120529174804688,-0.986740112304688,0.156539916992188,0.0149861400860939,0.0297224756619383,-0.00652101624516802
1491141385.0,40.4417046334554,-79.9413328252902,6.21000003814697,0.140792846679688,-0.954391479492188,0.206878662109375,0.00104795388894618,0.0275914141576569,-0.0170125393595352
1491141385.2,40.4417147517934,-79.9413825861726,3.88000011444092,0.16546630859375,-0.97772216796875,0.176177978515625,-0.0169129371347662,0.030954453982209,0.00561847095174017
1491141385.4,40.4417147517934,-79.9413825861726,3.88000011444092,0.1197509765625,-0.986053466796875,0.16998291015625,-0.0179885878990492,0.0691777398436803,-0.0156082545167364
1491141385.6,40.4417147517934,-79.9413825861726,3.88000011444092,0.182937622070312,-0.937881469726562,0.185592651367188,-0.0330799228482012,0.117957529950117,-0.0654253458677586
1491141385.8,40.4417147517934,-79.9413825861726,3.88000011444092,0.28582763671875,-0.990020751953125,0.169769287109375,-0.00845260698380249,0.146617404337113,-0.0646066901486683
1491141386.0,40.4417147517934,-79.9413825861726,3.88000011444092,0.256591796875,-0.957061767578125,0.204788208007812,-0.0271780915564766,0.145948950903503,0.00494682172482218
1491141386.2,40.4417147517934,-79.9413825861726,3.88000011444092,0.256256103515625,-0.976364135742188,0.173629760742188,-0.0272590516536151,0.217035378300444,-0.0439437558829615
1491141386.4,40.4417252880452,-79.9414344023094,4.26000022888184,0.248687744140625,-1.00523376464844,0.225448608398438,-0.014148043291046,0.318089558495718,-0.0492106895708112
1491141386.6,40.4417252880452,-79.9414344023094,4.26000022888184,0.196365356445312,-0.992401123046875,0.213775634765625,-0.0230691003105934,0.283864210062674,-0.0896992602555039
1491141386.8,40.4417252880452,-79.9414344023094,4.26000022888184,0.303695678710938,-0.982666015625,0.235595703125,-0.00457957181050026,0.310604744252051,-0.0493497065797133
1491141387.0,40.4417252880452,-79.9414344023094,4.26000022888184,0.238906860351562,-0.933761596679688,0.240005493164062,-0.0265349381532225,0.343904111574074,-0.00207167301197264
1491141387.2,40.4417252880452,-79.9414344023094,4.26000022888184,0.245620727539062,-0.876358032226562,0.268905639648438,-0.0342586379466703,0.324633211610152,-0.0308106432833447
1491141387.4,40.4417352596905,-79.9414834417732,4.6100001335144,0.248382568359375,-0.948532104492188,0.269241333007812,-0.103547697923916,0.307889651520715,-0.0203691875974711
1491141387.6,40.4417352596905,-79.9414834417732,4.6100001335144,0.244796752929688,-0.914764404296875,0.241622924804688,-0.0748638550871085,0.428768669186648,-0.0983047326858769
1491141387.8,40.4417352596905,-79.9414834417732,4.6100001335144,0.406967163085938,-0.934982299804688,0.23590087890625,-0.0258307983610056,0.496550912619127,-0.135031322014724
1491141388.0,40.4417352596905,-79.9414834417732,4.6100001335144,0.332656860351562,-0.960922241210938,0.26043701171875,0.00943371552938769,0.452951769781222,-0.100388922554973
1491141388.2,40.4417352596905,-79.9414834417732,4.6100001335144,0.261520385742188,-1.00363159179688,0.259414672851562,-0.0473286336284522,0.493315704526899,-0.159292453229236
1491141388.4,40.4417444695455,-79.941528734835,5.63000011444092,0.383697509765625,-0.906997680664062,0.274627685546875,0.00923158160265067,0.446438476703215,-0.127061546136553
1491141388.6,40.4417444695455,-79.941528734835,5.63000011444092,0.3612060546875,-0.906845092773438,0.233535766601562,0.0330833849576183,0.498667060421304,-0.0952530163927551
1491141388.8,40.4417444695455,-79.941528734835,5.63000011444092,0.462905883789062,-0.961868286132812,0.27691650390625,0.00513777037498087,0.515593047045412,-0.137514719731223
1491141389.0,40.4417444695455,-79.941528734835,5.63000011444092,0.234222412109375,-0.911865234375,0.331039428710938,-0.0615845349436464,0.250984823244556,-0.0924835951751817
1491141389.2,40.4417444695455,-79.941528734835,5.63000011444092,0.298049926757812,-0.824111938476562,0.192352294921875,-0.0803204058445718,0.196155130089786,0.00360592011596729
1491141389.4,40.4417512184711,-79.941561925315,6.30999994277954,0.261520385742188,-0.934906005859375,0.30810546875,-0.0444116732864884,0.314717197607351,-0.108552043928284
1491141389.6,40.4417512184711,-79.941561925315,6.30999994277954,0.338653564453125,-0.964645385742188,0.377639770507812,0.037878406500306,0.12875078921599,0.0168759191956141
1491141389.8,40.4417512184711,-79.941561925315,6.30999994277954,0.246627807617188,-0.915115356445312,0.319320678710938,-0.0133847813226292,0.110813600325979,0.0132217958639164
1491141390.0,40.4417512184711,-79.941561925315,6.30999994277954,0.0868682861328125,-0.993576049804688,0.413360595703125,0.0280428199624254,0.0702134431916121,0.0115346833133512
1491141390.2,40.4417512184711,-79.941561925315,6.30999994277954,0.202865600585938,-1.019287109375,0.42529296875,0.00979510648931144,0.0797456956813327,-0.0116721024255993
1491141390.4,40.4415811822084,-79.9416475297925,7.69999980926514,0.217864990234375,-0.968460083007812,0.314224243164062,0.0643494287873666,0.0361502812689536,0.0376544346526303
1491141390.6,40.4415811822084,-79.9416475297925,7.69999980926514,0.06927490234375,-0.908889770507812,0.38311767578125,0.039793219324073,0.00116939403465379,0.050683683969734
1491141390.8,40.4415811822084,-79.9416475297925,7.69999980926514,-0.0738983154296875,-1.03285217285156,0.3990478515625,0.0762348504162813,0.011798602577378,0.073705113696815
1491141391.0,40.4415811822084,-79.9416475297925,7.69999980926514,0.0915679931640625,-0.869064331054688,0.345916748046875,-0.052833653917755,0.0461760175086659,0.0466343475322685
1491141391.2,40.4415811822084,-79.9416475297925,7.69999980926514,0.140289306640625,-1.04814147949219,0.411422729492188,-0.0236880189479278,0.193172123352789,-0.134688839498539
1491141391.4,40.4415090861749,-79.9416810319074,8.93000030517578,0.0850067138671875,-1.02549743652344,0.392715454101562,-0.0768556332663787,0.012940832368913,-0.0203199191173046
1491141391.6,40.4415090861749,-79.9416810319074,8.93000030517578,0.11517333984375,-0.888320922851562,0.3216552734375,0.010957576305131,-0.154857224749819,0.124274814371894
1491141391.8,40.4415090861749,-79.9416810319074,8.93000030517578,0.098236083984375,-1.06640625,0.42144775390625,-0.0168737886667421,-0.230231075185677,0.146850697248604
1491141392.0,40.4415090861749,-79.9416810319074,8.93000030517578,-0.033233642578125,-0.963043212890625,0.373077392578125,-0.000995489615471619,0.104113885971667,-0.0434710447894724
1491141392.2,40.4415090861749,-79.9416810319074,8.93000030517578,0.0906524658203125,-0.948211669921875,0.308822631835938,-0.0799156053588798,0.111800567825962,-0.0509798274829508
1491141392.4,40.4414285390943,-79.9417184611171,10.1199998855591,0.120040893554688,-1.02484130859375,0.282867431640625,-0.0226975893385273,0.106044145129756,-0.100776412493579
1491141392.6,40.4414285390943,-79.9417184611171,10.1199998855591,-0.00506591796875,-0.9312744140625,0.357894897460938,0.0189649027546723,0.0178264013886634,-0.0428569198421001
1491141392.8,40.4414285390943,-79.9417184611171,10.1199998855591,0.110748291015625,-0.94219970703125,0.41827392578125,-0.0384688293139766,0.0807704800687952,-0.0547780278296218
1491141393.0,40.4414285390943,-79.9417184611171,10.1199998855591,0.215103149414062,-1.06904602050781,0.36749267578125,-0.00214357836140478,-0.14865845099655,0.0754010146789774
1491141393.2,40.4414285390943,-79.9417184611171,10.1199998855591,0.18328857421875,-0.909912109375,0.234786987304688,0.0107378655151995,-0.100857905222936,0.0636162605392678
1491141393.4,40.4413402064055,-79.9417608843282,10.9399995803833,0.131027221679688,-0.91424560546875,0.290679931640625,0.00106100337828757,-0.0690270049259818,0.0350195030701059
1491141393.6,40.4413402064055,-79.9417608843282,10.9399995803833,0.155548095703125,-0.965179443359375,0.381317138671875,-0.0170953636694366,-0.105089668195072,0.0490311925133398
1491141393.8,40.4413402064055,-79.9417608843282,10.9399995803833,0.0806427001953125,-0.88995361328125,0.293563842773438,0.0436161870688817,-0.0203928897311728,-0.0038013961399791
1491141394.0,40.4413402064055,-79.9417608843282,10.9399995803833,0.128982543945312,-0.853271484375,0.382598876953125,-0.0431650475802223,0.0762340514679542,-0.116580409350437
1491141394.2,40.4412468167788,-79.9418069454707,11.6000003814697,0.120849609375,-0.997726440429688,0.301742553710938,-0.00114409400429804,0.00844355223609622,-0.0159621886256079
1491141394.4,40.4412468167788,-79.9418069454707,11.6000003814697,-0.0574951171875,-0.9156494140625,0.309967041015625,-0.0134391098088669,0.136259571909468,-0.00804727386589243
1491141394.6,40.4412468167788,-79.9418069454707,11.6000003814697,-0.069671630859375,-0.943405151367188,0.343246459960938,-0.0160862919324056,0.128471689933749,-0.0805473071694466
1491141394.8,40.4412468167788,-79.9418069454707,11.6000003814697,0.00286865234375,-0.9461669921875,0.366867065429688,0.0167893664601865,0.0156796272339505,-0.0481661977912821
1491141395.0,40.4412468167788,-79.9418069454707,11.6000003814697,0.145477294921875,-1.01138305664062,0.361679077148438,0.0309656392587873,-0.118999358568556,0.0686491023672995
1491141395.2,40.4412468167788,-79.9418069454707,11.6000003814697,0.117538452148438,-0.883392333984375,0.269744873046875,-0.0103088302635877,-0.0613019735519889,0.0842368505436423
1491141395.4,40.4411475530301,-79.9418573194404,12.2200002670288,0.07421875,-1.01374816894531,0.301071166992188,-0.0746111210996599,-0.0082243740783827,0.00732955195211608
1491141395.6,40.4411475530301,-79.9418573194404,12.2200002670288,0.0703582763671875,-0.94488525390625,0.26055908203125,0.00966727475698763,-0.079620527110099,0.0519481528553036
1491141395.8,40.4411475530301,-79.9418573194404,12.2200002670288,0.0642547607421875,-0.95849609375,0.369674682617188,-0.00224477848282779,-0.0382981206881025,0.00313986692520342
1491141396.0,40.4411475530301,-79.9418573194404,12.2200002670288,0.171478271484375,-1.05760192871094,0.32867431640625,-0.0477954857675431,-0.10482974367268,0.0814149650525944
1491141396.2,40.4411475530301,-79.9418573194404,12.2200002670288,0.0965576171875,-1.01228332519531,0.340957641601562,-0.0767661510537521,0.00981827599079513,-0.00539849384569962
1491141396.4,40.4410417831493,-79.941910995116,12.8900003433228,-0.0321044921875,-0.980712890625,0.294082641601562,-0.124893733009228,0.209503426105481,-0.131229925874745
1491141396.6,40.4410417831493,-79.941910995116,12.8900003433228,-0.0936431884765625,-0.935745239257812,0.38409423828125,0.0724528953522597,0.230138397179742,-0.126230373560339
1491141396.8,40.4410417831493,-79.941910995116,12.8900003433228,0.0418548583984375,-0.886856079101562,0.17236328125,0.108649515624181,0.064329455079191,-0.0481576756757939
1491141397.0,40.4410417831493,-79.941910995116,12.8900003433228,0.113311767578125,-0.92730712890625,0.311447143554688,0.0490628841303118,-0.067050673081034,0.0376120903912981
1491141397.2,40.4409308490374,-79.9419672915149,13.2700004577637,0.177719116210938,-1.05056762695312,0.258621215820312,-0.0115831528451906,-0.087990842416218,0.0671292363331913
1491141397.4,40.4409308490374,-79.9419672915149,13.2700004577637,0.0403900146484375,-0.981338500976562,0.296035766601562,0.0436297691904411,-0.026754382627045,0.0015158712924731
1491141397.6,40.4409308490374,-79.9419672915149,13.2700004577637,0.101028442382812,-0.921417236328125,0.192367553710938,0.0320924227159999,-0.0361366991473942,0.0346999237392964
1491141397.8,40.4409308490374,-79.9419672915149,13.2700004577637,0.045074462890625,-0.915740966796875,0.141754150390625,-0.0799355790670554,-0.047489754874402,0.028635373304968
1491141398.0,40.4409308490374,-79.9419672915149,13.2700004577637,0.013916015625,-1.03176879882812,0.205795288085938,-0.0354304288263052,-0.0181044354064677,-0.0273171085653788
1491141398.2,40.4409308490374,-79.9419672915149,13.2700004577637,0.0116119384765625,-0.991256713867188,0.185394287109375,-0.0267487899887559,0.0563024212375832,-0.0432529318961949
1491141398.4,40.4408214434548,-79.9420228122219,13.0200004577637,-0.067657470703125,-0.90582275390625,0.138381958007812,-0.0235394145591014,0.0881543605071489,-0.0581503887179892
1491141398.6,40.4408214434548,-79.9420228122219,13.0200004577637,0.041778564453125,-1.01475524902344,-0.009521484375,-0.118733042459548,0.0787086607528558,-0.0985500098222732
1491141398.8,40.4408214434548,-79.9420228122219,13.0200004577637,-0.01629638671875,-0.996566772460938,0.099090576171875,0.0116063223466743,0.0147400640013706,-0.0257077603186439
1491141399.0,40.4408214434548,-79.9420228122219,13.0200004577637,0.066741943359375,-1.02070617675781,0.0731201171875,-0.00546746971793268,-0.0329949680094277,-0.00320538068801937
1491141399.2,40.4407204874116,-79.9420740449904,11.8299999237061,0.0521392822265625,-1.029052734375,0.062164306640625,-0.0267003204569164,-0.0732081678374062,0.0310977320488553
1491141399.4,40.4407204874116,-79.9420740449904,11.8299999237061,-0.0044403076171875,-0.978927612304688,0.084014892578125,-0.059591158867722,0.00453243385920586,0.0146324722933314
1491141399.6,40.4407204874116,-79.9420740449904,11.8299999237061,0.0751800537109375,-0.974899291992188,-0.034027099609375,-0.0201782389473124,-0.0168644676029268,0.0204799750988184
1491141399.8,40.4407204874116,-79.9420740449904,11.8299999237061,0.042388916015625,-0.999542236328125,0.0332794189453125,0.00633752444606156,-0.0393519335314469,0.0115594507114889
1491141400.0,40.4407204874116,-79.9420740449904,11.8299999237061,0.0637969970703125,-1.01516723632812,-0.0488128662109375,0.0106329369682504,-0.048901496568253,0.0210805179246312
1491141400.2,40.4406377327232,-79.9421160410084,8.89000034332275,0.0726165771484375,-1.05450439453125,-0.0158843994140625,-0.0148937283962681,-0.0381521794603662,0.0246294463932708
1491141400.4,40.4406377327232,-79.9421160410084,8.89000034332275,0.0948944091796875,-1.05195617675781,-0.0376434326171875,-0.0233173069241888,-0.0614090326278101,0.0524099449883234
1491141400.6,40.4406377327232,-79.9421160410084,8.89000034332275,0.086822509765625,-1.04649353027344,-0.056854248046875,0.0246819106667454,-0.0520016823932142,0.0507539914225121
1491141400.8,40.4406377327232,-79.9421160410084,8.89000034332275,0.052886962890625,-0.9970703125,0.102493286132812,-0.0319238446189978,0.00440007475302892,0.00681502922951277
1491141401.0,40.4406377327232,-79.9421160410084,8.89000034332275,0.075714111328125,-0.98516845703125,0.212112426757812,0.0351694390394774,-0.0277384206498293,0.0122854284246445
1491141401.2,40.4405755386446,-79.9421457333524,6.28999996185303,0.0908660888671875,-0.948104858398438,0.219207763671875,0.0363939605086958,-0.0255069579724519,0.0346695637028695
1491141401.4,40.4405755386446,-79.9421457333524,6.28999996185303,-0.08673095703125,-0.952713012695312,0.25958251953125,-0.0214467025745171,0.0318415529413144,-0.0348453323348148
1491141401.6,40.4405755386446,-79.9421457333524,6.28999996185303,0.0975189208984375,-0.962600708007812,0.255294799804688,0.00542432650827339,-0.0530445762760893,0.0413991054613908
1491141401.8,40.4405755386446,-79.9421457333524,6.28999996185303,-0.0061798095703125,-0.907440185546875,0.27532958984375,-0.0320032068194822,-0.055118912449152,0.0258747405189919
1491141402.0,40.4405755386446,-79.9421457333524,6.28999996185303,-0.05841064453125,-0.899124145507812,0.249786376953125,-0.0500695590223617,0.0246225221744366,-0.00677082075541746
1491141402.2,40.4405755386446,-79.9421457333524,6.28999996185303,-0.0350189208984375,-0.956985473632812,0.365127563476562,-0.00836259213895782,0.0904031337316118,-0.022080534913956
1491141402.4,40.4405346651222,-79.9421638871438,5.80999994277954,0.116073608398438,-0.91058349609375,0.304702758789062,-0.0533313987254908,-0.0529255329753627,0.0240185172392066
1491141402.6,40.4405346651222,-79.9421638871438,5.80999994277954,0.034332275390625,-0.978668212890625,0.374725341796875,-0.0413517011939874,-0.0135003625139387,0.0410190723738365
1491141402.8,40.4405346651222,-79.9421638871438,5.80999994277954,0.07122802734375,-0.969436645507812,0.324264526367188,-0.0377066326099959,-0.0489917777292067,-0.0326911013290497
1491141403.0,40.4405346651222,-79.9421638871438,5.80999994277954,0.140365600585938,-0.999313354492188,0.3173828125,-0.0679558815355519,-0.122743496745098,0.105091532407835
1491141403.2,40.4405346651222,-79.9421638871438,5.80999994277954,0.0879669189453125,-0.886215209960938,0.267669677734375,0.00427570513012222,-0.0520371024357123,0.0286191280223185
1491141403.4,40.4404709793697,-79.9421895442753,6.19999980926514,0.156097412109375,-0.91204833984375,0.294754028320312,0.0214120814803461,0.00742222995805084,0.00934210278788896
1491141403.6,40.4404709793697,-79.9421895442753,6.19999980926514,0.0857086181640625,-0.892898559570312,0.276290893554688,-0.0221604297466583,0.0320932216643269,0.0174184051096633
1491141403.8,40.4404709793697,-79.9421895442753,6.19999980926514,0.109207153320312,-0.968719482421875,0.185211181640625,-0.0712821697370609,0.0598143317670707,-0.00855274184078947
1491141404.0,40.4404709793697,-79.9421895442753,6.19999980926514,0.0923919677734375,-0.951797485351562,0.152862548828125,-0.0617565751500655,0.111762484622374,-0.0458790750471221
1491141404.2,40.4404608715959,-79.9421936023064,6.65999984741211,0.07659912109375,-1.01626586914062,0.188018798828125,-0.0809172202448586,0.0810562372537607,-0.025443841054617
1491141404.4,40.4404608715959,-79.9421936023064,6.65999984741211,0.18231201171875,-0.933135986328125,0.164199829101562,-0.00518810411958336,0.0160463445160544,0.0128998196881258
1491141404.6,40.4404608715959,-79.9421936023064,6.65999984741211,0.120590209960938,-1.01168823242188,0.138702392578125,-0.0329949680094277,0.0500594390102194,-0.0175939074254995
1491141404.8,40.4404608715959,-79.9421936023064,6.65999984741211,0.0712432861328125,-0.97802734375,0.159332275390625,0.00950428929827479,0.111396299972488,-0.0713146603023599
1491141405.0,40.4404608715959,-79.9421936023064,6.65999984741211,0.0843048095703125,-1.00816345214844,0.146469116210938,-0.0575647595942807,0.136118957003912,-0.069337529509085
1491141405.2,40.4404608715959,-79.9421936023064,6.65999984741211,0.093658447265625,-0.996841430664062,0.06036376953125,-0.0330943039180877,0.0892776818549443,-0.0526941042766348
1491141405.4,40.4404608715959,-79.9421936023064,6.17000007629395,0.0949249267578125,-1.00904846191406,0.0890045166015625,0.024534637858464,0.0923051633821464,-0.0459560404026254
1491141405.6,40.4404608715959,-79.9421936023064,6.17000007629395,0.0565185546875,-0.968917846679688,0.0923004150390625,-0.0181446491389279,0.0860573874648205,-0.0475597960110711
1491141405.8,40.4404608715959,-79.9421936023064,6.17000007629395,0.0915679931640625,-1.01768493652344,0.075592041015625,-0.0342447895090019,0.0467483308269239,-0.0431794286501087
1491141406.0,40.4404608715959,-79.9421936023064,6.17000007629395,0.097076416015625,-0.985595703125,0.077850341796875,-0.0534102282937571,0.0638215902593129,-0.048228249444681
1491141406.2,40.4404608715959,-79.9421936023064,6.17000007629395,0.100662231445312,-1.04486083984375,0.100982666015625,-0.0374099564645611,0.0807616916371979,-0.055857939651649
1491141406.4,40.440308549755,-79.9422383462423,4.73999977111816,0.114990234375,-0.976058959960938,0.067840576171875,-0.0128223217004045,0.0796620724231042,-0.0455094282878191
1491141406.6,40.440308549755,-79.9422383462423,4.73999977111816,0.143310546875,-1.02667236328125,0.0130157470703125,-0.00964730104881204,0.00955302514622323,-0.0126521457067484
1491141406.8,40.440308549755,-79.9422383462423,4.73999977111816,0.132369995117188,-0.995147705078125,0.107894897460938,-0.00961054942576895,0.0159499380845936,-0.0105051052359266
1491141407.0,40.440308549755,-79.9422383462423,4.73999977111816,0.080291748046875,-0.96539306640625,0.126129150390625,-0.0212672055170458,0.029844182123755,-0.00712555381261601
1491141407.2,40.440308549755,-79.9422383462423,4.73999977111816,0.100082397460938,-1.02481079101562,0.07708740234375,-0.00322269123510489,0.0339728807617048,-0.021209148605282
1491141407.4,40.4402782308353,-79.942247213543,3.19000005722046,0.11810302734375,-0.987258911132812,0.079345703125,-0.0266489214478779,-0.00733780775149533,0.00458809392598851
1491141407.6,40.4402782308353,-79.942247213543,3.19000005722046,0.108367919921875,-0.986099243164062,0.133880615234375,-0.0031995217336212,0.0180615585129174,-0.00951547457485312
1491141407.8,40.4402782308353,-79.942247213543,3.19000005722046,0.109085083007812,-0.965179443359375,0.208099365234375,0.00540168963900772,0.0244539440774346,-0.00214544257416783
1491141408.0,40.4402782308353,-79.942247213543,3.19000005722046,0.0981903076171875,-0.964630126953125,0.226821899414062,0.00640436978942255,0.0350240304439591,-0.0170636720524647
1491141408.2,40.4402782308353,-79.942247213543,3.19000005722046,0.103164672851562,-0.941558837890625,0.28839111328125,-0.00434441468624626,0.0488032259240291,-0.0371569561610035
1491141408.4,40.4402567623321,-79.9422534923839,1.95000004768372,0.110549926757812,-0.9622802734375,0.285049438476562,-0.0202464158712184,0.0414888539901264,-0.0199087270449964
1491141408.6,40.4402567623321,-79.9422534923839,1.95000004768372,0.123291015625,-0.952484130859375,0.352401733398438,-0.01912389347175,0.0616998498188468,-0.0220094285128509
1491141408.8,40.4402567623321,-79.9422534923839,1.95000004768372,0.149261474609375,-0.903457641601562,0.353363037109375,-0.0308167685538519,0.0447751947752842,-0.0080360885893141
1491141409.0,40.4402567623321,-79.9422534923839,1.95000004768372,0.149002075195312,-0.929962158203125,0.402557373046875,0.012840431195817,0.0647611534918929,-0.0266750204265607
1491141409.2,40.4402567623321,-79.9422534923839,1.95000004768372,0.155258178710938,-0.895843505859375,0.421554565429688,-0.00829867627279591,0.0840770608782376,-0.00929895957822968
1491141409.4,40.4402355697481,-79.9422596905274,2.80999994277954,0.145217895507812,-0.943710327148438,0.459854125976562,-0.0372206057110564,0.100008090519092,-0.0376871915340383
1491141409.6,40.4402355697481,-79.9422596905274,2.80999994277954,0.248382568359375,-0.95391845703125,0.44073486328125,-0.0286545480648166,0.112746788961268,-0.0388334160672084
1491141409.8,40.4402355697481,-79.9422596905274,2.80999994277954,0.271530151367188,-0.90875244140625,0.37139892578125,-0.027660123713781,0.143486059527398,-0.0654357321960099
1491141410.0,40.4402355697481,-79.9422596905274,2.80999994277954,0.27606201171875,-1.01593017578125,0.400314331054688,0.0105897937585911,0.0944167838104702,-0.0596369652384714
1491141410.2,40.4402355697481,-79.9422596905274,2.80999994277954,0.245559692382812,-0.852081298828125,0.382492065429688,0.0323523472383916,0.20189876961276,-0.0500695590223617
1491141410.4,40.4402355697481,-79.9422596905274,2.80999994277954,0.396286010742188,-0.973892211914062,0.40313720703125,-0.0388438023954597,0.288319678566377,-0.0596287094390922
1491141410.6,40.4402034858379,-79.9422690740306,4.36999988555908,0.185256958007812,-1.01776123046875,0.4339599609375,-0.0187502519708119,0.461215292327629,-0.173593361966853
1491141410.8,40.4402034858379,-79.9422690740306,4.36999988555908,0.26129150390625,-0.833465576171875,0.35650634765625,-0.0631206462604041,0.372769581997225,-0.225485588439265
1491141411.0,40.4402034858379,-79.9422690740306,4.36999988555908,0.351837158203125,-0.887832641601562,0.418502807617188,-0.0698137027119912,0.315997645459461,-0.0815654336541839
1491141411.2,40.4402034858379,-79.9422690740306,4.36999988555908,0.367950439453125,-0.922470092773438,0.288925170898438,-0.143440253156649,0.403277956496846,-0.135880870402459
1491141411.4,40.4402034858379,-79.9422690740306,4.36999988555908,0.293960571289062,-0.929489135742188,0.322677612304688,-0.112711901550988,0.398790530060062,-0.161876252118831
1491141411.6,40.4402034858379,-79.9422690740306,4.36999988555908,0.344131469726562,-0.920120239257812,0.37420654296875,-0.0389407414591386,0.317983032052115,-0.0894188293927185
1491141411.8,40.4402034858379,-79.9422690740306,4.36999988555908,0.415145874023438,-0.876785278320312,0.297882080078125,-0.0880172077110098,0.420064926112051,-0.147212088208528
1491141412.0,40.4402034858379,-79.9422690740306,4.36999988555908,0.331008911132812,-0.978485107421875,0.343643188476562,-0.115681059850317,0.419137879736595,-0.138330712289223
1491141412.2,40.4401649475868,-79.9422803452192,5.42999982833862,0.3907470703125,-0.903762817382812,0.303054809570312,-0.0239000065706981,0.381722863265963,-0.105460113902702
1491141412.4,40.4401649475868,-79.9422803452192,5.42999982833862,0.410919189453125,-0.9525146484375,0.335464477539062,-0.0494967130718857,0.321279492849415,-0.0754135315361008
1491141412.6,40.4401649475868,-79.9422803452192,5.42999982833862,0.338348388671875,-0.824386596679688,0.313201904296875,-0.0569298619904059,0.440252486123179,-0.132631813872562
1491141412.8,40.4401649475868,-79.9422803452192,5.42999982833862,0.218948364257812,-0.916412353515625,0.396408081054688,-0.0248121392440502,0.319186248232613,-0.0501388012107038
1491141413.0,40.4401649475868,-79.9422803452192,5.42999982833862,0.194351196289062,-0.942703247070312,0.338699340820312,-0.0442691941681692,0.218189858632993,-0.0373260668902236
1491141413.2,40.4401649475868,-79.9422803452192,5.42999982833862,0.109481811523438,-0.972076416015625,0.391937255859375,-0.0145946554058522,0.0820464005470522,0.00677268496818051
1491141413.4,40.4401649475868,-79.9422803452192,5.42999982833862,0.165817260742188,-0.907485961914062,0.358795166015625,0.0174149430002462,-0.0125498803208894,0.0594683871414694
1491141413.6,40.4401649475868,-79.9422803452192,5.42999982833862,0.237380981445312,-0.915481567382812,0.414825439453125,0.0365430975297403,-0.0689375227133551,0.0793571404782902
1491141413.8,40.4401265652051,-79.9421983682847,6.57999992370605,0.0279541015625,-0.937347412109375,0.454605102539062,-0.0424638372652044,-0.00821984670452957,0.0314476714160917
1491141414.0,40.4400913494482,-79.9420799024303,7.34000015258789,0.148956298828125,-0.943008422851562,0.395172119140625,0.0886228105428938,0.0518189895424348,-0.00740784888816441
1491141414.2,40.4400913494482,-79.9420799024303,7.34000015258789,0.122970581054688,-0.972976684570312,0.34161376953125,-0.011495801161436,-0.0220951822999514,0.0459512467126632
1491141414.4,40.4400735486783,-79.9420363138157,8.72999954223633,0.0643463134765625,-0.936965942382812,0.249435424804688,0.0203034075185461,-0.131705300129324,0.0751541396459271
1491141414.6,40.4400735486783,-79.9420363138157,8.72999954223633,0.0983428955078125,-0.995941162109375,0.258682250976562,-0.0311259615564101,-0.0701212978178953,0.00556733825881065
1491141414.8,40.4400735486783,-79.9420363138157,8.72999954223633,0.0323944091796875,-0.914321899414062,0.199417114257812,0.023458454461963,-0.103077117359299,0.0538515140863833
1491141415.0,40.4400735486783,-79.9420363138157,8.72999954223633,0.0156402587890625,-0.959579467773438,0.295654296875,-0.0406145382042534,-0.0275394825164004,-0.000612527050718225
1491141415.2,40.4400735486783,-79.9420363138157,8.72999954223633,0.0566253662109375,-0.972427368164062,0.297149658203125,0.0416792700080671,-0.0117533288388467,0.020770525973746
1491141415.4,40.440021317213,-79.9419374375153,9.22000026702881,0.0612640380859375,-0.987289428710938,0.353424072265625,0.00947819031959201,0.0179358573094657,-0.0267397352410496
1491141415.6,40.440021317213,-79.9419374375153,9.22000026702881,-0.0111083984375,-0.99969482421875,0.386627197265625,0.0362195234572957,0.0168439612625332,-0.0132193990189353
1491141415.8,40.440021317213,-79.9419374375153,9.22000026702881,-0.0911102294921875,-0.934951782226562,0.456451416015625,0.0352602528326491,-0.0775810783473163,0.0516269756278401
1491141416.0,40.440021317213,-79.9419374375153,9.22000026702881,-0.0422515869140625,-0.897918701171875,0.35028076171875,0.0243764460897133,-0.251842893747779,0.108951518091796
1491141416.2,40.440021317213,-79.9419374375153,9.22000026702881,-0.0758819580078125,-0.898635864257812,0.480087280273438,-0.0289083473167011,-0.0191001913380483,-0.00820706353129719
1491141416.4,40.439971077467,-79.9418512355539,9.71000003814697,0.0201568603515625,-0.952362060546875,0.497909545898438,-0.0150284843474261,-0.0233812227903507,-0.00306156998915509
1491141416.6,40.439971077467,-79.9418512355539,9.71000003814697,-0.0523834228515625,-0.877273559570312,0.402023315429688,-0.010686200190052,-0.117845144552115,0.0574515752479524
1491141416.8,40.439971077467,-79.9418512355539,9.71000003814697,-0.0112152099609375,-0.981689453125,0.413925170898438,-0.113056514596044,-0.0272505295381268,0.00777536511859534
1491141417.0,40.439971077467,-79.9418512355539,9.71000003814697,0.11761474609375,-0.881088256835938,0.394134521484375,0.0639273177545891,-0.0618362036666588,0.0257042982092268
1491141417.2,40.439971077467,-79.9418512355539,9.71000003814697,0.0591583251953125,-0.915756225585938,0.40093994140625,-0.0220581643607993,-0.0411018966837379,0.0705695078293557
1491141417.4,40.4399112877374,-79.9417508662858,11.0299997329712,0.0272674560546875,-0.90234375,0.405364990234375,-0.00637800449463077,-0.0827883572267482,0.0457467159409451
1491141417.6,40.4399112877374,-79.9417508662858,11.0299997329712,-0.0382537841796875,-0.976394653320312,0.427413940429688,-0.0043793020965263,-6.60463950339651e-05,-0.017006946721246
1491141417.8,40.4399112877374,-79.9417508662858,11.0299997329712,-0.134185791015625,-0.949676513671875,0.424392700195312,-0.0419205524028283,-0.0776111720676342,-0.0103085639474787
1491141418.0,40.4399112877374,-79.9417508662858,11.0299997329712,-0.05792236328125,-0.870452880859375,0.344039916992188,0.0211779896205281,0.0614114294727912,-0.0534491104456723
1491141418.2,40.4399112877374,-79.9417508662858,11.0299997329712,0.104583740234375,-0.998016357421875,0.411651611328125,0.0330647428299878,-0.0383300786211834,0.0218855915221622
1491141418.4,40.4398476931605,-79.9416475328389,11.7200002670288,0.100616455078125,-0.858688354492188,0.308609008789062,-0.106840962927908,0.0501143001286751,-0.0593099290566097
1491141418.6,40.4398476931605,-79.9416475328389,11.7200002670288,-0.0157470703125,-0.996170043945312,0.2657470703125,-0.00558784459920426,-0.19023225982545,0.0604196682828457
1491141418.8,40.4398476931605,-79.9416475328389,11.7200002670288,0.0376129150390625,-0.956634521484375,0.254074096679688,0.102450209238694,-0.198846254371311,0.117676832771222
1491141419.0,40.4398476931605,-79.9416475328389,11.7200002670288,0.25555419921875,-1.15562438964844,0.288528442382812,0.0266276161591573,-0.24858105404465,0.124926489890636
1491141419.2,40.4398476931605,-79.9416475328389,11.7200002670288,0.528106689453125,-0.716522216796875,0.106369018554688,-0.209585984099274,0.191413638085009,-0.19097847756289
1491141419.4,40.439773028776,-79.941545138793,11.9700002670288,0.356231689453125,-1.21980285644531,0.1943359375,-0.129959598034777,0.439373909279562,-0.369513334932385
1491141419.6,40.439773028776,-79.941545138793,11.9700002670288,-0.028411865234375,-0.822463989257812,0.348556518554688,-0.0802628815650261,0.0945667197798417,-0.093671365021357
1491141419.8,40.439773028776,-79.941545138793,11.9700002670288,-0.0113525390625,-0.964981079101562,0.261886596679688,-0.00974530537692696,-0.169967201826601,0.0658511853260623
1491141420.0,40.439773028776,-79.941545138793,11.9700002670288,0.194198608398438,-0.979080200195312,0.330337524414062,0.0767067625614433,-0.139404765156852,0.0637542122837339
1491141420.2,40.439773028776,-79.941545138793,11.9700002670288,0.11260986328125,-1.00653076171875,0.267257690429688,-0.0167813769769163,-0.00930295431986479,0.0460479194602331
1491141420.4,40.4396837674515,-79.941443002193,12.4200000762939,-0.0030364990234375,-0.941268920898438,0.2799072265625,0.02258680183718,-0.0148037135514235,0.037002759133888
1491141420.6,40.4396837674515,-79.941443002193,12.4200000762939,-0.139907836914062,-0.87200927734375,0.3741455078125,-0.147301037788937,0.0216216722581353,-0.036465599542019
1491141420.8,40.4396837674515,-79.941443002193,12.4200000762939,-0.1302490234375,-0.989364624023438,0.303726196289062,0.0478868321929328,-0.227462452916431,0.104442520050183
1491141421.0,40.4396837674515,-79.941443002193,12.4200000762939,0.0957489013671875,-1.00431823730469,0.282577514648438,0.0125866319439325,-0.0957555548904531,0.0188152331014098
1491141421.2,40.4396837674515,-79.941443002193,12.4200000762939,0.0394439697265625,-0.919418334960938,0.325546264648438,-0.0221718813393457,-0.0879029581002454,0.0779283545534626
1491141421.4,40.4395934525057,-79.9413583227464,12.6899995803833,-0.0960845947265625,-0.947738647460938,0.348724365234375,-0.0114755611371514,-0.090038813294489,0.0841857178507128
1491141421.6,40.4395934525057,-79.9413583227464,12.6899995803833,-0.05804443359375,-0.937530517578125,0.299026489257812,-0.0406800519670694,0.0807222768530648,-0.066480490291648
1491141421.8,40.4395934525057,-79.9413583227464,12.6899995803833,-0.154006958007812,-1.00648498535156,0.315597534179688,-0.0854560456906806,0.184938428210591,-0.120057965101862
1491141422.0,40.4395934525057,-79.9413583227464,12.6899995803833,-0.0469512939453125,-0.928665161132812,0.34906005859375,-0.0223351331141675,0.158329454179064,-0.0740007245778138
1491141422.2,40.4395934525057,-79.9413583227464,12.6899995803833,-0.123489379882812,-1.00001525878906,0.300811767578125,-0.0542512545660042,0.0809731466277502,-0.0236507346926667
1491141422.4,40.4394911944522,-79.9412765803022,12.8699998855591,0.0245513916015625,-1.02505493164062,0.202850341796875,-0.0471027975680135,0.0998392461059806,-0.0802181404587128
1491141422.6,40.4394911944522,-79.9412765803022,12.8699998855591,-0.001556396484375,-0.98077392578125,0.225265502929688,0.0627347542184516,-0.0098912466046633,-0.0200168513852536
1491141422.8,40.4394911944522,-79.9412765803022,12.8699998855591,0.02154541015625,-0.90606689453125,0.284744262695312,-0.00205942247095827,-0.136918970595372,0.0818253581765756
1491141423.0,40.4394911944522,-79.9412765803022,12.8699998855591,0.0876922607421875,-0.971786499023438,0.221633911132812,-0.00111266870343511,-0.113646138461387,0.0520072750315034
1491141423.2,40.4394911944522,-79.9412765803022,12.8699998855591,0.120925903320312,-0.980178833007812,0.206497192382812,-0.038415566092175,-0.0965196158071968,0.0450566909025056
1491141423.4,40.4394911944522,-79.9412765803022,12.8699998855591,0.086578369140625,-0.95147705078125,0.231857299804688,-0.00114196347542598,-0.0319049361752583,0.0052733252744659
1491141423.6,40.4393901581744,-79.9411978467359,12.789999961853,0.100540161132812,-0.928070068359375,0.221694946289062,-0.0630221093000711,-0.0741964669179346,0.0208938303322167
1491141423.8,40.4393901581744,-79.9411978467359,12.789999961853,0.0877227783203125,-0.879043579101562,0.276718139648438,0.0930274126697759,-0.0903839589717632,0.0871199887397621
1491141424.0,40.4393901581744,-79.9411978467359,12.789999961853,0.149490356445312,-0.969024658203125,0.259475708007812,-0.156414108723079,-0.0374690786407608,0.0658900674779775
1491141424.2,40.4392805882175,-79.9411553610861,12.5799999237061,0.0396881103515625,-0.969940185546875,0.251434326171875,-0.0169840435358713,-0.048733717419578,0.0363622688917239
1491141424.4,40.4392805882175,-79.9411553610861,12.5799999237061,-0.0266876220703125,-0.92767333984375,0.280731201171875,0.00129829103141363,-0.154869208974724,0.114800086161719
1491141424.6,40.4392805882175,-79.9411553610861,12.5799999237061,0.107879638671875,-0.922653198242188,0.302017211914062,-0.0434976764003732,-0.181273652234533,0.125973911147364
1491141424.8,40.4392805882175,-79.9411553610861,12.5799999237061,0.25396728515625,-0.980377197265625,0.203231811523438,-0.0189696964446344,-0.142065263085841,0.106556271007378
1491141425.0,40.4392805882175,-79.9411553610861,12.5799999237061,0.0546875,-0.924331665039062,0.226364135742188,-0.00218379209386498,-0.0393170461211668,0.0127344373844319
1491141425.2,40.4391804244746,-79.9410801754146,12.6800003051758,-0.0255889892578125,-0.922134399414062,0.152267456054688,-5.85895439817432e-05,-0.065875420091982,0.025443308422399
1491141425.4,40.4391804244746,-79.9410801754146,12.6800003051758,-0.00518798828125,-0.977615356445312,0.233200073242188,0.0385607083715843,-0.0934479258058994,0.0750095299987358
1491141425.6,40.4391804244746,-79.9410801754146,12.6800003051758,0.10198974609375,-0.876632690429688,0.245834350585938,-0.0746779664430209,0.00340884619530142,-0.00863902826010804
1491141425.8,40.4391804244746,-79.9410801754146,12.6800003051758,0.0691375732421875,-0.954421997070312,0.242935180664062,-0.00313347533858723,-0.0572827308348414,0.0393655156530063
1491141426.0,40.4391804244746,-79.9410801754146,12.6800003051758,-0.05828857421875,-0.92926025390625,0.29083251953125,-0.0222001108469005,-0.112345184268884,0.0864038647226398
1491141426.2,40.4390800930936,-79.9410057441145,12.8199996948242,-0.042083740234375,-0.957931518554688,0.276580810546875,0.0116755645350164,-0.12112695796342,0.0550265007593262
1491141426.4,40.4390800930936,-79.9410057441145,12.8199996948242,0.0502777099609375,-0.93341064453125,0.19354248046875,0.028805016666406,-0.0308790865233598,0.0187577088218641
1491141426.6,40.4390800930936,-79.9410057441145,12.8199996948242,0.171981811523438,-1.04277038574219,0.18023681640625,0.00740971310092746,0.0381630984208355,-0.0277333606437582
1491141426.8,40.4390800930936,-79.9410057441145,12.8199996948242,0.22564697265625,-0.749862670898438,0.136337280273438,-0.148093328213235,0.112074607102132,-0.0426462637998749
1491141427.0,40.4390800930936,-79.9410057441145,12.8199996948242,0.178115844726562,-0.99853515625,0.193634033203125,-0.00406371750735191,0.0511244371301421,0.00336836614673222
1491141427.2,40.4389811866362,-79.9409272895008,12.8299999237061,0.3681640625,-0.941436767578125,0.178314208984375,-0.0629912166314262,0.172172565525296,-0.102244346886431
1491141427.4,40.4389811866362,-79.9409272895008,12.8299999237061,0.489776611328125,-0.859512329101562,0.138641357421875,-0.0450215371761165,0.296236723854964,-0.189633847528509
1491141427.6,40.4389811866362,-79.9409272895008,12.8299999237061,0.413482666015625,-1.05291748046875,0.1976318359375,0.00350631789119832,0.249738463854399,-0.0837175341310769
1491141427.8,40.4389811866362,-79.9409272895008,12.8299999237061,0.353607177734375,-0.854507446289062,0.204544067382812,-0.112572884542085,0.159973956152188,-0.0173947029759616
1491141428.0,40.4389811866362,-79.9409272895008,12.8299999237061,0.478073120117188,-0.960952758789062,0.132003784179688,-0.0112641061465991,0.248837516457625,-0.0600705278639363
1491141428.2,40.438890913539,-79.9408343341946,12.6800003051758,0.365707397460938,-0.973114013671875,0.18365478515625,-0.0174362482889668,0.230966373962648,-0.017376593480549
1491141428.4,40.438890913539,-79.9408343341946,12.6800003051758,0.298843383789062,-0.930999755859375,0.188690185546875,-0.0100260025558213,0.18736803007307,-0.00264132316914059
1491141428.6,40.438890913539,-79.9408343341946,12.6800003051758,0.239791870117188,-0.935867309570312,0.274612426757812,-0.0666866189600201,0.121619376448976,0.00859322188935868
1491141428.8,40.438890913539,-79.9408343341946,12.6800003051758,0.256027221679688,-0.987136840820312,0.1544189453125,-0.0026048378622065,0.116169483594237,0.0280265746797759
1491141429.0,40.438890913539,-79.9408343341946,12.6800003051758,0.271240234375,-1.0003662109375,0.196746826171875,-0.0722446361550155,0.197930393272433,-0.0647430439964803
1491141429.2,40.4388157278676,-79.9407232739776,12.6000003814697,0.212677001953125,-0.848281860351562,0.209091186523438,-0.0560840420281967,0.145963598289499,-0.0128140659010253
1491141429.4,40.4388157278676,-79.9407232739776,12.6000003814697,0.192947387695312,-1.03465270996094,0.197113037109375,-0.0168346401987179,0.110647685390067,-0.0240589972877758
1491141429.6,40.4388157278676,-79.9407232739776,12.6000003814697,0.132797241210938,-1.01396179199219,0.181259155273438,0.0503521204140191,0.0785749700661339,-0.00472631198656362
1491141429.8,40.4388157278676,-79.9407232739776,12.6000003814697,0.144332885742188,-0.895721435546875,0.173980712890625,-0.10647797407133,0.0779776230336291,-0.0197934121697959
1491141430.0,40.4388157278676,-79.9407232739776,12.6000003814697,0.262786865234375,-1.00883483886719,0.147384643554688,-0.0390464689544148,0.162879731217573,-0.0247226570314236
1491141430.2,40.438753450327,-79.9405998085439,12.5500001907349,0.231704711914062,-0.917434692382812,0.189727783203125,-0.0253860504589623,0.100042977929372,-0.0218416493641759
1491141430.4,40.438753450327,-79.9405998085439,12.5500001907349,0.233657836914062,-0.966033935546875,0.179290771484375,-0.067991035261941,0.170300096962861,-0.0520637340466131
1491141430.6,40.438753450327,-79.9405998085439,12.5500001907349,-0.0599365234375,-1.20462036132812,0.144332885742188,0.129795280995519,-0.000948884296395233,0.117783092898716
1491141430.8,40.438753450327,-79.9405998085439,12.5500001907349,0.689315795898438,-0.97467041015625,-0.227081298828125,0.162030449145947,0.470575238294821,-0.0894944631676768
1491141431.0,40.438753450327,-79.9405998085439,12.5500001907349,0.140167236328125,-0.94366455078125,0.22808837890625,-0.0599482887699017,0.0520640003627221,-0.0631017378166645
1491141431.2,40.4387030331795,-79.9404728227108,12.1700000762939,0.321380615234375,-0.916061401367188,0.1300048828125,-0.0521316446544101,0.124492394632953,-0.0481052114023193
1491141431.4,40.4387030331795,-79.9404728227108,12.1700000762939,0.269027709960938,-0.940536499023438,0.16741943359375,-0.00511779666680527,0.146702359175887,-0.0443871722044597
1491141431.6,40.4387030331795,-79.9404728227108,12.1700000762939,0.308578491210938,-0.912338256835938,0.147903442382812,-0.0478346342355672,0.213695241661266,-0.0895450632283883
1491141431.8,40.4387030331795,-79.9404728227108,12.1700000762939,0.347610473632812,-0.898300170898438,0.1988525390625,-0.0722630119665371,0.194731936803248,-0.0658165642318913
1491141432.0,40.4387030331795,-79.9404728227108,12.1700000762939,0.386581420898438,-0.975967407226562,0.220993041992188,0.00892398649674652,0.229606297593945,-0.0603717313832243
1491141432.2,40.438667410091,-79.9403396342694,11.8900003433228,0.368255615234375,-0.90008544921875,0.174301147460938,-0.0595115303511287,0.209523932445875,-0.0798082799669496
1491141432.4,40.438667410091,-79.9403396342694,11.8900003433228,0.388809204101562,-0.939437866210938,0.21490478515625,-0.0114984643225261,0.214693660753937,-0.0772085021108142
1491141432.6,40.438667410091,-79.9403396342694,11.8900003433228,0.337539672851562,-0.983993530273438,0.25982666015625,0.0781821538053472,0.200668921821362,-0.0517223167948649
1491141432.8,40.438667410091,-79.9403396342694,11.8900003433228,0.38250732421875,-0.980056762695312,0.287643432617188,-0.00913437622286278,0.287054677048589,-0.0802716699966234
1491141433.0,40.438667410091,-79.9403396342694,11.8900003433228,0.371124267578125,-0.916900634765625,0.34613037109375,-0.0228342095024484,0.264916351538978,-0.0449565560455186
1491141433.2,40.4386536637698,-79.9401998241245,12.0500001907349,0.253829956054688,-0.980758666992188,0.202133178710938,0.0143722814548306,0.138352283894052,0.00440034106913792
1491141433.4,40.4386536637698,-79.9401998241245,12.0500001907349,0.1270751953125,-0.933319091796875,0.26129150390625,-0.0506890102919142,0.0886510400504487,0.0264427927795058
1491141433.6,40.4386536637698,-79.9401998241245,12.0500001907349,0.121810913085938,-0.933929443359375,0.263763427734375,-0.0328341130795869,0.0714094688371667,-0.00475001412026533
1491141433.8,40.4386536637698,-79.9401998241245,12.0500001907349,0.154861450195312,-0.949478149414062,0.250701904296875,0.0234126480912136,0.105011637575132,-0.0608423119478413
1491141434.0,40.4386536637698,-79.9401998241245,12.0500001907349,0.102310180664062,-0.957778930664062,0.301055908203125,-0.0285903658825457,0.0798748589942015,-0.0122494757499285
1491141434.2,40.4386524483938,-79.9400563259422,12.4200000762939,-0.0099639892578125,-0.982284545898438,0.285720825195312,0.0105506452905669,-0.0171041521010339,-0.00763847863856527
1491141434.4,40.4386524483938,-79.9400563259422,12.4200000762939,-0.04559326171875,-0.982070922851562,0.279739379882812,-0.00882172111088748,-0.102113319360799,0.00947552715850193
1491141434.6,40.4386524483938,-79.9400563259422,12.4200000762939,-0.0797119140625,-0.910140991210938,0.27520751953125,-0.0300436528894019,-0.141256993695002,0.0448473664408254
1491141434.8,40.4386524483938,-79.9400563259422,12.4200000762939,-0.09686279296875,-0.9805908203125,0.294235229492188,0.0115104485474315,-0.147789195216748,0.0443032826301222
1491141435.0,40.4386524483938,-79.9400563259422,12.4200000762939,-0.064056396484375,-0.978866577148438,0.286209106445312,-0.0557804416639277,-0.143397642579208,0.0238419496589344
1491141435.2,40.4386524483938,-79.9399099779128,12.6899995803833,0.0193634033203125,-0.874832153320312,0.276962280273438,-0.0683769273038934,-0.0688858573882076,0.0145757469621127
1491141435.4,40.4386524483938,-79.9399099779128,12.6899995803833,-0.0718841552734375,-1.105712890625,0.339630126953125,0.0831316386912594,-0.141530766655062,0.068999574366754
1491141435.6,40.4386524483938,-79.9399099779128,12.6899995803833,-0.0751800537109375,-0.927536010742188,0.301284790039062,-0.00409620807265088,-0.121978636880027,0.0882840564522357
1491141435.8,40.4386524483938,-79.9399099779128,12.6899995803833,-0.0475921630859375,-1.06692504882812,0.309234619140625,0.051222707774366,-0.0755333737851544,0.0460963889920725
1491141436.0,40.4386524483938,-79.9399099779128,12.6899995803833,0.0528106689453125,-0.964324951171875,0.254241943359375,0.0117477362005575,-0.00427357460125015,0.0051726577852609
1491141436.2,40.4386459943284,-79.9397578463703,13.039999961853,0.282608032226562,-0.987472534179688,0.246780395507812,-0.0299011737710827,0.22093131665912,-0.121749072394062
1491141436.4,40.4386459943284,-79.9397578463703,13.039999961853,0.0467681884765625,-0.9296875,0.271224975585938,-0.128001375685241,0.214887538881295,-0.120513898280484
1491141436.6,40.4386459943284,-79.9397578463703,13.039999961853,0.131988525390625,-0.874099731445312,0.251663208007812,-0.111875136336485,0.0896294854349438,-0.035694081774223
1491141436.8,40.4386459943284,-79.9397578463703,13.039999961853,0.176010131835938,-1.00068664550781,0.233474731445312,0.00866539355489982,0.145538824095631,-0.0552294336343903
1491141437.0,40.4386459943284,-79.9397578463703,13.039999961853,-0.05987548828125,-0.848648071289062,0.240829467773438,-0.0545846823344821,-0.0265075075939947,-0.0174948378329485
1491141437.2,40.4386302782599,-79.9396022782474,13.3199996948242,-0.0789794921875,-0.942794799804688,0.268402099609375,-0.0813087049251002,-0.14539155128735,0.0337600941906075
1491141437.4,40.4386302782599,-79.9396022782474,13.3199996948242,-0.0585479736328125,-0.925094604492188,0.404205322265625,-0.159239190007435,-0.030516363982891,-0.0406989604108089
1491141437.6,40.4386302782599,-79.9396022782474,13.3199996948242,0.0854949951171875,-0.930435180664062,0.242355346679688,-0.0332450388357862,0.0626255646137583,-0.0612846630049034
1491141437.8,40.4386302782599,-79.9396022782474,13.3199996948242,0.1417236328125,-1.09597778320312,0.248550415039062,0.0850363315028841,0.108896390657231,-0.094676708332862
1491141438.0,40.4386302782599,-79.9396022782474,13.3199996948242,-0.0263519287109375,-1.07431030273438,0.342727661132812,-0.0755102042836707,-0.110039952029311,0.0849551050896367
1491141438.2,40.4386040848125,-79.9394473806768,13.6000003814697,0.0606536865234375,-0.969268798828125,0.327804565429688,-0.0503539846267822,0.0499065735636489,-0.0621624409001935
1491141438.4,40.4386040848125,-79.9394473806768,13.6000003814697,0.0693817138671875,-0.872573852539062,0.31591796875,-0.0866233091964623,-0.020064521968766,-0.028802619821425
1491141438.6,40.4386040848125,-79.9394473806768,13.6000003814697,0.0872344970703125,-0.931854248046875,0.256820678710938,0.0104766094122627,-0.00547599183342093,-0.0246733885512571
1491141438.8,40.4386040848125,-79.9394473806768,13.6000003814697,0.237442016601562,-1.02583312988281,0.290130615234375,0.0181971134124024,-0.0403612715845869,0.0316679148382412
1491141439.0,40.4386040848125,-79.9394473806768,13.6000003814697,0.136138916015625,-0.9019775390625,0.332351684570312,-0.060597034811445,-0.031524104139377,0.0422891338976952
1491141439.2,40.4385697190095,-79.9392885436117,13.960000038147,0.1749267578125,-0.91375732421875,0.270187377929688,0.0205127319802263,0.0181616933699044,0.0285735879676782
1491141439.4,40.4385697190095,-79.9392885436117,13.960000038147,0.129776000976562,-0.924346923828125,0.280197143554688,-0.0990616030676774,0.111898039521859,-0.0443373710920752
1491141439.6,40.4385697190095,-79.9392885436117,13.960000038147,-0.0381927490234375,-0.992843627929688,0.423583984375,-0.0107506486884319,-0.0297576293883274,0.0022013689570595
1491141439.8,40.4385697190095,-79.9392885436117,13.960000038147,-0.0945587158203125,-0.913223266601562,0.24359130859375,-0.0929595020619789,0.0872462225754319,-0.0753975525695603
1491141440.0,40.4385697190095,-79.9392885436117,13.960000038147,0.041412353515625,-1.03817749023438,0.280746459960938,0.0661169688028522,-0.0618031804691419,0.0342077715698498
1491141440.2,40.4385323357214,-79.939125515595,14.4300003051758,0.0321044921875,-0.984329223632812,0.32147216796875,0.0189539837942029,-0.0119128521881424,-0.0290617453954897
1491141440.4,40.4385323357214,-79.939125515595,14.4300003051758,-0.0070648193359375,-0.881851196289062,0.267791748046875,-0.0480370344784133,0.033039709115741,-0.0259727448471068
1491141440.6,40.4385323357214,-79.939125515595,14.4300003051758,0.04144287109375,-0.986297607421875,0.221923828125,-0.0244374324786761,-0.119844645898547,0.0746846243457461
1491141440.8,40.4385323357214,-79.939125515595,14.4300003051758,-0.07183837890625,-0.977920532226562,0.336456298828125,0.035289813920749,-0.0998589534980471,0.0675715873902535
1491141441.0,40.4385323357214,-79.939125515595,14.4300003051758,0.059967041015625,-0.907180786132812,0.257339477539062,0.0521100730495805,-0.00982866231904644,-0.0145493816673209
1491141441.2,40.4384910967578,-79.9389601406454,14.8400001525879,0.0977325439453125,-0.88067626953125,0.289642333984375,0.0608641498687799,-0.103141832173788,0.0672384259378846
1491141441.4,40.4384910967578,-79.9389601406454,14.8400001525879,0.128768920898438,-1.03050231933594,0.23480224609375,-0.0830959523326524,-0.147265085114221,0.0860326200666828
1491141441.6,40.4384910967578,-79.9389601406454,14.8400001525879,0.0963134765625,-0.855133056640625,0.333175659179688,-0.0788663198893885,0.0926718806642503,-0.0435722449108954
1491141441.8,40.4384910967578,-79.9389601406454,14.8400001525879,-0.0702667236328125,-1.05329895019531,0.3619384765625,0.0137917123371934,-0.162557488725674,0.0740997941703647
1491141442.0,40.4384910967578,-79.9389601406454,14.8400001525879,-0.0687103271484375,-0.779464721679688,0.260787963867188,0.0543950652648684,0.148485878157913,-0.0739338792344528
1491141442.2,40.4384446191047,-79.938792586401,15.1999998092651,-0.0620574951171875,-0.898086547851562,0.3294677734375,-0.068428059996823,0.0967254781594599,-0.0788873588620002
1491141442.4,40.4384446191047,-79.938792586401,15.1999998092651,0.0806884765625,-1.05401611328125,0.23638916015625,0.0415146866527002,0.109180816261652,-0.0663952691367655
1491141442.6,40.4384446191047,-79.938792586401,15.1999998092651,0.0432281494140625,-0.932235717773438,0.19696044921875,0.0308647054534733,-0.00651515729076985,-0.00467358139698006
1491141442.8,40.4384446191047,-79.938792586401,15.1999998092651,0.0349578857421875,-0.946640014648438,0.2750244140625,-0.0970091048155534,-0.035761459749802,0.0203484149409684
1491141443.0,40.4384446191047,-79.938792586401,15.1999998092651,-0.00482177734375,-1.00344848632812,0.289642333984375,0.0137994355043546,-0.100965230614866,0.0433152498657028
1491141443.2,40.4383936990429,-79.9386237748712,15.5200004577637,-0.0429229736328125,-0.97003173828125,0.259368896484375,0.00309858792830719,-0.0489259976502817,0.0105122957708698
1491141443.4,40.4383936990429,-79.9386237748712,15.5200004577637,0.0295867919921875,-0.967147827148438,0.3114013671875,0.0457927886278035,-0.0384203597821371,0.0121256387592398
1491141443.6,40.4383936990429,-79.9386237748712,15.5200004577637,0.116973876953125,-1.04783630371094,0.299652099609375,0.00651382571022481,-0.124175212147125,0.0817454633438732
1491141443.8,40.4383936990429,-79.9386237748712,15.5200004577637,0.167465209960938,-0.943496704101562,0.264739990234375,-0.0137427101731359,0.00862491350633062,0.0129916987457335
1491141444.0,40.4383936990429,-79.9386237748712,15.5200004577637,0.148391723632812,-1.01277160644531,0.267227172851562,0.0578212220072554,-0.0117029950942442,0.0429597178601772
1491141444.2,40.4383393424008,-79.9384522811323,15.7799997329712,0.13555908203125,-0.893966674804688,0.26239013671875,-0.108567490262606,-0.0982506705157483,0.0779382082494959
1491141444.4,40.4383393424008,-79.9384522811323,15.7799997329712,-0.0356597900390625,-1.00169372558594,0.312820434570312,-0.0360900938283178,0.0979260311788676,-0.0270422703408826
1491141444.6,40.4383393424008,-79.9384522811323,15.7799997329712,-0.0711822509765625,-0.831253051757812,0.350677490234375,0.0776095741709801,0.0781541906139014,-0.0733245479770427
1491141444.8,40.4383393424008,-79.9384522811323,15.7799997329712,0.0740509033203125,-0.953155517578125,0.267166137695312,-0.0499214872657533,0.0300359297222407,0.012435098077907
1491141445.0,40.4383393424008,-79.9384522811323,15.7799997329712,0.0249481201171875,-0.99993896484375,0.25579833984375,-0.062883092291169,0.0596934242535811,-0.0278553334216838
1491141445.2,40.4382835189257,-79.9382794462889,15.9300003051758,-0.115081787109375,-0.939071655273438,0.336761474609375,0.0417301363848876,0.135878473557478,-0.0482077431042873
1491141445.4,40.4382835189257,-79.9382794462889,15.9300003051758,-0.0943603515625,-1.03065490722656,0.28558349609375,-0.140859383744253,0.0672903575791411,-0.053505303144673
1491141445.6,40.4382835189257,-79.9382794462889,15.9300003051758,-0.0477294921875,-1.01498413085938,0.295166015625,-0.0288907704535066,0.0637358364722124,-0.0485406382405473
1491141445.8,40.4382835189257,-79.9382794462889,15.9300003051758,-0.112503051757812,-0.831924438476562,0.297225952148438,0.00220216790538652,0.071185230673382,-0.0265248181410802
1491141446.0,40.4382835189257,-79.9382794462889,15.9300003051758,-0.07501220703125,-1.07353210449219,0.241409301757812,-0.152825499154197,0.0215036942218448,-0.0651885908468506
1491141446.2,40.438226186708,-79.9381056894361,16.0599994659424,0.0160369873046875,-1.02284240722656,0.26702880859375,0.111978733302889,-0.0375263366041975,0.0240819004731505
1491141446.4,40.438226186708,-79.9381056894361,16.0599994659424,0.0858306884765625,-0.799652099609375,0.295272827148438,-0.0319576667648419,0.0213657424773787,-0.00700890735687054
1491141446.6,40.438226186708,-79.9381056894361,16.0599994659424,0.0374755859375,-0.970458984375,0.24114990234375,-0.00855966605962368,0.00956447673891058,-0.00946673872690467
1491141446.8,40.438226186708,-79.9381056894361,16.0599994659424,0.0087127685546875,-0.919723510742188,0.25469970703125,0.0756095401923306,0.0134822530185261,-0.0201271062543829
1491141447.0,40.438226186708,-79.9381056894361,16.0599994659424,-0.152053833007812,-0.865219116210938,0.36883544921875,-0.0980637166072247,-0.202458832390004,0.108491057539321
1491141447.2,40.438226186708,-79.9381056894361,16.0599994659424,-0.016510009765625,-1.06918334960938,0.272979736328125,-0.0224328711261735,0.0669422824246678,-0.0411506325316864
1491141447.4,40.438165250272,-79.9379321840405,16.1200008392334,0.0251922607421875,-1.01675415039062,0.2557373046875,-0.0232310205048702,-0.147357496804046,0.109797604370114
1491141447.6,40.438165250272,-79.9379321840405,16.1200008392334,-0.0725555419921875,-0.972793579101562,0.277084350585938,0.0010956244724586,0.0350578525898031,-0.0137967723432645
1491141447.8,40.438165250272,-79.9379321840405,16.1200008392334,-0.105133056640625,-0.840438842773438,0.273529052734375,0.0342357347612956,0.0817281527967877,-0.0247756539371162
1491141448.0,40.438165250272,-79.9379321840405,16.1200008392334,-0.12481689453125,-1.00654602050781,0.3138427734375,-0.0352645138903932,0.0149294147548752,-0.0197784984676915
1491141448.2,40.438165250272,-79.9379321840405,16.1200008392334,-0.029327392578125,-0.890274047851562,0.26593017578125,0.0457381938254569,-0.0150982591679862,-0.00808189496006346
1491141448.4,40.4381011706222,-79.937761863768,16.0599994659424,0.05889892578125,-0.932968139648438,0.288040161132812,-0.0579277484508586,-0.0924324624822522,-0.00480673945148402
1491141448.6,40.4381011706222,-79.937761863768,16.0599994659424,0.0615081787109375,-0.956634521484375,0.272811889648438,-0.00869601990743574,-0.0457472485731631,-0.00106073706217856
1491141448.8,40.4381011706222,-79.937761863768,16.0599994659424,0.111190795898438,-0.981353759765625,0.25537109375,-0.0982040651966719,0.0544081147542098,-0.0455467125430802
1491141449.0,40.4381011706222,-79.937761863768,16.0599994659424,0.0983123779296875,-1.03677368164062,0.300933837890625,2.05063403936101e-05,0.192207792722071,-0.0966021738009892
1491141449.2,40.4380354565014,-79.937592716962,16.0699996948242,-0.03631591796875,-0.88970947265625,0.296783447265625,-0.132089860590731,-0.0461869364691352,0.0410329208115049
1491141449.4,40.4380354565014,-79.937592716962,16.0699996948242,-0.0742645263671875,-1.01615905761719,0.31134033203125,0.027929102983879,-0.0912665305570155,0.0783491340056952
1491141449.6,40.4380354565014,-79.937592716962,16.0699996948242,0.049102783203125,-0.907913208007812,0.267196655273438,0.00746084579385699,-0.098778509043802,0.0508658441882954
1491141449.8,40.4380354565014,-79.937592716962,16.0699996948242,0.140975952148438,-0.983932495117188,0.255477905273438,-0.105591407744443,-0.00603791882342765,-0.00293506983737633
1491141450.0,40.4380354565014,-79.937592716962,16.0699996948242,0.195343017578125,-0.965560913085938,0.231582641601562,0.0971830092347355,0.0178325266591706,0.0147997188097883
1491141450.2,40.4379722150419,-79.9374217261373,16.1299991607666,0.125350952148438,-0.96954345703125,0.244140625,0.0246949601560868,-0.0339411891447329,0.0433304298839162
1491141450.4,40.4379722150419,-79.9374217261373,16.1299991607666,0.166168212890625,-0.958847045898438,0.21649169921875,-0.00308713633561985,-0.146444831498476,0.0924806656979826
1491141450.6,40.4379722150419,-79.9374217261373,16.1299991607666,0.2105712890625,-0.921188354492188,0.266876220703125,0.0544446000611439,-0.0298686832057837,0.0258984426526936
1491141450.8,40.4379722150419,-79.9374217261373,16.1299991607666,0.167312622070312,-0.902435302734375,0.21246337890625,-0.099181445316731,0.0162479458105734,-0.0125631961263398
1491141451.0,40.4379722150419,-79.9374217261373,16.1299991607666,0.384246826171875,-0.937759399414062,0.18731689453125,-0.0724912448719569,0.00874901681312831,-0.00332255977598286
1491141451.2,40.437909099311,-79.9372493103891,16.2600002288818,0.306655883789062,-0.918472290039062,0.215744018554688,-0.0522525521678997,0.0203468170443144,-0.0120848923945616
1491141451.4,40.437909099311,-79.9372493103891,16.2600002288818,0.192413330078125,-0.925247192382812,0.285598754882812,0.0181656881115395,0.0243889629468367,-0.00657374683475159
1491141451.6,40.437909099311,-79.9372493103891,16.2600002288818,0.208419799804688,-0.914413452148438,0.298553466796875,-0.163431538195438,0.0842280621120451,-0.0894369388881311
1491141451.8,40.437909099311,-79.9372493103891,16.2600002288818,0.138046264648438,-1.00668334960938,0.315643310546875,0.144273289945626,0.0761988977415652,0.0111349428337303
1491141452.0,40.437909099311,-79.9372493103891,16.2600002288818,0.037322998046875,-0.821502685546875,0.219284057617188,-0.117343671318853,0.0194693054651333,-0.0197894174281608
1491141452.2,40.4378484143321,-79.9370730389654,16.3700008392334,0.108810424804688,-0.941604614257812,0.284149169921875,-0.0628615206863394,0.00236914810573449,0.00507145766383789
1491141452.4,40.4378484143321,-79.9370730389654,16.3700008392334,0.250579833984375,-1.00883483886719,0.194107055664062,0.0407295867633448,-0.0870584697185813,0.0771294062264389
1491141452.6,40.4378484143321,-79.9370730389654,16.3700008392334,0.066925048828125,-0.919540405273438,0.217361450195312,0.107814348306332,0.0135272604409485,0.0125216508133346
1491141452.8,40.4378484143321,-79.9370730389654,16.3700008392334,0.0802764892578125,-0.9549560546875,0.23687744140625,0.0341355999043087,-0.172122498096802,0.0919477671638578
1491141453.0,40.4378484143321,-79.9370730389654,16.3700008392334,-0.0133056640625,-1.01972961425781,0.247909545898438,0.118315725116732,-0.0811260120743208,0.0377644232056506
1491141453.2,40.4378484143321,-79.9370730389654,16.3700008392334,-0.114349365234375,-1.00294494628906,0.331268310546875,0.0753818399191289,0.00376544346526303,-0.0489395797718411
1491141453.4,40.4377877712626,-79.9368960131704,16.4799995422363,0.087799072265625,-0.9027099609375,0.288116455078125,-0.00416944500262806,-0.0179696794553097,0.0234728355318494
1491141453.6,40.4377877712626,-79.9368960131704,16.4799995422363,-0.0249176025390625,-0.915008544921875,0.285308837890625,-0.0447546884348906,-0.0985806361748091,0.0547303572461094
1491141453.8,40.4377877712626,-79.9368960131704,16.4799995422363,0.0834503173828125,-0.94219970703125,0.278839111328125,-0.102419316570049,-0.0135003625139387,-0.00299259411692204
1491141454.0,40.4377877712626,-79.9368960131704,16.4799995422363,0.0123291015625,-1.07369995117188,0.26300048828125,0.114309798205035,-0.171185864341421,0.122921395905915
1491141454.2,40.4377271281932,-79.93671773009,16.5799999237061,0.135528564453125,-0.928817749023438,0.319869995117188,0.0118936774282939,-0.0158511348081516,0.03287086470263
1491141454.4,40.4377271281932,-79.93671773009,16.5799999237061,0.0546112060546875,-0.913970947265625,0.254791259765625,-0.00855833447907864,0.106193015834692,-0.0593661217556103
1491141454.6,40.4377271281932,-79.93671773009,16.5799999237061,0.0103302001953125,-1.01664733886719,0.30120849609375,0.0564014908301341,0.0347728943531646,-0.0336969772727726
1491141454.8,40.4377271281932,-79.93671773009,16.5799999237061,0.167861938476562,-0.983078002929688,0.281402587890625,-0.0221220802269612,-0.00610609574733368,0.0429240315015701
1491141455.0,40.4377271281932,-79.93671773009,16.5799999237061,0.0965576171875,-0.85595703125,0.170120239257812,0.00148178283052009,0.0183401251629397,0.0522773195660374
1491141455.2,40.4376714723561,-79.9365356751531,16.7299995422363,-0.0084075927734375,-0.902908325195312,0.32550048828125,-0.0523281859428579,-0.0381077046701618,0.0069772157398986
1491141455.4,40.4376714723561,-79.9365356751531,16.7299995422363,0.172332763671875,-1.00801086425781,0.237838745117188,0.0501140338125661,0.0433666488747413,-0.0218666830784226
1491141455.6,40.4376714723561,-79.9365356751531,16.7299995422363,0.18365478515625,-0.962081909179688,0.217056274414062,0.0352336212217483,0.111408017881285,-0.050314037210431
1491141455.8,40.4376714723561,-79.9365356751531,16.7299995422363,0.25408935546875,-0.890975952148438,0.163787841796875,-0.0267016520374615,-0.0551577946010671,0.0215415111093239
1491141456.0,40.4376714723561,-79.9365356751531,16.7299995422363,0.23541259765625,-0.948074340820312,0.244964599609375,0.0180517048168841,0.061473214810081,-0.0427450670763168
1491141456.2,40.4376195883755,-79.9363533687591,16.5400009155273,0.168853759765625,-0.96514892578125,0.249908447265625,-0.0125136613300643,-0.0103772735036028,0.0470575238294821
1491141456.4,40.4376195883755,-79.9363533687591,16.5400009155273,0.212615966796875,-1.01498413085938,0.236129760742188,0.0226472555939248,0.123278259491986,-0.0255991033461687
1491141456.6,40.4376195883755,-79.9363533687591,16.5400009155273,0.220596313476562,-0.977508544921875,0.189651489257812,-0.00539556436850054,0.0817345443834039,-0.0519976876515791
1491141456.8,40.4376195883755,-79.9363533687591,16.5400009155273,0.199462890625,-0.911636352539062,0.205642700195312,-0.0894451946875103,0.085333806596646,-0.027458256103153
1491141457.0,40.4376195883755,-79.9363533687591,16.5400009155273,0.174026489257812,-0.917587280273438,0.206130981445312,-0.0180434490175049,0.061706241405463,-0.0198903512334748
1491141457.2,40.4375748290126,-79.9361688830703,16.2999992370605,0.229202270507812,-0.958969116210938,0.263916015625,-0.000765392497288773,0.0469363499998835,0.0203793076096134
1491141457.4,40.4375748290126,-79.9361688830703,16.2999992370605,0.238815307617188,-0.911849975585938,0.222885131835938,-0.0222539067009201,0.146706353917522,-0.0558994849646542
1491141457.6,40.4375748290126,-79.9361688830703,16.2999992370605,0.236526489257812,-0.990066528320312,0.282241821289062,-0.0213697372190138,0.158254885668542,-0.0889429225059214
1491141457.8,40.4375748290126,-79.9361688830703,16.2999992370605,0.170440673828125,-0.897003173828125,0.207733154296875,-0.0818634413801637,0.119370603224513,-0.0274766319146745
1491141458.0,40.4375748290126,-79.9361688830703,16.2999992370605,0.22998046875,-0.908401489257812,0.229278564453125,-0.131149498409824,0.126801088981943,-0.0673556050258481
1491141458.2,40.4375748290126,-79.9361688830703,16.2999992370605,0.244873046875,-1.02279663085938,0.26434326171875,0.0747783676161169,0.166556491418537,-0.0645542258751937
1491141458.4,40.4375413852189,-79.9359861575811,16.0599994659424,0.09368896484375,-0.9415283203125,0.265548706054688,0.0108832741107178,0.0266654330466364,0.0191180345173518
1491141458.6,40.4375413852189,-79.9359861575811,16.0599994659424,0.314315795898438,-1.05497741699219,0.232025146484375,0.044835914848138,0.144296992079327,-0.0663569196170683
1491141458.8,40.4375413852189,-79.9359861575811,16.0599994659424,0.0339813232421875,-0.842315673828125,0.162445068359375,0.00454015702636709,-0.0932628361101389,0.0893064439947172
1491141459.0,40.4375413852189,-79.9359861575811,16.0599994659424,0.18731689453125,-0.991561889648438,0.2576904296875,0.0150015864204163,0.0668978076344634,-0.0234984018783142
1491141459.2,40.4375242023174,-79.9357998278736,15.8500003814697,0.31500244140625,-0.974624633789062,0.210983276367188,0.000754739852928456,0.212145548222949,-0.156284679094101
1491141459.4,40.4375242023174,-79.9357998278736,15.8500003814697,0.290969848632812,-0.906967163085938,0.212738037109375,-0.0501073759098409,0.181748493856894,-0.0938551231365725
1491141459.6,40.4375242023174,-79.9357998278736,15.8500003814697,0.379638671875,-0.985092163085938,0.143798828125,0.0768633564335399,0.134660609990985,-0.0550563281635351
1491141459.8,40.4375242023174,-79.9357998278736,15.8500003814697,0.181747436523438,-1.01240539550781,0.246688842773438,-0.101111438158711,0.0801081519056925,-0.0155912102857599
1491141460.0,40.4375242023174,-79.9357998278736,15.8500003814697,0.056671142578125,-0.992172241210938,0.331802368164062,-0.062513711847975,-0.119497902324618,0.119959428141529
1491141460.2,40.4375225678463,-79.9356175214797,15.5600004196167,0.203277587890625,-0.969955444335938,0.189895629882812,-0.0587538610210011,0.0436558681691239,-0.0396752412877825
1491141460.4,40.4375225678463,-79.9356175214797,15.5600004196167,0.333038330078125,-0.90966796875,0.217041015625,0.0216075575043579,0.132857117300783,-0.0266302793202473
1491141460.6,40.4375225678463,-79.9356175214797,15.5600004196167,0.307449340820312,-0.9779052734375,0.141342163085938,-0.0650474433090764,0.175418958894102,-0.0926130248041596
1491141460.8,40.4375225678463,-79.9356175214797,15.5600004196167,0.157882690429688,-0.861557006835938,0.24267578125,-0.111698036123994,-0.0461616364387795,0.061035124810763
1491141461.0,40.4375225678463,-79.9356175214797,15.5600004196167,0.176971435546875,-0.98345947265625,0.268051147460938,-0.0655430575879401,0.108928082274203,0.0266784825359778
1491141461.2,40.4375361884389,-79.9354432617127,15.0799999237061,0.194808959960938,-0.895538330078125,0.25335693359375,-0.152453189233804,0.181041957219696,-0.0925536363118508
1491141461.4,40.4375361884389,-79.9354432617127,15.0799999237061,0.155517578125,-1.09757995605469,0.199737548828125,0.076998378700807,0.0646740681242473,0.00130095419250371
1491141461.6,40.4375361884389,-79.9354432617127,15.0799999237061,0.127517700195312,-0.912826538085938,0.234573364257812,-0.0340043060625677,0.0724017626593302,-0.0207289806607408
1491141461.8,40.4375361884389,-79.9354432617127,15.0799999237061,0.0867462158203125,-0.880294799804688,0.306365966796875,-0.0573591635581266,-0.00177579581486484,0.0327185318882775
1491141462.0,40.4375361884389,-79.9354432617127,15.0799999237061,0.112625122070312,-1.07173156738281,0.226425170898438,0.0384046471317057,0.0094409060643309,-0.00153371447177663
1491141462.2,40.4375361884389,-79.9354432617127,15.0799999237061,0.118453979492188,-0.889938354492188,0.15679931640625,-0.0383617702381554,0.0171353110857878,-0.00587067230697067
1491141462.4,40.437561376058,-79.9352725223451,14.8800001144409,0.049102783203125,-0.786590576171875,0.242446899414062,0.0307501895265999,-0.00234837544923187,-0.0238579286254749
1491141462.6,40.437561376058,-79.9352725223451,14.8800001144409,0.137771606445312,-0.905029296875,0.224578857421875,-0.0660229592163724,-0.0772319379284069,0.0518509474755157
1491141462.8,40.437561376058,-79.9352725223451,14.8800001144409,-0.040130615234375,-1.14219665527344,0.310882568359375,0.0873687279855755,-0.0428135103163318,0.0137190080394342
1491141463.0,40.437561376058,-79.9352725223451,14.8800001144409,-0.0420989990234375,-1.09681701660156,0.350616455078125,0.0586425408874358,-0.0140026346955276,0.00775246193322066
1491141463.2,40.437561376058,-79.9352725223451,14.8800001144409,0.130813598632812,-0.919677734375,0.200332641601562,-0.0897961993191827,0.0957052211458506,-0.0850160914785995
1491141463.4,40.4375897068907,-79.9351011962443,14.8199996948242,0.0040130615234375,-0.977066040039062,0.17718505859375,0.0638828429643847,-0.0438161904667467,0.0097500990668891
1491141463.6,40.4375897068907,-79.9351011962443,14.8199996948242,0.0363311767578125,-1.03016662597656,0.309646606445312,0.046483346298461,-0.0801001624224223,-0.0221039707315487
1491141463.8,40.4375897068907,-79.9351011962443,14.8199996948242,0.106155395507812,-0.992050170898438,0.29296875,0.0438356315427043,-0.133855536393454,0.0876464956872708
1491141464.0,40.4375897068907,-79.9351011962443,14.8199996948242,-0.0516357421875,-1.01078796386719,0.233200073242188,0.0220797359656289,-0.0735618356301687,-0.0079149147597155
1491141464.2,40.4376157746096,-79.9349292834102,14.9799995422363,-0.0036773681640625,-0.973037719726562,0.286972045898438,-0.0193313537206672,-0.130639503061074,0.0468681730759775
1491141464.4,40.4376157746096,-79.9349292834102,14.9799995422363,-0.177719116210938,-1.14129638671875,0.3155517578125,0.0971949934596409,-0.287969472883031,0.175125212225867
1491141464.6,40.4376157746096,-79.9349292834102,14.9799995422363,-0.105178833007812,-0.93414306640625,0.36669921875,0.0320362300169992,-0.254915649013513,0.139772814019501
1491141464.8,40.4376157746096,-79.9349292834102,14.9799995422363,-0.116806030273438,-0.988677978515625,0.324127197265625,0.0655973860741777,-0.204763531997358,0.189581915887253
1491141465.0,40.4376157746096,-79.9349292834102,14.9799995422363,-0.018463134765625,-0.949172973632812,0.164901733398438,-0.00292281929636196,-0.0114752948210424,0.0469328878904664
1491141465.2,40.4376338376109,-79.9347548560052,14.8900003433228,-0.09857177734375,-1.09025573730469,0.237030029296875,0.207971575846468,-0.177991838823228,0.102517853530382
1491141465.4,40.4376338376109,-79.9347548560052,14.8900003433228,0.112762451171875,-0.918289184570312,0.2835693359375,-0.0683127451216225,0.0129211249768464,-0.0182959166888444
1491141465.6,40.4376338376109,-79.9347548560052,14.8900003433228,-0.134002685546875,-0.941909790039062,0.2227783203125,-0.0804540965312938,-0.0959454382761757,0.135171670604171
1491141465.8,40.4376338376109,-79.9347548560052,14.8900003433228,-0.1314697265625,-1.01557922363281,0.188629150390625,-0.0370544244590355,-0.0941920130144675,0.0877010904896174
1491141466.0,40.4376338376109,-79.9347548560052,14.8900003433228,-0.11883544921875,-0.880935668945312,0.049957275390625,0.0520195255725178,-0.0152015898182813,-0.0252246628969035
1491141466.2,40.4376338376109,-79.9347548560052,14.8900003433228,0.121963500976562,-1.00985717773438,-0.0031890869140625,-0.109877765518925,0.018383801004817,-0.01882055942359
1491141466.4,40.437647332475,-79.934582524076,14.3500003814697,0.170242309570312,-0.992599487304688,-0.0804443359375,-0.0800130770547767,0.194555635539085,-0.108374677399685
1491141466.6,40.437647332475,-79.934582524076,14.3500003814697,0.0825958251953125,-1.07630920410156,-0.0637969970703125,0.00748960793362984,0.0732600994786627,-0.0340522429621892
1491141466.8,40.437647332475,-79.934582524076,14.3500003814697,0.0892181396484375,-0.863235473632812,0.06976318359375,-0.111005081608356,-0.0687266003550209,0.0172516912254243
1491141467.0,40.437647332475,-79.934582524076,14.3500003814697,-0.0255126953125,-1.01261901855469,-0.155990600585938,-0.0137608196685484,-0.0211194000765464,0.0257205434918763
1491141467.2,40.4376519425217,-79.9344285485148,12.0500001907349,0.0597991943359375,-0.982574462890625,-0.162322998046875,-0.0671673195367795,0.0437666556704712,-0.0225053091078236
1491141467.4,40.4376519425217,-79.9344285485148,12.0500001907349,-0.0084381103515625,-0.976776123046875,-0.0958099365234375,-0.0406065487209832,-0.0498325376853447,0.012133095610292
1491141467.6,40.4376519425217,-79.9344285485148,12.0500001907349,-0.0275726318359375,-1.04318237304688,-0.097900390625,-0.0553809675004158,-0.111261277705221,0.0665670430270756
1491141467.8,40.4376519425217,-79.9344285485148,12.0500001907349,0.0145721435546875,-0.977218627929688,-0.0863800048828125,-0.03226419660631,-0.0149525842563589,-0.0337486425979201
1491141468.0,40.4376519425217,-79.9344285485148,12.0500001907349,0.137832641601562,-1.10954284667969,-0.132965087890625,0.023291740577724,0.115544972318614,-0.0842775969083206
1491141468.2,40.4376519844313,-79.9343041610717,9.11999988555908,0.0408172607421875,-1.00656127929688,-0.0336456298828125,-0.116554843003972,0.0734244165179206,-0.0889921909860878
1491141468.4,40.4376519844313,-79.9343041610717,9.11999988555908,0.0900421142578125,-1.04148864746094,-0.0935821533203125,-0.0247772518337702,0.094408261694982,-0.086913327439172
1491141468.6,40.4376519844313,-79.9343041610717,9.11999988555908,0.051727294921875,-1.00776672363281,-0.087158203125,-0.0706073247168348,0.0648445104340123,-0.069335132664104
1491141468.8,40.4376519844313,-79.9343041610717,9.11999988555908,-0.0030670166015625,-1.05958557128906,-0.139724731445312,-0.00970429269613974,0.0137602870363304,-0.0233058553315014
1491141469.0,40.4376519844313,-79.9343041610717,9.11999988555908,0.0286102294921875,-1.0411376953125,-0.05609130859375,0.0532730754976181,0.0178437119357489,-0.0145006458193724
1491141469.2,40.4376512719695,-79.9342158996313,6.21000003814697,0.069610595703125,-1.03659057617188,-0.159072875976562,-0.0481898999249838,0.0180663522028795,-0.04093491648339
1491141469.4,40.4376512719695,-79.9342158996313,6.21000003814697,0.045135498046875,-1.05146789550781,-0.17425537109375,-5.5926382891664e-05,0.01270274576746,-0.0148998536667753
1491141469.6,40.4376512719695,-79.9342158996313,6.21000003814697,-0.0016326904296875,-1.06428527832031,-0.117630004882812,-0.036131639141323,-0.0040400153736502,0.0196461393615145
1491141469.8,40.4376512719695,-79.9342158996313,6.21000003814697,0.0453948974609375,-1.04205322265625,-0.09503173828125,-0.00540595069675185,-0.00109642342078562,-0.0105977832418613
1491141470.0,40.4376512719695,-79.9342158996313,6.21000003814697,0.046173095703125,-1.03152465820312,-0.0494842529296875,-0.0448731991033991,-0.0115930065412239,-0.00798655379303863
1491141470.2,40.4376498889555,-79.93416233927,3.34999990463257,0.0274810791015625,-1.02522277832031,-0.080596923828125,-0.0118441426320184,-0.0191547861403949,-0.00735804777577993
1491141470.4,40.4376498889555,-79.93416233927,3.34999990463257,0.043426513671875,-1.02818298339844,-0.053375244140625,-0.00527279264224788,5.91221761997591e-05,0.00859854821153884
1491141470.6,40.4376498889555,-79.93416233927,3.34999990463257,0.0484619140625,-1.03363037109375,-0.031463623046875,0.00215716048296418,-0.00105168231447229,0.00423575771377103
1491141470.8,40.4376498889555,-79.93416233927,3.34999990463257,-0.007904052734375,-0.993850708007812,0.098846435546875,-0.00421764821835849,-0.0296838598261322,0.0223801405365899
1491141471.0,40.4376498889555,-79.93416233927,3.34999990463257,0.0010223388671875,-1.00108337402344,0.10205078125,-0.0128074079983001,-0.0307589779581972,0.0139557630603422
1491141471.2,40.4376501404126,-79.9341340922564,1.47000002861023,0.0341339111328125,-1.00039672851562,0.196258544921875,-0.00542006545052927,0.00101732753641027,-0.0137919786533024
1491141471.4,40.4376501404126,-79.9341340922564,1.47000002861023,0.0432586669921875,-0.970611572265625,0.215469360351562,-0.0106997823116114,0.00319526067587707,-0.00732129615273683
1491141471.6,40.4376501404126,-79.9341340922564,1.47000002861023,0.0371246337890625,-0.965789794921875,0.241119384765625,-0.0149326105481833,-0.00420060398738198,0.0012468920223751
1491141471.8,40.4376501404126,-79.9341340922564,1.47000002861023,0.0506744384765625,-0.948074340820312,0.340133666992188,-3.19579330809509e-06,0.00318327645097171,-0.00212546886599224
1491141472.0,40.4376501404126,-79.9341340922564,1.47000002861023,0.052764892578125,-0.930999755859375,0.3973388671875,0.00425759563470968,0.00422776823050079,-0.00324373020771651
1491141472.2,40.4376514396075,-79.9341135565936,1.87999999523163,0.0388946533203125,-0.9306640625,0.372665405273438,-0.0202970159319299,0.0106598348952602,-0.0114475979457056
1491141472.4,40.4376514396075,-79.9341135565936,1.87999999523163,0.0609893798828125,-0.95098876953125,0.426498413085938,0.0256020328233677,0.0742510617202812,-0.0364134015846534
1491141472.6,40.4376514396075,-79.9341135565936,1.87999999523163,-0.00750732421875,-0.924362182617188,0.491485595703125,-0.0278755734459684,-0.0552299662666083,0.00556014772386743
1491141472.8,40.4376514396075,-79.9341135565936,1.87999999523163,-0.0191192626953125,-0.921371459960938,0.445388793945312,0.0277690470023652,-0.0489054913098881,0.0325928306848257
1491141473.0,40.4376514396075,-79.9341135565936,1.87999999523163,0.033599853515625,-0.928115844726562,0.4390869140625,0.0458353992052448,-0.0139680136013566,0.00578278799099806
1491141473.2,40.4376509366934,-79.9340709765255,4.23999977111816,0.0741424560546875,-0.891555786132812,0.436309814453125,-0.00533910535339086,0.0159400843885603,-0.00949310402169645
1491141473.4,40.4376509366934,-79.9340709765255,4.23999977111816,0.0758056640625,-0.97393798828125,0.446502685546875,0.0129711924053399,0.0181321322818045,0.016939036113449
1491141473.6,40.4376509366934,-79.9340709765255,4.23999977111816,0.0646820068359375,-0.960372924804688,0.47369384765625,-0.0490389156805011,0.0575109637402611,-0.0291030243923859
1491141473.8,40.4376509366934,-79.9340709765255,4.23999977111816,0.062255859375,-0.9031982421875,0.308807373046875,-0.0522525521678997,0.0776862732103744,-0.0418126943786801
1491141474.0,40.4376509366934,-79.9340709765255,4.23999977111816,-0.009124755859375,-0.910568237304688,0.334320068359375,-0.0434971437681552,0.138341098617474,-0.0396520717862988
1491141474.2,40.4376480030272,-79.9340109620988,6.30000019073486,0.03375244140625,-0.959274291992188,0.355300903320312,0.0107977866397263,0.00430659779876714,0.0180013710722816
1491141474.4,40.4376480030272,-79.9340109620988,6.30000019073486,0.0053863525390625,-0.963302612304688,0.34283447265625,-0.000107858024148209,-7.59000910672583e-05,-0.0159949455070159
1491141474.6,40.4376480030272,-79.9340109620988,6.30000019073486,0.0585479736328125,-1.00639343261719,0.340362548828125,-0.0608361866773341,0.0394510031239978,-0.0300606971203784
1491141474.8,40.4376480030272,-79.9340109620988,6.30000019073486,0.06414794921875,-0.9678955078125,0.295242309570312,-0.027661455294326,0.0181877923485871,-0.000672448175245008
1491141475.0,40.4376480030272,-79.9340109620988,6.30000019073486,0.009307861328125,-0.98602294921875,0.284332275390625,0.0503542509428912,-0.0191129745112807,0.0462370038976287
1491141475.2,40.4376485897605,-79.9339247123151,7.88000011444092,0.05596923828125,-0.956985473632812,0.241958618164062,-0.00851119652778424,0.0520722561621013,-0.02429948073421
1491141475.4,40.4376485897605,-79.9339247123151,7.88000011444092,0.023956298828125,-0.885757446289062,0.333038330078125,-0.0479227848676489,0.0554187843878949,-0.0205907626001656
1491141475.6,40.4376485897605,-79.9339247123151,7.88000011444092,0.103042602539062,-0.987274169921875,0.275711059570312,0.00955009566902415,0.103995641619267,-0.0606681412125501
1491141475.8,40.4376485897605,-79.9339247123151,7.88000011444092,0.0836944580078125,-0.921890258789062,0.266876220703125,-0.0522493563745916,0.103172724842433,-0.0545511265047471
1491141476.0,40.4376485897605,-79.9339247123151,7.88000011444092,0.0572662353515625,-0.84576416015625,0.282608032226562,-0.100318615102195,0.0799121432494627,-0.0561253210250929
1491141476.2,40.4376485897605,-79.9339247123151,7.88000011444092,0.14129638671875,-1.03970336914062,0.273590087890625,-0.055423045445639,0.0978919427169146,-0.0481243861621679
1491141476.4,40.4376504337792,-79.9338225369155,9.22999954223633,0.0914459228515625,-0.958343505859375,0.26959228515625,-0.0724667437899281,0.0894662336601219,-0.0415282687742596
1491141476.6,40.4376504337792,-79.9338225369155,9.22999954223633,0.0720672607421875,-1.0260009765625,0.225906372070312,-0.0180346605859076,0.0457847991445333,-0.0103293366039813
1491141476.8,40.4376504337792,-79.9338225369155,9.22999954223633,0.0360260009765625,-0.955856323242188,0.223602294921875,-0.0457634938558126,0.0140186136620681,0.00488050901367921
1491141477.0,40.4376504337792,-79.9338225369155,9.22999954223633,0.03411865234375,-0.9404296875,0.279144287109375,-0.013847372403976,0.0627051931303517,-0.0306055798794086
1491141477.2,40.4376504337792,-79.9338225369155,9.22999954223633,0.0522308349609375,-1.01600646972656,0.156005859375,-0.0513462784489457,0.0361582707522238,-0.0440524128554367
1491141477.4,40.4376527807121,-79.9337088783085,10.1499996185303,0.125625610351562,-0.970855712890625,0.220184326171875,-0.0319848310079607,0.0627584563521533,-0.0325073432138342
1491141477.6,40.4376527807121,-79.9337088783085,10.1499996185303,-0.0147705078125,-0.988983154296875,0.203704833984375,0.00980948755919787,-0.0349230966386451,0.0499161609435732
1491141477.8,40.4376527807121,-79.9337088783085,10.1499996185303,-0.0842437744140625,-1.00933837890625,0.173187255859375,0.0365580112318447,-0.0073402045964764,0.0496389258740959
1491141478.0,40.4376527807121,-79.9337088783085,10.1499996185303,-0.050750732421875,-0.93951416015625,0.14263916015625,-0.0117258982796189,-0.0222571024942282,0.0118286962976959
1491141478.2,40.4376527807121,-79.9337088783085,10.1499996185303,0.012969970703125,-1.10623168945312,0.0899658203125,0.0253221345928004,0.0496317353391527,-0.0652594309318467
1491141478.4,40.4376558401067,-79.9335864187031,10.4700002670288,0.0596160888671875,-0.923965454101562,0.150314331054688,-0.0852656296727399,0.0980013986377169,-0.0466777570580368
1491141478.6,40.4376558401067,-79.9335864187031,10.4700002670288,0.0515289306640625,-1.08180236816406,0.114852905273438,0.0532831955097604,0.0412113526045402,-0.0251112122344661
1491141478.8,40.4376558401067,-79.9335864187031,10.4700002670288,0.0444183349609375,-0.975784301757812,0.115264892578125,-0.0179686141908736,0.0564496940458646,-0.00604004935229971
1491141479.0,40.4376558401067,-79.9335864187031,10.4700002670288,0.031036376953125,-0.916946411132812,0.1439208984375,-0.0895045831798191,0.0704262297627094,-0.0285581416333557
1491141479.2,40.4376595700536,-79.9334612768888,10.460000038147,-0.008087158203125,-0.969833374023438,0.0633392333984375,-0.0159206433126027,0.016033028710604,0.00237234389904259
1491141479.4,40.4376595700536,-79.9334612768888,10.460000038147,-0.042266845703125,-0.982681274414062,0.13958740234375,-0.00850054388342392,-0.00632154547952109,0.00755858380586289
1491141479.6,40.4376595700536,-79.9334612768888,10.460000038147,0.0371551513671875,-1.03668212890625,0.024169921875,0.0267605078975522,-0.0201915547527628,0.0262731494180677
1491141479.8,40.4376595700536,-79.9334612768888,10.460000038147,0.0119476318359375,-1.02235412597656,0.0181732177734375,0.0419080355457049,0.00645896459176918,0.0453368554491819
1491141480.0,40.4376595700536,-79.9334612768888,10.460000038147,0.024658203125,-1.07943725585938,-0.033905029296875,0.0055657403621566,0.0139509693703801,0.0276878205891178
1491141480.2,40.4376628389959,-79.9333420024066,9.94999980926514,-0.0220184326171875,-1.04817199707031,-0.108489990234375,0.0204070044849502,0.00640703295051263,0.0189502553686768
1491141480.4,40.4376628389959,-79.9333420024066,9.94999980926514,-0.0167236328125,-1.0802001953125,-0.0849609375,-0.0030988542444162,0.0181323985979135,0.00541314123169506
1491141480.6,40.4376628389959,-79.9333420024066,9.94999980926514,-0.110641479492188,-1.08993530273438,-0.0499420166015625,0.0237990727653841,-0.0529308592975429,0.0784897489112513
1491141480.8,40.4376628389959,-79.9333420024066,9.94999980926514,-0.075927734375,-1.0244140625,-0.03582763671875,-0.0446383082952541,-0.00187113698188967,0.0218922494248874
1491141481.0,40.4376628389959,-79.9333420024066,9.94999980926514,0.10260009765625,-1.0909423828125,-0.140945434570312,0.00337023035949528,0.110541425262573,-0.0317813655006786
1491141481.2,40.4376697959755,-79.9332516454905,7.44000005722046,-0.021331787109375,-1.044189453125,-0.036102294921875,-0.0191539871920679,-0.00627920121818883,0.00876073472192466
1491141481.4,40.4376697959755,-79.9332516454905,7.44000005722046,0.0517730712890625,-1.01629638671875,0.139663696289062,0.0427716986872176,0.0264878002019281,0.00484828476448925
1491141481.6,40.4376697959755,-79.9332516454905,7.44000005722046,-0.0482635498046875,-0.945037841796875,0.17510986328125,-0.0158708422002182,0.0404904348974557,-0.00290417716873141
1491141481.8,40.4376697959755,-79.9332516454905,7.44000005722046,-0.055389404296875,-0.963592529296875,0.266769409179688,-0.0307595105904152,-0.0146476523115448,0.0312838870090518
1491141482.0,40.4376697959755,-79.9332516454905,7.44000005722046,-0.026702880859375,-0.997940063476562,0.218475341796875,-0.00432950098414182,-0.0902875525403024,0.037172136179217
1491141482.2,40.4376744898413,-79.9331673235446,6.44999980926514,-0.0742950439453125,-0.98345947265625,0.349563598632812,0.00920015630178774,-0.0778255565353856,-0.0184248136856042
1491141482.4,40.4376744898413,-79.9331673235446,6.44999980926514,-0.152679443359375,-0.930755615234375,0.38531494140625,-0.0292151434742783,-0.000202932875064038,-0.0636130647459597
1491141482.6,40.4376744898413,-79.9331673235446,6.44999980926514,0.015625,-0.986328125,0.42144775390625,0.0103461145188488,0.0146071722629756,-0.0544850801097131
1491141482.8,40.4376744898413,-79.9331673235446,6.44999980926514,-0.01788330078125,-1.01339721679688,0.33795166015625,0.0736952600007817,-0.157005596801185,-0.0578185588461653
1491141483.0,40.4376744898413,-79.9331673235446,6.44999980926514,0.0966033935546875,-1.08200073242188,0.412353515625,0.0645749985316963,-0.130092223457063,-0.00112092450281435
1491141483.2,40.4376744898413,-79.9331673235446,6.44999980926514,-0.131393432617188,-0.909759521484375,0.434967041015625,0.0868621947462424,0.0460247499587494,-0.107641242835477
1491141483.4,40.4376767110456,-79.9330790621042,7.98000001907349,-0.145538330078125,-1.02781677246094,0.426681518554688,0.0415146866527002,-0.120177008402589,0.0525159387997085
1491141483.6,40.4376767110456,-79.9330790621042,7.98000001907349,-0.0745697021484375,-0.97662353515625,0.428436279296875,0.0969435910527374,-0.056664877461943,0.0178309287625165
1491141483.8,40.4376767110456,-79.9330790621042,7.98000001907349,-0.0145263671875,-0.916290283203125,0.432464599609375,0.0320149247282786,-0.138128045730268,0.076056684939355
1491141484.0,40.4376767110456,-79.9330790621042,7.98000001907349,-0.1094970703125,-0.9891357421875,0.451797485351562,-0.00339606302206904,0.0274798277079826,-0.0436164533849907
1491141484.2,40.4376784712453,-79.9329711031913,9.60999965667725,-0.0646514892578125,-0.9830322265625,0.436721801757812,-0.0555775087888636,0.184854272320144,-0.116172945703655
1491141484.4,40.4376784712453,-79.9329711031913,9.60999965667725,0.0282440185546875,-0.951553344726562,0.383041381835938,-0.0184461189743248,0.0040834248994185,-0.049877012475549
