timestamp,latitude,longitude,speed,accelerometerX,accelerometerY,accelerometerZ
1,40.4289119644467,-79.9823497329652,5.15000009536743,0.0846099853515625,-0.875274658203125,0.201309204101562
2,40.4289154429365,-79.9824479688704,6.19000005722046,0.139694213867188,-0.572967529296875,0.1607666015625
3,40.4288995173205,-79.9825363141298,6.51000022888184,0.07183837890625,-1.05821228027344,0.301239013671875
4,40.4288989305873,-79.9826159422099,6.19000005722046,-0.036468505859375,-1.04563903808594,0.286026000976562
5,40.4288994335015,-79.9827155192196,7.51999998092651,0.0571746826171875,-1.09922790527344,0.407791137695312
6,40.4288996011395,-79.9828043673932,7.51999998092651,-0.2293701171875,-0.67510986328125,0.258255004882812
7,40.4288966255639,-79.9829388131201,8.40999984741211,-0.073516845703125,-0.9049072265625,0.256790161132812
8,40.4289013613392,-79.9830481131375,8.97000026702881,0.189178466796875,-0.900436401367188,0.209091186523438
9,40.4289003136013,-79.9831673038006,8.65999984741211,-0.139175415039062,-0.827529907226562,0.270950317382812
10,40.428895661645,-79.9832763523608,8.97000026702881,0.0503997802734375,-0.972793579101562,0.21551513671875
11,40.4288699292023,-79.9834270589799,9.44999980926514,-0.630874633789062,-0.720748901367188,-0.22509765625
12,40.428867791817,-79.983538454473,9.44999980926514,0.008453369140625,-0.919403076171875,0.17608642578125
13,40.4288697615642,-79.9836894963682,9.73999977111816,0.060791015625,-0.929000854492188,0.231658935546875
14,40.428869007193,-79.9837961141765,9.73999977111816,0.014739990234375,-0.826400756835938,0.2259521484375
15,40.4288757127155,-79.9839275424182,9.43000030517578,0.29547119140625,-1.02693176269531,0.158660888671875
16,40.4288702644784,-79.9840384349972,9.42000007629395,0.006072998046875,-1.04310607910156,0.062286376953125
17,40.4288646486033,-79.9841494113952,9.10999965667725,0.134048461914062,-0.845962524414062,0.24493408203125
18,40.4288701806594,-79.9842661713064,9.23999977111816,-0.029205322265625,-0.971664428710938,0.31060791015625
19,40.4288701806594,-79.9843750522286,9.23999977111816,-0.115081787109375,-0.92523193359375,0.0438232421875
20,40.428879736029,-79.9844937399775,9.26000022888184,0.14501953125,-1.04228210449219,0.198028564453125
21,40.4288785206531,-79.9846028723568,9.26000022888184,0.26483154296875,-1.26097106933594,0.121353149414062
22,40.4288509861011,-79.9846947380155,9.64000034332275,-0.133712768554688,-0.90972900390625,0.36798095703125
23,40.4288471304257,-79.9848079775274,9.64999961853027,0.0169219970703125,-1.01081848144531,0.0181732177734375
24,40.428855931424,-79.9849192892015,9.72000026702881,-0.123748779296875,-1.06121826171875,-0.174774169921875
25,40.4288557637859,-79.9850339536369,9.72000026702881,0.072174072265625,-0.938369750976562,0.329132080078125
26,40.4288563924287,-79.9851592630893,9.53999996185303,-0.3369140625,-0.694091796875,0.221649169921875
27,40.428863894232,-79.9852757715434,9.93000030517578,0.149185180664062,-0.990447998046875,0.280181884765625
28,40.4288641456891,-79.9853928667307,9.93000030517578,0.105545043945312,-0.993209838867188,0.380874633789062
29,40.4288491420824,-79.9855346047133,10.7200002670288,0.0322113037109375,-0.887725830078125,0.071014404296875
30,40.4288469208781,-79.9856609199941,10.710000038147,0.002227783203125,-0.969329833984375,0.36798095703125
31,40.428822864816,-79.9857860618085,10.5900001525879,0.047454833984375,-0.848785400390625,0.248046875
32,40.4288178356741,-79.9859109521657,10.6000003814697,0.07745361328125,-1.07809448242188,0.244216918945312
33,40.4288301570718,-79.9860591442138,10.8100004196167,-0.0321807861328125,-0.90643310546875,0.239761352539062
34,40.4288234515492,-79.9861732219159,10.5600004196167,0.018157958984375,-0.846038818359375,0.246368408203125
35,40.4288166202981,-79.9862958491593,10.4200000762939,-0.07427978515625,-0.867294311523438,0.34466552734375
36,40.4288050532718,-79.9864398502558,10.6599998474121,0.084259033203125,-1.38533020019531,0.233963012695312
37,40.428787199818,-79.9865691830218,10.7200002670288,0.0583038330078125,-1.03187561035156,0.25775146484375
38,40.428784517609,-79.9866955821216,10.710000038147,0.0448760986328125,-1.00517272949219,0.32025146484375
39,40.42877404023,-79.9868376553804,11.75,0.115631103515625,-0.999298095703125,0.0847625732421875
40,40.4287774349008,-79.9869652279466,10.6999998092651,0.228134155273438,-0.953857421875,0.163040161132812
41,40.4287659097839,-79.9870940577984,12.0600004196167,0.0065460205078125,-1.05474853515625,0.309417724609375
42,40.4287590785329,-79.9872352928668,11.9700002670288,0.163619995117188,-1.17845153808594,0.216583251953125
43,40.4287659097839,-79.9873797968775,11.960000038147,-0.186141967773438,-0.970947265625,0.217666625976562
44,40.4287662869696,-79.9875189364701,11.9399995803833,0.464019775390625,-1.20419311523438,0.3870849609375
45,40.4287717352066,-79.9876531307399,11.8800001144409,-0.0991668701171875,-0.93768310546875,0.261520385742188
46,40.4287475953255,-79.9877839722484,11.7799997329712,0.0760650634765625,-0.97650146484375,0.211029052734375
47,40.4287405545268,-79.9879304879159,11.789999961853,-0.011138916015625,-0.877853393554688,0.0475616455078125
48,40.4287238745395,-79.988076333031,11.3299999237061,-0.0565032958984375,-0.994705200195312,0.083282470703125
49,40.4287352739278,-79.9881971162557,10.789999961853,0.0278167724609375,-1.16142272949219,-0.0642852783203125
50,40.4287392972414,-79.9883155525476,9.0600004196167,-0.0364837646484375,-0.878829956054688,-0.0163116455078125
51,40.4287386266891,-79.9884208292514,7.78000020980835,-0.240951538085938,-0.951095581054688,0.10345458984375
52,40.4287376627703,-79.9884862080961,5.19999980926514,-0.113037109375,-0.98455810546875,0.299453735351562
53,40.4287482239682,-79.9885315541923,2.5699999332428,-0.13189697265625,-0.967422485351562,0.230255126953125
54,40.4287702264641,-79.9885618966818,2.46000003814697,-0.0538482666015625,-0.92486572265625,0.37774658203125
55,40.4287940310691,-79.9885832705349,2.90000009536743,-0.082061767578125,-0.934524536132812,0.354476928710938
56,40.4288118007038,-79.9885891378671,2.99000000953674,0.00830078125,-0.9163818359375,0.279312133789062
57,40.4288726533208,-79.9885894731432,5.44999980926514,0.110458374023438,-0.98797607421875,0.282821655273438
58,40.4289290635292,-79.9885823485255,6.38000011444092,0.0960693359375,-1.00088500976562,0.247085571289062
59,40.4289918020744,-79.9885831028968,7.36999988555908,0.080413818359375,-0.989654541015625,0.22509765625
60,40.4290522775058,-79.9885825999826,7.65999984741211,0.14166259765625,-1.02377319335938,0.373809814453125
61,40.4291226016734,-79.9885812588781,8.35000038146973,-0.0038909912109375,-0.964218139648438,0.338394165039062
62,40.4291938478504,-79.9885822647065,8.26000022888184,0.0248260498046875,-0.948348999023438,0.268157958984375
63,40.4292740207542,-79.988586204201,8.47000026702881,0.04290771484375,-0.980682373046875,0.265228271484375
64,40.4293471528594,-79.9885926582664,8.31999969482422,0.0311126708984375,-0.976058959960938,0.224700927734375
65,40.4294219194357,-79.9885970168561,8.22999954223633,-0.105194091796875,-0.941162109375,0.2635498046875
66,40.4294982785736,-79.9885919877142,7.78999996185303,-0.0142364501953125,-0.92034912109375,0.217803955078125
67,40.4295710334931,-79.9885963463038,8.35999965667725,0.028533935546875,-1.12454223632812,0.20318603515625
68,40.4296385078136,-79.9885965977609,7.65000009536743,-0.0380096435546875,-0.9957275390625,0.0927581787109375
69,40.4297094187144,-79.9886017107218,7.40999984741211,-0.0562896728515625,-0.999526977539062,0.011932373046875
70,40.4297633981709,-79.9886040576547,5.94000005722046,-0.0673065185546875,-1.01948547363281,0.056121826171875
71,40.4298066068817,-79.9886039738357,4.94000005722046,-0.0514678955078125,-1.01872253417969,0.0386810302734375
72,40.4298248375211,-79.9886095058918,2.3199999332428,-0.0438079833984375,-0.996490478515625,0.1116943359375
73,40.4298305791248,-79.9886041414738,1.00999999046326,-0.0091552734375,-0.98602294921875,0.2030029296875
74,40.4298389191184,-79.988604895845,0.430000007152557,0.0098876953125,-0.971878051757812,0.218765258789062
75,40.4298389191184,-79.988604895845,0.0,0.0303192138671875,-0.968612670898438,0.253738403320312
76,40.4298389191184,-79.988604895845,0.0,0.095611572265625,-0.914810180664062,0.336593627929688
77,40.429849606045,-79.9886104279011,1.07000005245209,0.0723876953125,-0.960098266601562,0.404693603515625
78,40.4298635619138,-79.9886081647873,1.74000000953674,0.0017242431640625,-0.816452026367188,0.314285278320312
79,40.4298921861131,-79.9886069075018,2.79999995231628,0.0798187255859375,-0.890106201171875,0.348281860351562
80,40.4300040845204,-79.9886173848808,5.76999998092651,0.111648559570312,-0.954330444335938,0.328765869140625
81,40.4300815333057,-79.9886303768307,7.53000020980835,0.14971923828125,-1.35464477539062,0.255111694335938
82,40.430158898272,-79.9886340648681,8.1899995803833,0.0153656005859375,-1.02677917480469,0.131271362304688
83,40.4302288033445,-79.9886433687806,7.8899998664856,-0.37493896484375,-0.79150390625,0.0241241455078125
84,40.4302912066136,-79.9886367470771,7.94999980926514,0.361251831054688,-1.02479553222656,0.280105590820312
85,40.4303758219261,-79.9886422791332,8.75,-0.076904296875,-0.896438598632812,0.295684814453125
86,40.43046550829,-79.9886430335045,10.1899995803833,0.491836547851562,-1.02311706542969,0.41851806640625
87,40.4305504588787,-79.9886562769115,9.89000034332275,0.119094848632812,-0.796844482421875,0.240402221679688
88,40.4306416539852,-79.9886606355011,10.3500003814697,0.127517700195312,-1.06329345703125,0.244064331054688
89,40.4307276942212,-79.9886789918691,10.8000001907349,0.0887298583984375,-0.87664794921875,0.329345703125
90,40.4308265587691,-79.9887013715505,12.4099998474121,-0.0573272705078125,-1.06907653808594,0.392532348632812
91,40.4309270577882,-79.9887325522303,11.960000038147,0.204559326171875,-1.03958129882812,0.327850341796875
92,40.4310365254436,-79.9887635652721,12.6000003814697,0.06365966796875,-0.874496459960938,0.15802001953125
93,40.431152656712,-79.9887952488661,13.2399997711182,0.162628173828125,-0.985946655273438,0.4365234375
94,40.4312610766296,-79.9888305366784,13.4700002670288,-0.0143585205078125,-1.07888793945312,0.171707153320312
95,40.4313761601601,-79.988869177252,14.6700000762939,0.060089111328125,-1.02803039550781,0.393722534179688
96,40.4315042775501,-79.9888975080848,14.8199996948242,0.134765625,-1.34786987304688,0.409027099609375
97,40.4316344065968,-79.988943021819,15.0100002288818,0.0048065185546875,-1.004150390625,0.215286254882812
98,40.4317744262893,-79.9889940676093,15.1400003433228,0.12628173828125,-0.931869506835938,0.160186767578125
99,40.4319208581377,-79.9890280981362,16.0,0.0086669921875,-0.888137817382812,0.310836791992188
100,40.4320543399457,-79.9890691694617,16.7600002288818,0.0448455810546875,-0.8778076171875,0.290115356445312
101,40.432203202546,-79.9891109951585,16.9599990844727,0.0005340576171875,-0.79669189453125,0.12322998046875
102,40.4323502211277,-79.9891498871893,17.2299995422363,-0.112152099609375,-0.982162475585938,0.2056884765625
103,40.4325003410135,-79.9892011844367,17.6399993896484,-0.0440216064453125,-0.852325439453125,0.381134033203125
104,40.4326583398883,-79.9892403279245,17.7700004577637,0.121902465820312,-1.24824523925781,0.152374267578125
105,40.4328125249971,-79.9892784655839,17.5599994659424,-0.10150146484375,-0.92022705078125,0.177566528320312
106,40.4329679254819,-79.9893181119859,17.3700008392334,-0.05194091796875,-0.9521484375,0.122940063476562
107,40.4331185063724,-79.9893779587746,17.0900001525879,-0.0455780029296875,-0.905197143554688,0.141159057617188
108,40.4332732363049,-79.9894207902998,17.2900009155273,0.007080078125,-0.778045654296875,0.2640380859375
109,40.4334225599099,-79.9894729257375,16.6100006103516,0.0126800537109375,-0.797866821289062,0.0472564697265625
110,40.433562956788,-79.9895150028914,15.8199996948242,0.0027618408203125,-1.19013977050781,0.154312133789062
111,40.4336974444244,-79.989553643465,14.9099998474121,-0.204483032226562,-1.01942443847656,-0.000701904296875
112,40.4338155454401,-79.98958784163,13.0500001907349,-0.30511474609375,-0.79876708984375,-0.0624237060546875
113,40.4339193134014,-79.9896121491492,11.1899995803833,-0.107681274414062,-1.02853393554688,0.0420074462890625
114,40.4340156633783,-79.9896284100413,9.59000015258789,0.023101806640625,-1.028564453125,0.042327880859375
115,40.4341002786909,-79.9896481075138,7.8899998664856,-0.145843505859375,-1.07510375976562,-0.0096893310546875
116,40.4341582814608,-79.9896605127305,5.38000011444092,-0.112396240234375,-1.0242919921875,-0.0131988525390625
117,40.4341922281687,-79.9896745105088,2.75,-0.0855712890625,-1.02070617675781,0.013763427734375
118,40.4342145659406,-79.9896815513074,1.74000000953674,-0.0128326416015625,-0.951217651367188,0.195388793945312
119,40.4342178767924,-79.9896844849735,0.150000005960464,0.0199127197265625,-0.975814819335938,0.228302001953125
120,40.4342178767924,-79.9896844849735,0.0,-0.00677490234375,-0.977325439453125,0.208267211914062
121,40.4342178767924,-79.9896844849735,0.0,0.0052947998046875,-0.987869262695312,0.185455322265625
122,40.4342178767924,-79.9896844849735,0.0,-0.0093841552734375,-0.983566284179688,0.191558837890625
123,40.4342178767924,-79.9896844849735,0.0,0.006988525390625,-0.974777221679688,0.198562622070312
124,40.4342178767924,-79.9896844849735,0.0,0.0005645751953125,-0.97955322265625,0.225631713867188
125,40.4342178767924,-79.9896844849735,0.0,0.00341796875,-0.979629516601562,0.210281372070312
126,40.4342178767924,-79.9896844849735,0.0,-0.0010223388671875,-0.977828979492188,0.211532592773438
127,40.4342178767924,-79.9896844849735,0.0,-0.003387451171875,-0.978790283203125,0.213348388671875
128,40.4341704771299,-79.98967526488,0.0,0.0027313232421875,-0.975494384765625,0.207473754882812
129,40.4341704771299,-79.98967526488,0.0,0.002838134765625,-0.977462768554688,0.210205078125
130,40.4341704771299,-79.98967526488,0.0,-0.0008697509765625,-0.979415893554688,0.211196899414062
131,40.4341704771299,-79.98967526488,0.0,0.0242156982421875,-0.958175659179688,0.265579223632812
132,40.4341869056601,-79.9896944594383,0.649999976158142,0.0195770263671875,-0.976455688476562,0.239105224609375
133,40.4341990594197,-79.9896920286864,0.699999988079071,0.0097198486328125,-0.930526733398438,0.258071899414062
134,40.4342217743773,-79.9896914419532,2.07999992370605,0.0135955810546875,-1.02995300292969,0.229019165039062
135,40.434243357778,-79.9896978960186,2.40000009536743,-0.0086669921875,-0.940826416015625,0.253067016601562
136,40.4342656117309,-79.9897037633508,2.60999989509583,0.0670013427734375,-0.97998046875,0.272262573242188
137,40.4342890810598,-79.9897108879685,2.72000002861023,0.348114013671875,-1.07675170898438,0.48431396484375
138,40.434302743562,-79.9897186831385,1.6599999666214,0.271926879882812,-1.04280090332031,0.310623168945312
139,40.4343125084792,-79.9897295796126,1.66999995708466,0.0951385498046875,-0.80804443359375,0.376510620117188
140,40.4343600338701,-79.9897661247104,5.46999979019165,0.179443359375,-0.96087646484375,0.295730590820312
141,40.4344008118291,-79.989796802476,5.19999980926514,0.28546142578125,-1.037353515625,0.192398071289062
142,40.4344556713853,-79.9898792804032,7.38000011444092,0.294235229492188,-0.935226440429688,0.200698852539062
143,40.4344921745736,-79.9899798632413,8.52999973297119,0.253082275390625,-0.907241821289062,0.265777587890625
144,40.4345124168698,-79.9900729861855,8.31999969482422,0.0983123779296875,-0.834426879882812,0.343719482421875
145,40.4345321562518,-79.9902158138156,10.4499998092651,0.137313842773438,-0.949234008789062,0.451034545898438
146,40.4345396161456,-79.9903573841601,12.2200002670288,0.248046875,-0.99102783203125,0.290023803710938
147,40.4345488781486,-79.9905010499805,12.2299995422363,0.106292724609375,-0.7489013671875,0.223739624023438
148,40.434576286972,-79.9906837754696,13.75,0.0271148681640625,-0.964797973632812,0.339035034179688
149,40.4345933022354,-79.9908494018763,14.3999996185303,-0.06109619140625,-0.99169921875,0.27783203125
150,40.434612119608,-79.9910271820426,14.7200002670288,0.141860961914062,-1.10475158691406,0.375686645507812
151,40.4346292606,-79.9912021123618,14.8299999237061,0.038848876953125,-0.819305419921875,0.18328857421875
152,40.4346401151646,-79.9913724326342,14.6400003433228,-0.0093841552734375,-0.958236694335938,0.1778564453125
153,40.4346513050054,-79.9915458542108,14.3699998855591,-0.027984619140625,-1.04376220703125,0.215606689453125
154,40.4346617404748,-79.9917056132853,13.8299999237061,-0.161300659179688,-0.918243408203125,0.220504760742188
155,40.4346840363372,-79.9918652047217,13.289999961853,-0.09991455078125,-1.05171203613281,0.325775146484375
156,40.4347004648675,-79.9920177553594,12.8999996185303,-0.107315063476562,-0.841934204101562,0.238143920898438
157,40.434732190371,-79.9921579007804,12.1899995803833,0.0259857177734375,-1.00599670410156,0.369293212890625
158,40.4347720882301,-79.9922898319363,12.0,-0.104782104492188,-0.785308837890625,0.280593872070312
159,40.4348141234745,-79.99241849415,12.960000038147,0.0355987548828125,-0.879928588867188,0.2769775390625
160,40.4348663008217,-79.9925557059049,13.4899997711182,0.0274658203125,-0.981414794921875,0.253631591796875
161,40.4349197354544,-79.9927028083056,13.6400003433228,0.0590972900390625,-0.933731079101562,0.190261840820312
162,40.4349725414444,-79.9928451330215,13.6899995803833,-0.0571441650390625,-0.9969482421875,0.183258056640625
163,40.435022958592,-79.9929916486889,13.8699998855591,0.0281829833984375,-0.962539672851562,0.3558349609375
164,40.435073166192,-79.9931409303844,13.9499998092651,-0.0715179443359375,-0.974517822265625,0.113235473632812
165,40.4351256369058,-79.9932809081673,13.960000038147,0.0366058349609375,-0.841964721679688,0.0869598388671875
166,40.4351784428958,-79.9934292678535,13.8500003814697,0.052947998046875,-0.914199829101562,0.0376739501953125
167,40.4352276446674,-79.9935699161887,12.8100004196167,-0.195724487304688,-0.999832153320312,0.20220947265625
168,40.4352591606234,-79.9936818984151,11.8100004196167,0.192535400390625,-1.03060913085938,0.163299560546875
169,40.4353104997803,-79.9938098900765,11.7600002288818,-0.18731689453125,-1.31153869628906,0.122100830078125
170,40.4353650240604,-79.9939289131015,11.9300003051758,-0.113906860351562,-1.00704956054688,0.15740966796875
171,40.435428684615,-79.9940527138114,12.1700000762939,-0.141372680664062,-0.832015991210938,0.23089599609375
172,40.4354966199402,-79.9941681326181,12.289999961853,0.188812255859375,-1.000244140625,0.273651123046875
173,40.4355614539612,-79.9942812883109,12.4799995422363,0.0843353271484375,-1.11740112304688,0.304351806640625
174,40.4356324486811,-79.9944016524404,11.9799995422363,0.02520751953125,-1.14822387695312,0.22113037109375
175,40.4356854642187,-79.9945158977806,11.5500001907349,-0.0418701171875,-1.04495239257812,0.196701049804688
176,40.4357288824771,-79.9946273770928,11.6700000762939,0.0615692138671875,-1.00521850585938,0.110748291015625
177,40.4357958538834,-79.9947397784144,12.2700004577637,0.0418548583984375,-0.86065673828125,0.254913330078125
178,40.4358292976771,-79.9948501680791,12.0799999237061,-0.15545654296875,-0.92034912109375,0.292816162109375
179,40.4358873842661,-79.9949458055943,11.960000038147,0.101409912109375,-1.15922546386719,0.240310668945312
180,40.4359182296697,-79.9950119388103,10.8199996948242,0.0438385009765625,-0.894790649414062,0.189056396484375
181,40.4359606001903,-79.9951004517078,9.90999984741211,-0.0736083984375,-0.740936279296875,0.112777709960938
182,40.435965042599,-79.9952412676811,9.53999996185303,0.152618408203125,-1.16592407226562,0.206893920898438
183,40.4360420303796,-79.995315028429,9.19999980926514,-0.136703491210938,-1.00279235839844,0.0841064453125
184,40.436084065624,-79.9954000209272,8.5600004196167,-0.0915069580078125,-0.976760864257812,0.12579345703125
185,40.4361349856858,-79.9954636395723,7.88000011444092,0.0586395263671875,-0.908935546875,0.310699462890625
186,40.4362607142333,-79.9955820758641,9.48999977111816,0.0006561279296875,-0.875228881835938,0.072784423828125
187,40.4363232851405,-79.9956827425212,9.75,0.490325927734375,-1.673583984375,0.388381958007812
188,40.4363651108373,-79.9958813936263,10.8299999237061,-1.05508422851562,-0.80828857421875,-0.042388916015625
189,40.4363742471118,-79.9959584233165,10.2700004577637,0.070770263671875,-0.91986083984375,0.0947723388671875
190,40.4364060564343,-79.9960404821485,9.60000038146973,0.0076141357421875,-0.860824584960938,0.314666748046875
191,40.4364508577068,-79.9961543922126,9.9399995803833,0.1678466796875,-1.04446411132812,0.18597412109375
192,40.4365074355532,-79.9962636084109,9.85999965667725,-0.097412109375,-0.911148071289062,0.17822265625
193,40.4365792265538,-79.9964544643462,10.3100004196167,0.128997802734375,-1.10963439941406,0.0887451171875
194,40.4366083117579,-79.9965442345291,8.89999961853027,-0.041168212890625,-0.865753173828125,0.420181274414062
195,40.4366520652924,-79.9966366869211,8.53999996185303,-0.0636138916015625,-0.973648071289062,0.235565185546875
196,40.4366383189712,-79.9966792669892,7.05000019073486,-0.136199951171875,-0.796798706054688,0.19097900390625
197,40.4366295598824,-79.9967154768109,5.6399998664856,0.061431884765625,-0.808639526367188,0.209793090820312
198,40.4366525682066,-79.9967707973719,5.48999977111816,0.089996337890625,-1.00387573242188,0.18206787109375
199,40.4366736906026,-79.9968225975335,5.21000003814697,0.0390472412109375,-1.03274536132812,0.0534515380859375
200,40.4366823239629,-79.9968471565097,3.36999988555908,-0.0094146728515625,-0.96539306640625,0.152694702148438
201,40.4366937652607,-79.996863668859,2.11999988555908,0.083892822265625,-0.968597412109375,0.246292114257812
202,40.4366977466647,-79.9968747329712,1.12000000476837,0.118911743164062,-1.02180480957031,0.407699584960938
203,40.4367051227395,-79.9968925864249,2.13000011444092,0.0623016357421875,-0.923049926757812,0.354385375976562
204,40.4367193300654,-79.9969143793732,3.10999989509583,-0.0543212890625,-0.930282592773438,0.26739501953125
205,40.436736764424,-79.9969333224743,2.86999988555908,-0.0794219970703125,-1.01751708984375,0.2230224609375
206,40.4367550788824,-79.9969489128142,2.23000001907349,0.218658447265625,-0.907455444335938,0.472335815429688
207,40.4367849184577,-79.9969621562213,3.08999991416931,0.259613037109375,-0.91900634765625,0.330673217773438
208,40.4368277918924,-79.9969810993224,4.53999996185303,0.25836181640625,-0.849105834960938,0.395217895507812
209,40.4368842440103,-79.9970343244076,6.01000022888184,0.23199462890625,-0.911148071289062,0.309219360351562
210,40.4369194899131,-79.9971038942039,5.17999982833862,0.004180908203125,-0.995819091796875,0.400924682617188
211,40.436944426075,-79.9972288683802,-1.0,0.0468597412109375,-1.05606079101562,0.340103149414062
212,40.4369578790296,-79.9973773957044,9.22999954223633,-0.0332794189453125,-0.690505981445312,0.269454956054688
213,40.4369867127765,-79.9975167867541,12.6300001144409,-0.154708862304688,-1.10282897949219,0.26544189453125
214,40.4370298376683,-79.9976528250426,12.5299997329712,0.0863800048828125,-0.995071411132812,-0.0530853271484375
215,40.437067179047,-79.9977818225324,11.5100002288818,-0.203521728515625,-1.11056518554688,-0.016632080078125
216,40.4370905645568,-79.9978936371207,9.90999984741211,0.319961547851562,-1.12075805664062,0.0588531494140625
217,40.4371087113772,-79.9979847484082,7.73999977111816,-0.181488037109375,-0.998458862304688,0.0467529296875
218,40.4371311748777,-79.9980516359955,6.3899998664856,-0.0537567138671875,-1.01814270019531,0.0512237548828125
219,40.4371484835077,-79.9980896898359,3.64000010490417,-0.0747528076171875,-1.02581787109375,0.132827758789062
220,40.4371577036012,-79.9981141649932,1.74000000953674,-0.013946533203125,-0.984619140625,0.143463134765625
221,40.4371600086246,-79.9981196132302,0.25,0.0365753173828125,-0.957870483398438,0.267196655273438
222,40.4371569492299,-79.9981205352396,0.46000000834465,0.0124359130859375,-0.984848022460938,0.220352172851562
223,40.4371543927495,-79.9981198646873,0.519999980926514,-0.001861572265625,-0.961746215820312,0.222503662109375
224,40.4371566139538,-79.9981288333237,0.5,-0.0478057861328125,-0.977264404296875,0.12054443359375
225,40.4371618526433,-79.9981369637698,0.300000011920929,0.0076904296875,-0.969772338867188,0.240234375
226,40.4371618526433,-79.9981369637698,0.0,0.0065155029296875,-0.97161865234375,0.236724853515625
227,40.4371618526433,-79.9981369637698,0.0,0.0077972412109375,-0.9683837890625,0.246337890625
228,40.4371618526433,-79.9981369637698,0.0,0.01129150390625,-0.974838256835938,0.2333984375
229,40.4371618526433,-79.9981369637698,0.0,0.040557861328125,-0.955780029296875,0.292327880859375
230,40.4371618526433,-79.9981369637698,0.0,0.003753662109375,-0.966140747070312,0.22784423828125
231,40.4371711146463,-79.9981304258853,0.270000010728836,0.009918212890625,-0.98553466796875,0.229324340820312
232,40.4371711146463,-79.9981304258853,0.0,0.0045928955078125,-0.967193603515625,0.24359130859375
233,40.4371711146463,-79.9981304258853,0.0,0.0116729736328125,-0.968963623046875,0.242279052734375
234,40.4371711146463,-79.9981304258853,0.0,0.0089263916015625,-0.970550537109375,0.2330322265625
235,40.4371711146463,-79.9981304258853,0.0,0.0091705322265625,-0.971176147460938,0.228790283203125
236,40.4371711146463,-79.9981304258853,0.0,0.004241943359375,-0.974319458007812,0.24725341796875
237,40.4371711146463,-79.9981304258853,0.0,0.0077056884765625,-0.96820068359375,0.24365234375
238,40.4371711146463,-79.9981304258853,0.0,0.0105133056640625,-0.96826171875,0.236846923828125
239,40.4371711146463,-79.9981304258853,0.0,0.005889892578125,-0.972869873046875,0.23529052734375
240,40.4371711146463,-79.9981304258853,0.0,0.0063934326171875,-0.968292236328125,0.232086181640625
241,40.4371711146463,-79.9981304258853,0.0,0.005340576171875,-0.97088623046875,0.238632202148438
242,40.4371711146463,-79.9981304258853,0.0,0.010833740234375,-0.972091674804688,0.238174438476562
243,40.4371711146463,-79.9981304258853,0.0,0.00372314453125,-0.969573974609375,0.232925415039062
244,40.4371711146463,-79.9981304258853,0.0,0.0063629150390625,-0.97003173828125,0.234451293945312
245,40.4371711146463,-79.9981304258853,0.0,0.0058441162109375,-0.972488403320312,0.237075805664062
246,40.4371711146463,-79.9981304258853,0.0,0.02532958984375,-0.965774536132812,0.260467529296875
247,40.4371711146463,-79.9981304258853,0.0,0.0330810546875,-0.963516235351562,0.25244140625
248,40.4371784488116,-79.998150626272,0.219999998807907,0.0190582275390625,-0.968414306640625,0.254241943359375
249,40.4371786164496,-79.9981549848616,0.449999988079071,0.0199737548828125,-0.923934936523438,0.363800048828125
250,40.4371815501158,-79.9981633667648,0.800000011920929,0.018646240234375,-0.879791259765625,0.37640380859375
251,40.4371942486991,-79.9981786218286,2.20000004768372,-0.113327026367188,-0.895919799804688,0.291580200195312
252,40.4372162092854,-79.9981952179968,3.0,-0.247955322265625,-0.744384765625,0.4034423828125
253,40.437245504037,-79.9981994089484,3.21000003814697,0.04559326171875,-1.04194641113281,0.464828491210938
254,40.4372833902393,-79.9981838186085,4.34999990463257,0.0841827392578125,-1.23365783691406,0.124923706054688
255,40.4373232880984,-79.9981680606306,5.09999990463257,-0.005279541015625,-0.899215698242188,0.261199951171875
256,40.4373627668623,-79.9981469382346,5.15999984741211,-0.05462646484375,-1.01698303222656,0.188262939453125
257,40.437406771854,-79.9981246423721,5.19000005722046,0.164260864257812,-0.921463012695312,0.14434814453125
258,40.4374444065992,-79.9981041905284,4.92999982833862,0.0770111083984375,-1.10374450683594,0.199569702148438
259,40.4374743299935,-79.9980921205878,3.79999995231628,-0.038909912109375,-0.9791259765625,0.108261108398438
260,40.4374874895815,-79.9980836548656,1.94000005722046,0.0355377197265625,-0.9708251953125,0.258407592773438
261,40.4374908004333,-79.9980803021044,0.899999976158142,0.0398712158203125,-0.970870971679688,0.234405517578125
262,40.4374857712914,-79.998076614067,0.529999971389771,0.0428924560546875,-0.965713500976562,0.258987426757812
263,40.4374831309919,-79.9980809726566,0.170000001788139,0.04083251953125,-0.963851928710938,0.256271362304688
264,40.437480784059,-79.9980798830092,0.529999971389771,0.0396881103515625,-0.964935302734375,0.2589111328125
265,40.4374793172259,-79.9980804697424,0.230000004172325,0.0404205322265625,-0.962234497070312,0.257049560546875
266,40.4374777665738,-79.9980823137611,0.209999993443489,0.042999267578125,-0.965438842773438,0.256546020507812
267,40.4374777665738,-79.9980823137611,0.0,0.040191650390625,-0.9654541015625,0.262893676757812
268,40.4374777665738,-79.9980823137611,0.0,0.044921875,-0.964126586914062,0.2623291015625
269,40.4374777665738,-79.9980823137611,0.0,0.0423126220703125,-0.962646484375,0.253173828125
270,40.4374777665738,-79.9980823137611,0.0,0.0398406982421875,-0.968536376953125,0.25579833984375
271,40.4374777665738,-79.9980823137611,0.0,0.0528411865234375,-0.968673706054688,0.261962890625
272,40.4374777665738,-79.9980823137611,0.0,0.029876708984375,-0.9613037109375,0.251022338867188
273,40.4374832986299,-79.9980831519514,0.189999997615814,0.019287109375,-0.967864990234375,0.228240966796875
274,40.4374832986299,-79.9980831519514,0.0,0.0438079833984375,-0.964614868164062,0.260360717773438
275,40.4374832986299,-79.9980831519514,0.0,0.0402679443359375,-0.962799072265625,0.25787353515625
276,40.4374832986299,-79.9980831519514,0.0,0.0428466796875,-0.964645385742188,0.25848388671875
277,40.4374832986299,-79.9980831519514,0.0,0.04150390625,-0.965484619140625,0.256790161132812
278,40.4374832986299,-79.9980831519514,0.0,0.040679931640625,-0.964492797851562,0.264633178710938
279,40.4374832986299,-79.9980831519514,0.0,0.086578369140625,-0.926040649414062,0.362686157226562
280,40.4374860227485,-79.9980865047127,0.850000023841858,0.0926361083984375,-0.857086181640625,0.40228271484375
281,40.4374981765081,-79.9980772008002,2.10999989509583,0.190704345703125,-1.00820922851562,0.35247802734375
282,40.4375225259368,-79.9980633706599,3.19000005722046,0.0969390869140625,-0.995620727539062,0.265960693359375
283,40.4375560116399,-79.9980674777925,3.79999995231628,0.099578857421875,-0.97161865234375,0.231887817382812
284,40.4375894135241,-79.9980949704349,3.97000002861023,0.262603759765625,-1.14405822753906,0.244430541992188
285,40.4376225220416,-79.9981422443688,4.15999984741211,0.152420043945312,-1.02760314941406,0.046600341796875
286,40.4376449855421,-79.9982003309578,4.5,0.0356597900390625,-1.03825378417969,0.160812377929688
287,40.4376746574793,-79.9982709904015,5.03999996185303,-0.0408172607421875,-1.00395202636719,0.122467041015625
288,40.4376929719378,-79.9983228743821,3.83999991416931,-0.1094970703125,-1.10221862792969,-0.0411834716796875
289,40.4377056286116,-79.9983718246967,2.6800000667572,0.0828704833984375,-0.992324829101562,0.171493530273438
290,40.4377066763494,-79.9983947911114,1.80999994277954,0.073089599609375,-0.97308349609375,0.231948852539062
291,40.4377023596693,-79.9984201044589,2.07999992370605,0.140869140625,-0.955322265625,0.134872436523438
292,40.4376915470142,-79.9984348566085,1.76999998092651,0.264083862304688,-0.892593383789062,0.403289794921875
293,40.4376790579785,-79.9984488543868,1.77999997138977,-0.0062103271484375,-0.928451538085938,0.229248046875
294,40.4376564268399,-79.9984658696502,1.91999995708466,0.2135009765625,-0.96044921875,0.11700439453125
295,40.4376258328934,-79.9984865729511,2.53999996185303,0.134170532226562,-0.986892700195312,0.1201171875
296,40.4375948617611,-79.9984710664302,3.48000001907349,0.227890014648438,-0.982833862304688,0.112945556640625
297,40.4375671595712,-79.998444160521,3.92000007629395,0.157363891601562,-1.03347778320312,0.0976104736328125
298,40.4375565983732,-79.9983968865871,4.13000011444092,-0.0193023681640625,-0.9844970703125,0.0381011962890625
299,40.437558777668,-79.9983702321351,2.69000005722046,-0.056182861328125,-0.969741821289062,0.207870483398438
300,40.4375659441952,-79.9983667955548,0.740000009536743,-0.0223541259765625,-0.969451904296875,0.240982055664062
301,40.4375691712279,-79.998359587118,0.159999996423721,0.00244140625,-0.968246459960938,0.239913940429688
302,40.4375673272092,-79.9983512890339,0.25,0.012451171875,-0.963119506835938,0.258636474609375
303,40.4375660699237,-79.998351540491,0.340000003576279,0.0300445556640625,-0.950103759765625,0.278182983398438
304,40.4375649383668,-79.9983554799855,0.209999993443489,0.0344696044921875,-0.963592529296875,0.28375244140625
305,40.4375691712279,-79.9983571563661,0.280000001192093,0.0359344482421875,-0.955978393554688,0.309326171875
306,40.437573236451,-79.9983556476235,0.540000021457672,-0.0890960693359375,-0.911270141601562,0.240249633789062
307,40.4375806963448,-79.9983533006907,1.01999998092651,0.005401611328125,-1.02920532226562,0.312408447265625
308,40.4375894973431,-79.998346343711,1.11000001430511,-0.146743774414062,-0.917617797851562,0.205810546875
309,40.4376070574303,-79.9983140733838,1.9099999666214,-0.1019287109375,-0.855911254882812,0.303634643554688
310,40.4376068478827,-79.9982885085791,2.1800000667572,-0.024261474609375,-0.98748779296875,0.327194213867188
311,40.4375975439702,-79.9982569926232,2.8199999332428,-0.020263671875,-1.02059936523438,0.17333984375
312,40.4375894135241,-79.9982269015908,2.84999990463257,-0.0986480712890625,-0.994094848632812,0.156326293945312
313,40.4375845520202,-79.9982029293478,2.07999992370605,-0.00506591796875,-1.02975463867188,0.0945892333984375
314,40.4375822050874,-79.9981954694539,1.0,0.027191162109375,-0.982223510742188,0.188949584960938
315,40.4375834623728,-79.9981979002059,0.349999994039536,0.037506103515625,-0.98260498046875,0.19525146484375
316,40.4375834623728,-79.9981979002059,0.0,0.0210418701171875,-0.981735229492188,0.199859619140625
317,40.4375834623728,-79.9981979002059,0.0,0.0298004150390625,-0.981369018554688,0.196685791015625
318,40.4375834623728,-79.9981979002059,0.0,0.033233642578125,-0.983154296875,0.19732666015625
319,40.4375834623728,-79.9981979002059,0.0,0.0311126708984375,-0.981246948242188,0.199111938476562
320,40.4375834623728,-79.9981979002059,0.0,0.0312957763671875,-0.979873657226562,0.20037841796875
321,40.4375834623728,-79.9981979002059,0.0,0.033905029296875,-0.979949951171875,0.19854736328125
322,40.4375834623728,-79.9981979002059,0.0,0.0297698974609375,-0.988800048828125,0.199874877929688
323,40.4375834623728,-79.9981979002059,0.0,0.02435302734375,-0.97998046875,0.199874877929688
324,40.4375834623728,-79.9981979002059,0.0,0.0300140380859375,-0.9764404296875,0.197036743164062
325,40.4375834623728,-79.9981979002059,0.0,0.0298614501953125,-0.98236083984375,0.198486328125
326,40.4375834623728,-79.9981979002059,0.0,0.0329437255859375,-0.982040405273438,0.197158813476562
327,40.4375834623728,-79.9981979002059,0.0,0.0373992919921875,-0.979293823242188,0.20074462890625
328,40.4375834623728,-79.9981979002059,0.0,0.02374267578125,-0.979782104492188,0.200790405273438
329,40.4375834623728,-79.9981979002059,0.0,0.03179931640625,-0.97576904296875,0.199874877929688
330,40.4375834623728,-79.9981979002059,0.0,0.03607177734375,-0.979629516601562,0.195510864257812
331,40.4375834623728,-79.9981979002059,0.0,0.0311279296875,-0.977554321289062,0.197006225585938
332,40.4375834623728,-79.9981979002059,0.0,0.031585693359375,-0.98614501953125,0.196640014648438
333,40.4375834623728,-79.9981979002059,0.0,0.0318756103515625,-0.981430053710938,0.19818115234375
334,40.4375834623728,-79.9981979002059,0.0,0.0341949462890625,-0.978805541992188,0.19970703125
335,40.4375834623728,-79.9981979002059,0.0,0.031524658203125,-0.985031127929688,0.196533203125
336,40.4375834623728,-79.9981979002059,0.0,0.0320892333984375,-0.978713989257812,0.201416015625
337,40.4375834623728,-79.9981979002059,0.0,0.031768798828125,-0.98004150390625,0.200393676757812
338,40.4375834623728,-79.9981979002059,0.0,0.0480499267578125,-0.978195190429688,0.245285034179688
339,40.4375834623728,-79.9981979002059,0.0,0.0921783447265625,-0.949371337890625,0.296066284179688
340,40.437577301674,-79.9982155022025,1.07000005245209,0.0567779541015625,-0.995880126953125,0.32037353515625
341,40.4375709314276,-79.9982002471387,2.0699999332428,-0.0399017333984375,-0.922348022460938,0.259231567382812
342,40.437554796264,-79.9981818907708,2.80999994277954,-0.17413330078125,-0.927093505859375,0.304473876953125
343,40.4375309078399,-79.9981626123935,2.90000009536743,-0.065826416015625,-1.00312805175781,0.2821044921875
344,40.437508486249,-79.9981605169177,2.72000002861023,0.0486907958984375,-0.931060791015625,0.359024047851562
345,40.4374856455628,-79.9981645402312,2.60999989509583,-0.051361083984375,-1.08555603027344,0.331695556640625
346,40.4374561831732,-79.9981682282686,2.8199999332428,-0.09539794921875,-1.05999755859375,0.08563232421875
347,40.4374294029925,-79.998185159713,2.96000003814697,0.0238800048828125,-1.06755065917969,0.0344085693359375
348,40.4373992281411,-79.9981960561872,2.42000007629395,-0.060089111328125,-0.981369018554688,0.0511932373046875
349,40.4373642336954,-79.99821139507,1.79999995231628,-0.046234130859375,-0.9652099609375,0.114608764648438
350,40.4373582406346,-79.998214244917,0.589999973773956,0.005889892578125,-0.978607177734375,0.18682861328125
351,40.4373542592306,-79.9982111436129,0.259999990463257,-0.0035400390625,-0.9847412109375,0.198089599609375
352,40.4373522056643,-79.9982143287361,0.509999990463257,0.0103607177734375,-0.976226806640625,0.205520629882812
353,40.4373522475738,-79.9982068688422,0.200000002980232,0.0125274658203125,-0.982925415039062,0.205963134765625
354,40.4373534210403,-79.9982077908516,0.28999999165535,0.007049560546875,-0.976028442382812,0.206756591796875
355,40.4373504873742,-79.9982110597938,0.28999999165535,0.005889892578125,-0.97802734375,0.205795288085938
356,40.4373504873742,-79.9982110597938,0.0,0.007843017578125,-0.979324340820312,0.203369140625
357,40.4373504873742,-79.9982110597938,0.0,0.01239013671875,-0.977127075195312,0.203475952148438
358,40.4373504873742,-79.9982110597938,0.0,0.0118865966796875,-0.975204467773438,0.204910278320312
359,40.4373504873742,-79.9982110597938,0.0,0.01470947265625,-0.974014282226562,0.206161499023438
360,40.4373504873742,-79.9982110597938,0.0,0.0065765380859375,-0.98095703125,0.203414916992188
361,40.4373504873742,-79.9982110597938,0.0,0.0063018798828125,-0.978424072265625,0.203750610351562
362,40.4373504873742,-79.9982110597938,0.0,0.00738525390625,-0.976394653320312,0.20233154296875
363,40.4373504873742,-79.9982110597938,0.0,0.011627197265625,-0.977569580078125,0.200027465820312
364,40.4373504873742,-79.9982110597938,0.0,0.0095672607421875,-0.980133056640625,0.203659057617188
365,40.4373504873742,-79.9982110597938,0.0,0.0088043212890625,-0.98040771484375,0.205429077148438
366,40.4373504873742,-79.9982110597938,0.0,0.0104217529296875,-0.980987548828125,0.206832885742188
367,40.4373504873742,-79.9982110597938,0.0,0.01519775390625,-0.977096557617188,0.206192016601562
368,40.4373504873742,-79.9982110597938,0.0,0.011077880859375,-0.977325439453125,0.2059326171875
369,40.4373504873742,-79.9982110597938,0.0,0.010223388671875,-0.977340698242188,0.199783325195312
370,40.4373504873742,-79.9982110597938,0.0,0.01129150390625,-0.977310180664062,0.20513916015625
371,40.4373504873742,-79.9982110597938,0.0,0.0111541748046875,-0.97967529296875,0.2037353515625
372,40.4373504873742,-79.9982110597938,0.0,0.0124053955078125,-0.97943115234375,0.200241088867188
373,40.4373504873742,-79.9982110597938,0.0,0.008392333984375,-0.977890014648438,0.198516845703125
374,40.4373504873742,-79.9982110597938,0.0,0.0142059326171875,-0.9815673828125,0.205108642578125
375,40.4373504873742,-79.9982110597938,0.0,0.0086212158203125,-0.97967529296875,0.201141357421875
376,40.4373504873742,-79.9982110597938,0.0,0.0018768310546875,-0.9781494140625,0.199600219726562
377,40.4373504873742,-79.9982110597938,0.0,0.0077362060546875,-0.9786376953125,0.20416259765625
378,40.4373504873742,-79.9982110597938,0.0,0.0104217529296875,-0.979217529296875,0.202911376953125
379,40.4373504873742,-79.9982110597938,0.0,0.0142974853515625,-0.974502563476562,0.207138061523438
380,40.4373504873742,-79.9982110597938,0.0,0.0160064697265625,-0.979660034179688,0.203094482421875
381,40.4373504873742,-79.9982110597938,0.0,0.0170745849609375,-0.981338500976562,0.199905395507812
382,40.4373504873742,-79.9982110597938,0.0,0.0108184814453125,-0.976333618164062,0.205703735351562
383,40.4373504873742,-79.9982110597938,0.0,0.0172576904296875,-0.9775390625,0.201934814453125
384,40.4373504873742,-79.9982110597938,0.0,0.01226806640625,-0.9810791015625,0.204177856445312
385,40.4373504873742,-79.9982110597938,0.0,0.0420379638671875,-0.958847045898438,0.286834716796875
386,40.4373504873742,-79.9982110597938,0.0,0.0760955810546875,-0.923934936523438,0.348114013671875
387,40.4373237910126,-79.9982197769731,1.30999994277954,0.205947875976562,-1.19984436035156,0.327468872070312
388,40.4373094160486,-79.9982295837998,2.01999998092651,-0.0039215087890625,-1.03507995605469,0.433074951171875
389,40.4372825101395,-79.9982473534346,3.46000003814697,0.17681884765625,-1.05880737304688,0.404647827148438
390,40.4372431151945,-79.9982890953124,5.32999992370605,0.0999298095703125,-1.20477294921875,0.468841552734375
391,40.4371952545274,-79.9983393029124,7.32000017166138,-0.03192138671875,-0.894363403320312,0.475250244140625
392,40.4371357430149,-79.9984077830613,9.44999980926514,0.258346557617188,-0.940582275390625,0.634689331054688
393,40.4370506247882,-79.9984966312349,12.1499996185303,0.0411224365234375,-1.09608459472656,0.2451171875
394,40.4369574180249,-79.9986066856235,14.1700000762939,0.0014495849609375,-0.987091064453125,0.29150390625
395,40.436856616162,-79.9987150302128,14.8599996566772,0.0895233154296875,-1.01863098144531,0.182662963867188
396,40.4367552798372,-79.9988419652715,15.4399995803833,-0.0336456298828125,-0.941192626953125,0.185775756835938
397,40.4366560569238,-79.9989612270983,15.6199998855591,0.0663299560546875,-0.972915649414062,0.251129150390625
398,40.436546758478,-79.9990774751447,15.1700000762939,0.2159423828125,-0.995025634765625,0.1671142578125
399,40.4364447931335,-79.9991788183048,14.6899995803833,0.111663818359375,-0.6617431640625,0.270721435546875
400,40.436323408127,-79.9992650324692,14.539999961853,0.111297607421875,-0.927597045898438,0.303558349609375
401,40.4362013580774,-79.9993138321094,14.1499996185303,0.212371826171875,-1.22775268554688,0.271469116210938
402,40.4360782661336,-79.9993456408284,14.5699996948242,0.346893310546875,-0.879150390625,0.151626586914062
403,40.4359319010962,-79.9993538068156,15.0100002288818,0.230255126953125,-0.9993896484375,0.14947509765625
404,40.4357833239756,-79.999330710479,15.2700004577637,0.511276245117188,-1.07276916503906,0.202377319335938
405,40.4356538996128,-79.9992351067832,15.6300001144409,0.0415802001953125,-0.85845947265625,0.040130615234375
406,40.4355304236955,-79.9991101776829,16.5300006866455,0.359695434570312,-0.947052001953125,0.287704467773438
407,40.4354210563696,-79.9989751253274,17.4300003051758,0.227401733398438,-0.787887573242188,0.263961791992188
408,40.4353138642436,-79.9988134162171,18.3099994659424,0.0372161865234375,-0.884246826171875,0.342941284179688
409,40.4352072327528,-79.9986373084943,18.8799991607666,-0.0737762451171875,-1.10227966308594,0.175033569335938
410,40.4351043689829,-79.9984487603464,19.4099998474121,-0.367431640625,-1.10336303710938,0.160491943359375
411,40.4350068819565,-79.9982584255846,19.9200000762939,-0.0916290283203125,-1.02642822265625,0.226348876953125
412,40.4349113370918,-79.9980615914657,20.4200000762939,0.066192626953125,-0.948959350585938,0.136154174804688
413,40.4348097383397,-79.9978498282609,21.2600002288818,0.113662719726562,-0.92205810546875,0.13427734375
414,40.4347051197628,-79.9976276623885,22.0,0.0115203857421875,-1.16159057617188,0.296340942382812
415,40.434607094373,-79.997406382225,22.2800006866455,0.0852813720703125,-0.995529174804688,0.287109375
416,40.4345151120775,-79.9971798238176,22.7299995422363,0.0028533935546875,-0.970870971679688,0.344253540039062
417,40.4344204649686,-79.9969228795303,23.4500007629395,0.138778686523438,-0.9564208984375,0.292510986328125
418,40.4343291577905,-79.9966648705898,24.7099990844727,0.225006103515625,-0.93206787109375,0.226348876953125
419,40.4342560150909,-79.9963722193889,26.2199993133545,0.20074462890625,-0.919998168945312,0.356460571289062
420,40.4341947343937,-79.9960705540328,27.3999996185303,0.0538482666015625,-1.11984252929688,0.381240844726562
421,40.434140822834,-79.9957487451461,28.6100006103516,0.121932983398438,-0.882293701171875,0.335311889648438
422,40.4340993155923,-79.9954110551907,29.6900005340576,0.0991973876953125,-0.85858154296875,0.247360229492188
423,40.4340682124501,-79.995036237504,31.0799999237061,0.116226196289062,-0.9716796875,0.403152465820312
424,40.4340356629026,-79.9946626552935,31.8299999237061,0.0847320556640625,-1.0654296875,0.285369873046875
425,40.4340083207484,-79.994271670756,32.689998626709,0.1600341796875,-0.894927978515625,0.36669921875
426,40.4339832070046,-79.9938927751984,33.2599983215332,0.0623016357421875,-1.07237243652344,0.471237182617188
427,40.4339584550735,-79.9934873813786,33.3800010681152,-0.152496337890625,-0.814422607421875,0.12451171875
428,40.4339359222654,-79.9931094697785,33.3499984741211,0.0556488037109375,-1.43888854980469,0.0516204833984375
429,40.43389125312,-79.9926254082571,35.4000015258789,-0.085968017578125,-0.74664306640625,0.163772583007812
430,40.4338506109012,-79.992217853081,34.7900009155273,-0.0551605224609375,-0.865005493164062,0.136322021484375
431,40.433819266847,-79.9918211346985,34.1599998474121,0.0497894287109375,-0.759384155273438,0.227020263671875
432,40.4337974704402,-79.9914167057073,34.4500007629395,0.139495849609375,-0.99853515625,0.26226806640625
433,40.4337861037091,-79.9910041949481,34.4500007629395,0.108978271484375,-0.942733764648438,0.390533447265625
434,40.4337744736754,-79.9905830759545,35.4300003051758,0.21337890625,-1.18043518066406,0.25140380859375
435,40.4337749202514,-79.9901679022504,36.5299987792969,0.08929443359375,-1.17068481445312,0.224044799804688
436,40.4337891278487,-79.9897370705843,36.0900001525879,-0.115158081054688,-1.06915283203125,0.108779907226562
437,40.4338103472728,-79.9893339730764,35.4700012207031,0.016937255859375,-0.93109130859375,0.205718994140625
438,40.4338310915299,-79.988915897037,35.0299987792969,0.110275268554688,-1.07174682617188,0.125274658203125
439,40.4338668845724,-79.9885040300836,34.6500015258789,-0.052215576171875,-0.994644165039062,0.247421264648438
440,40.4339182007736,-79.9881042669072,34.5999984741211,-0.216262817382812,-0.942764282226562,0.312789916992188
441,40.433977092246,-79.9877022647656,33.8600006103516,-0.0895233154296875,-1.06654357910156,0.177001953125
442,40.434012523429,-79.98730539399,33.9199981689453,0.0859375,-1.109619140625,0.283767700195312
443,40.4340529611539,-79.9869053945278,33.8699989318848,0.0061798095703125,-0.843765258789062,0.302597045898438
444,40.4340927545188,-79.9865144569076,33.7700004577637,0.127120971679688,-0.983551025390625,-0.002349853515625
445,40.4341421804216,-79.9861124005975,33.7200012207031,0.198837280273438,-1.12368774414062,0.320159912109375
446,40.434192967001,-79.9857257497354,33.3800010681152,0.090789794921875,-0.970321655273438,0.203582763671875
447,40.4342617899667,-79.9853542987748,33.0099983215332,-0.0142364501953125,-1.02377319335938,0.311538696289062
448,40.4343397208062,-79.9849760053378,33.2799987792969,0.632247924804688,-1.06126403808594,0.359954833984375
449,40.4344224540696,-79.9846064875122,33.189998626709,0.0659942626953125,-0.750167846679688,0.252395629882812
450,40.4345042965848,-79.9842244835715,32.9799995422363,0.0302581787109375,-1.04353332519531,0.191909790039062
451,40.4345900323889,-79.9838617599143,32.8800010681152,0.0604095458984375,-1.01600646972656,0.314788818359375
452,40.4346834946719,-79.9834854288535,32.9799995422363,0.012115478515625,-0.875320434570312,0.260299682617188
453,40.4347686439171,-79.9831103240954,32.9599990844727,0.0651397705078125,-1.112548828125,0.057647705078125
454,40.4348555644661,-79.98274422343,33.2700004577637,-0.0443267822265625,-0.711273193359375,0.2127685546875
455,40.434948671111,-79.9823773476346,33.310001373291,-0.0664215087890625,-1.05711364746094,0.3878173828125
456,40.4350177642055,-79.982003155777,33.1500015258789,-0.19677734375,-1.35098266601562,0.189697265625
457,40.4350177642055,-79.982003155777,33.1500015258789,-0.287109375,-0.931350708007812,-0.0679168701171875
458,40.4351564823095,-79.9812542182207,32.5800018310547,-0.19061279296875,-1.0799560546875,0.225204467773438
459,40.4352154070888,-79.9808800500631,32.1199989318848,-0.22320556640625,-0.743759155273438,0.2847900390625
460,40.4352626810227,-79.9805141799897,31.7000007629395,-0.0454559326171875,-1.07759094238281,0.180160522460938
461,40.4353053868194,-79.9801386707276,31.3199996948242,-0.0010833740234375,-1.09687805175781,0.229660034179688
462,40.4353552591432,-79.9797866307944,31.1499996185303,-0.118728637695312,-1.05220031738281,0.0893707275390625
463,40.4354067659382,-79.979423526749,31.1900005340576,-0.0964202880859375,-0.978790283203125,0.0234222412109375
464,40.4354632180561,-79.9790669605881,30.7199993133545,0.252044677734375,-1.03533935546875,0.132781982421875
465,40.4355140123893,-79.978710059151,30.0599994659424,0.0215606689453125,-0.934646606445312,0.130050659179688
466,40.4355562152718,-79.9783633836359,30.0,0.0636138916015625,-0.899627685546875,0.371307373046875
467,40.4356038663913,-79.9780138582736,29.9300003051758,-0.226318359375,-0.745361328125,0.262969970703125
468,40.4356461530928,-79.9776667636633,30.0799999237061,-0.0326080322265625,-0.944534301757812,0.216400146484375
469,40.4356911220033,-79.9773107842356,30.2800006866455,-0.0634613037109375,-0.866287231445312,0.257720947265625
470,40.4357310617719,-79.9769543018937,30.2900009155273,-0.049652099609375,-0.983062744140625,0.171051025390625
471,40.4357676487793,-79.9765974004566,30.0699996948242,0.134597778320312,-1.06570434570312,0.21160888671875
472,40.4358035233248,-79.9762506411224,30.0799999237061,-0.0513458251953125,-1.04814147949219,0.260208129882812
473,40.4358324408908,-79.9758963380754,30.0,-0.08856201171875,-1.09292602539062,0.228775024414062
474,40.4358562454958,-79.9755478185415,29.9899997711182,-0.02569580078125,-0.872268676757812,0.0541229248046875
475,40.435875188597,-79.9751945213228,29.75,0.121231079101562,-1.09080505371094,0.122970581054688
476,40.4358917009462,-79.9748405535519,29.4599990844727,-0.027557373046875,-0.970001220703125,0.2657470703125
477,40.4359071655576,-79.9744936265796,29.1399993896484,-0.0123748779296875,-1.069580078125,0.281646728515625
478,40.4359210376073,-79.9741445203125,28.7700004577637,-0.153045654296875,-0.71990966796875,0.27606201171875
479,40.4359305091579,-79.973812848404,28.3799991607666,-0.00897216796875,-0.930191040039062,0.103286743164062
480,40.4359330237288,-79.973482349962,27.3899993896484,-0.0948333740234375,-0.770797729492188,0.29620361328125
481,40.4359346162904,-79.9731594790518,27.3899993896484,-0.517837524414062,-0.160263061523438,-0.334182739257812
482,40.4359132005278,-79.9728453253209,26.7900009155273,-0.107589721679688,-1.22071838378906,0.303298950195312
483,40.435902974606,-79.9725330994278,25.7099990844727,-0.0742034912109375,-0.935333251953125,0.362045288085938
484,40.4358975682784,-79.9722149223834,25.9500007629395,-0.0321197509765625,-1.09474182128906,0.351211547851562
485,40.4358766973395,-79.9719066359848,25.7700004577637,-0.0904083251953125,-0.841812133789062,0.373199462890625
486,40.4358523060013,-79.971603462547,26.0200004577637,-0.113433837890625,-0.936737060546875,0.128753662109375
487,40.4358341591809,-79.9713112694025,26.3099994659424,-0.026031494140625,-0.972198486328125,0.115615844726562
488,40.4358154256273,-79.9709971156716,26.6299991607666,0.235504150390625,-0.97222900390625,0.185638427734375
489,40.4358052835245,-79.9706826266646,26.6399993896484,0.287139892578125,-0.8045654296875,0.192214965820312
490,40.4358001705636,-79.9703631923347,26.8700008392334,0.123291015625,-1.20639038085938,0.2506103515625
491,40.4357950156931,-79.9700417463481,26.7099990844727,-0.0910491943359375,-0.932907104492188,0.091217041015625
492,40.4357885616277,-79.9697310291975,26.4099998474121,-0.035614013671875,-0.894866943359375,-0.003570556640625
493,40.4357904894654,-79.9694260955602,25.6800003051758,-0.0098876953125,-0.81292724609375,0.256881713867188
494,40.4357905732844,-79.9691251014173,25.2099990844727,-0.0284881591796875,-1.10130310058594,0.19891357421875
495,40.4357924592126,-79.9688213412463,25.2700004577637,0.0569915771484375,-1.23013305664062,0.09075927734375
496,40.4357919143889,-79.9685248733312,25.0799999237061,0.0032958984375,-1.38705444335938,0.341552734375
497,40.4357965663452,-79.9682543893158,23.9899997711182,-0.02203369140625,-0.950531005859375,0.296279907226562
498,40.4358023917679,-79.9679736793786,23.5699996948242,-0.013885498046875,-1.06625366210938,0.144287109375
499,40.4358031461392,-79.9677038659155,22.5100002288818,-0.0088348388671875,-1.17417907714844,0.20477294921875
500,40.4358036490534,-79.9674471282214,21.7900009155273,0.040435791015625,-0.741302490234375,0.267684936523438
501,40.4358041938771,-79.9671929050982,21.1599998474121,-0.387237548828125,-0.708206176757812,0.242813110351562
502,40.4358046967913,-79.9669596367329,20.8999996185303,-0.024169921875,-1.17599487304688,0.289337158203125
503,40.4358049063389,-79.9667199143022,20.25,0.146575927734375,-0.873306274414062,0.3553466796875
504,40.4358072532717,-79.9664832093566,20.0100002288818,-0.068267822265625,-0.93731689453125,0.227783203125
505,40.435806708448,-79.9662373681366,20.6900005340576,0.039398193359375,-1.02700805664062,0.221511840820312
506,40.4357996257399,-79.9659951311349,20.0499992370605,0.141738891601562,-0.453048706054688,0.133621215820312
507,40.4357963567976,-79.9657621142268,19.8199996948242,0.102249145507812,-0.991165161132812,0.124069213867188
508,40.43579874564,-79.9655375630408,18.7900009155273,0.080718994140625,-0.93975830078125,0.122756958007812
509,40.4358074209098,-79.9653273449093,18.0599994659424,0.181259155273438,-0.813690185546875,0.0603485107421875
510,40.4358169762794,-79.9651149474829,18.0499992370605,0.295928955078125,-1.32331848144531,0.155181884765625
511,40.4358645016704,-79.9649309647083,16.2600002288818,0.325286865234375,-1.08796691894531,0.0534210205078125
512,40.4359115660567,-79.9647431262582,16.5599994659424,0.410491943359375,-1.080810546875,0.115676879882812
513,40.4360014200587,-79.9646118656545,15.6700000762939,0.043548583984375,-0.952392578125,0.34783935546875
514,40.4361055232961,-79.9644871429354,15.6000003814697,-0.03228759765625,-1.10968017578125,0.288467407226562
515,40.4362062318627,-79.9643557985127,15.3400001525879,0.0993194580078125,-1.07463073730469,0.194625854492188
516,40.4363071080674,-79.9642236997187,14.7799997329712,0.058502197265625,-0.90496826171875,0.288284301757812
517,40.4363957047839,-79.9640946184098,14.3199996948242,-0.48345947265625,-1.4964599609375,-0.162445068359375
518,40.436483044215,-79.9639776070416,13.6300001144409,-0.02691650390625,-0.91925048828125,0.229949951171875
519,40.4365688329939,-79.9638622720539,12.5600004196167,-0.038818359375,-0.996383666992188,0.186630249023438
520,40.4366502631832,-79.9637602642923,12.0299997329712,-0.116744995117188,-1.0689697265625,0.092529296875
521,40.4367215512697,-79.9636730086803,10.7700004577637,0.0446929931640625,-1.37646484375,0.24005126953125
522,40.4367864691098,-79.9635953084379,8.31999969482422,-0.133590698242188,-0.909027099609375,0.128509521484375
523,40.4368373053525,-79.9635306001454,7.17999982833862,-0.112106323242188,-0.977676391601562,0.123748779296875
524,40.4368504649405,-79.9635070469975,3.04999995231628,0.004364013671875,-0.925506591796875,0.29327392578125
525,40.4368717549745,-79.9634933844953,1.96000003814697,0.0343780517578125,-0.955352783203125,0.316024780273438
526,40.4368737666313,-79.9634839129448,0.439999997615814,0.055938720703125,-0.935028076171875,0.394073486328125
527,40.4368722159792,-79.9634789676219,0.5,0.0936279296875,-0.964767456054688,0.310882568359375
528,40.4368789634113,-79.9634619523584,1.42999994754791,0.104202270507812,-0.974639892578125,0.246719360351562
529,40.4368893150617,-79.9634427578002,2.09999990463257,0.141036987304688,-0.961746215820312,0.390823364257812
530,40.4369023489211,-79.9634139240533,3.26999998092651,0.0404815673828125,-0.793060302734375,0.2315673828125
531,40.4369204957415,-79.9633754511177,4.0,0.102783203125,-0.8170166015625,0.366119384765625
532,40.4369459767271,-79.96332591407,4.76000022888184,0.135299682617188,-0.94635009765625,0.412246704101562
533,40.4369815579061,-79.9632610381394,6.03000020980835,0.238052368164062,-0.773406982421875,0.66363525390625
534,40.4370217910413,-79.9631930609047,7.34000015258789,0.304733276367188,-1.09878540039062,0.040618896484375
535,40.4370577913154,-79.9631405063718,6.75,-0.161209106445312,-0.727798461914062,0.562026977539062
536,40.43709634807,-79.9630923104286,5.8899998664856,0.11199951171875,-0.810943603515625,0.41412353515625
537,40.4371361621101,-79.9630314578116,7.23000001907349,0.173751831054688,-0.983871459960938,0.487213134765625
538,40.4371812986587,-79.96296926409,9.0,0.227447509765625,-1.23652648925781,0.380722045898438
539,40.4372336017344,-79.9628945813328,8.55000019073486,0.357925415039062,-1.09280395507812,0.434982299804688
540,40.4372793250162,-79.9628164619952,8.71000003814697,0.0943603515625,-0.939300537109375,0.464508056640625
541,40.4373351484914,-79.9627354089915,9.75,3.0517578125e-05,-0.800125122070312,0.335617065429688
542,40.4373972583939,-79.9626428727805,11.5299997329712,0.0657196044921875,-1.00250244140625,0.27276611328125
543,40.4374556383495,-79.9625374284386,12.1800003051758,0.105667114257812,-0.980377197265625,0.279953002929688
544,40.4375295667354,-79.9624480773508,12.2799997329712,0.0501861572265625,-0.921463012695312,0.304351806640625
545,40.4376171157141,-79.962348165065,13.1499996185303,0.0543975830078125,-0.961456298828125,0.24267578125
546,40.4376956122373,-79.9622630049288,13.0,0.11639404296875,-0.955459594726562,0.352203369140625
547,40.4377799341832,-79.962139455676,13.6800003051758,0.058319091796875,-0.991043090820312,0.119003295898438
548,40.4378611129154,-79.9620183371752,13.6599998474121,-0.0066986083984375,-1.02732849121094,0.147415161132812
549,40.4379447223995,-79.9618887529522,13.5500001907349,0.150527954101562,-0.879562377929688,0.17376708984375
550,40.4380316427354,-79.9617797043919,13.5900001525879,0.0516815185546875,-1.04768371582031,0.281982421875
551,40.4381152522195,-79.9616543949395,13.8699998855591,-0.12371826171875,-0.914154052734375,0.478118896484375
552,40.4382040165741,-79.9615310133248,14.039999961853,-0.1566162109375,-0.944961547851562,0.161895751953125
553,40.4382965527851,-79.961404698044,14.0100002288818,0.140609741210938,-0.9949951171875,-0.213790893554688
554,40.4383792821694,-79.9612719286978,13.9799995422363,0.208404541015625,-1.60934448242188,0.19378662109375
555,40.4384699743618,-79.9611467030644,14.289999961853,-0.053741455078125,-1.08102416992188,0.301788330078125
556,40.438553835303,-79.9610158615559,14.6199998855591,-0.148681640625,-0.223052978515625,0.19000244140625
557,40.4386451980476,-79.9608849362284,14.8199996948242,-0.049530029296875,-1.30845642089844,0.0626220703125
558,40.4387381952633,-79.9607509095966,15.1700000762939,0.06854248046875,-1.01397705078125,0.207015991210938
559,40.438833874688,-79.9606152904033,15.2200002670288,0.0685577392578125,-1.04133605957031,0.149322509765625
560,40.4389235610519,-79.9604803417623,15.4399995803833,-0.0423583984375,-0.971435546875,0.194915771484375
561,40.439061351414,-79.9604272887185,15.710000038147,0.029510498046875,-1.22468566894531,0.2520751953125
562,40.4391633749317,-79.9602899426674,15.3800001144409,0.08648681640625,-0.948959350585938,0.1533203125
563,40.439264723683,-79.9601539208823,14.7299995422363,-0.078643798828125,-1.01383972167969,0.128326416015625
564,40.439354477608,-79.9600334606995,14.3299999237061,-0.205230712890625,-1.02702331542969,0.128067016601562
565,40.439442699907,-79.9599150561365,13.75,-0.0054168701171875,-1.03245544433594,0.17657470703125
566,40.4395278652335,-79.9598007543854,13.3999996185303,-0.398391723632812,-0.859512329101562,-0.149124145507812
567,40.4396040468143,-79.9596985098636,12.3999996185303,-0.18511962890625,-0.515792846679688,-0.310653686523438
568,40.4397170502808,-79.9595468460981,14.289999961853,-0.022430419921875,-1.03578186035156,0.253936767578125
569,40.4397263664164,-79.9595343427631,6.28999996185303,-0.04571533203125,-0.808624267578125,0.491455078125
570,40.4397757492851,-79.9594680652227,7.76000022888184,0.114730834960938,-1.00321960449219,0.459564208984375
571,40.4397876365567,-79.9594521111248,8.67000007629395,0.364669799804688,-1.1080322265625,0.4287109375
572,40.4398810238185,-79.9593217457815,10.1300001144409,0.137893676757812,-0.96484375,0.399459838867188
573,40.439955386321,-79.9592179050123,11.6700000762939,-0.091339111328125,-0.796157836914062,0.592391967773438
574,40.4400254163256,-79.9591201141997,12.7200002670288,0.0799407958984375,-0.919265747070312,0.192962646484375
575,40.4401099685418,-79.9590020443813,13.0799999237061,-0.0097808837890625,-0.94342041015625,0.225540161132812
576,40.4402013813305,-79.9588743943698,13.0600004196167,0.0001373291015625,-1.05809020996094,0.181991577148438
577,40.4402852653908,-79.9587598868498,12.960000038147,0.099365234375,-1.03370666503906,0.0905914306640625
578,40.4403484084675,-79.9586745801383,12.1199998855591,-0.167953491210938,-1.03082275390625,0.0137176513671875
579,40.4404204643189,-79.9585772322096,10.7799997329712,-0.08441162109375,-1.02861022949219,0.0785064697265625
580,40.4404784058822,-79.9584989527769,8.52000045776367,-0.0347442626953125,-0.9619140625,0.24163818359375
581,40.4405283508385,-79.9584321669627,7.21999979019165,-0.0382843017578125,-0.969467163085938,0.298965454101562
582,40.4405757126847,-79.95836886421,7.6100001335144,-0.0509796142578125,-0.91119384765625,0.236907958984375
583,40.4405972344671,-79.9583400986914,8.60000038146973,0.291976928710938,-0.953384399414062,0.211029052734375
584,40.4406758354459,-79.9582263675053,8.60000038146973,0.112396240234375,-1.04203796386719,0.277908325195312
585,40.440742813881,-79.9581292898933,10.1999998092651,0.03936767578125,-1.00784301757812,0.13897705078125
586,40.4408132137793,-79.9580272532602,10.9300003051758,0.160064697265625,-1.08155822753906,0.205230712890625
587,40.4408724644639,-79.9579413761421,10.1700000762939,-0.03900146484375,-0.994674682617188,0.044830322265625
588,40.4409385341992,-79.957845615587,9.93000030517578,0.191741943359375,-1.0386962890625,-0.0196685791015625
589,40.44099419028,-79.9577649484378,8.47999954223633,-0.119186401367188,-0.766799926757812,0.115570068359375
590,40.441036913295,-79.9577030262943,6.92000007629395,0.0900115966796875,-0.926681518554688,0.382553100585938
591,40.4410661545742,-79.9576606443911,5.69999980926514,0.0364532470703125,-0.892608642578125,0.369186401367188
592,40.441093444884,-79.9576210901956,6.48000001907349,-0.10601806640625,-1.05747985839844,0.60009765625
593,40.4410910935661,-79.9576244981631,8.27000045776367,-0.344100952148438,-0.65924072265625,0.302032470703125
594,40.4412188012928,-79.9574452040355,9.18000030517578,-0.0288848876953125,-0.984710693359375,0.068450927734375
595,40.4412816695823,-79.9573570078425,9.68000030517578,0.166305541992188,-0.862762451171875,0.117019653320312
596,40.4413334729967,-79.9572843342584,9.5,-0.012847900390625,-1.04249572753906,0.0550537109375
597,40.4413891744529,-79.9572061922186,9.03999996185303,-0.148513793945312,-1.02291870117188,0.080230712890625
598,40.4414341484379,-79.9571430994528,7.71999979019165,0.070068359375,-1.03446960449219,0.125213623046875
599,40.4414751983079,-79.9570855117201,7.01000022888184,0.04132080078125,-0.9036865234375,0.305374145507812
600,40.4415227952131,-79.9570187393319,7.48999977111816,-0.019989013671875,-0.866287231445312,0.313644409179688
601,40.4415605063847,-79.9569658353672,8.48999977111816,-0.506668090820312,-0.926483154296875,-0.0010223388671875
602,40.4416367657634,-79.9568577904627,9.14999961853027,-0.293304443359375,-0.268310546875,0.193267822265625
603,40.4416782126467,-79.9567990601367,8.90999984741211,0.115203857421875,-1.22177124023438,0.238037109375
604,40.4417317095859,-79.9567232548548,8.80000019073486,0.045013427734375,-0.766082763671875,0.207748413085938
605,40.4417862883126,-79.9566459166775,8.80000019073486,-0.102706909179688,-0.998443603515625,0.163070678710938
606,40.4418452930851,-79.9565626064911,9.23999977111816,0.155441284179688,-0.954421997070312,0.556716918945312
607,40.4419043737592,-79.9564796445648,10.039999961853,0.033935546875,-0.765945434570312,0.198974609375
608,40.4419541492353,-79.9564097491303,11.0100002288818,0.0565338134765625,-0.956375122070312,0.20770263671875
609,40.442044708303,-79.9562828218581,11.4300003051758,-0.0018310546875,-1.00161743164062,0.293655395507812
610,40.4421239090828,-79.9561718176521,11.8299999237061,0.210830688476562,-1.81321716308594,0.253753662109375
611,40.4421985617253,-79.9560671879082,12.0100002288818,-0.142074584960938,-0.9537353515625,0.025421142578125
612,40.4422725055755,-79.9559635515753,12.3800001144409,-0.0971221923828125,-0.661697387695312,0.169281005859375
613,40.4423440262223,-79.955863311494,12.4099998474121,-0.31927490234375,-1.59796142578125,-0.0050048828125
614,40.4424218092594,-79.9557542943316,12.3999996185303,-0.0488128662109375,-0.875,0.213165283203125
615,40.4424940981046,-79.9556529775783,11.6499996185303,-0.072906494140625,-0.970474243164062,0.156661987304688
616,40.4425573834021,-79.9555636073526,10.1999998092651,-0.279434204101562,-1.05183410644531,0.468719482421875
617,40.442637517169,-79.9554391415891,13.4399995803833,-0.201629638671875,-0.97589111328125,0.279678344726562
618,40.4427007564975,-79.9553064786283,12.5900001525879,-0.05377197265625,-1.05097961425781,0.0802001953125
619,40.4427477060329,-79.9551749544382,12.1899995803833,-0.10931396484375,-0.737655639648438,0.089080810546875
620,40.442784815177,-79.9550562907719,11.8599996566772,0.029998779296875,-0.932693481445312,0.218597412109375
621,40.442822744047,-79.9549238663839,12.0699996948242,0.1180419921875,-1.04679870605469,0.184555053710938
622,40.4428616418318,-79.9547866240679,12.1800003051758,0.0273284912109375,-0.902267456054688,0.1907958984375
623,40.4428964876488,-79.9546575566748,12.0600004196167,0.050811767578125,-0.9659423828125,0.197479248046875
624,40.442933545261,-79.954520296888,12.25,0.013702392578125,-0.98394775390625,0.091552734375
625,40.4429681966071,-79.9543919498063,11.5900001525879,0.00836181640625,-0.923309326171875,0.129669189453125
626,40.4429986510479,-79.9542782549285,10.1499996185303,0.053375244140625,-0.974517822265625,0.156494140625
627,40.4430274094149,-79.9541699167805,9.02999973297119,0.010040283203125,-1.00653076171875,-0.00787353515625
628,40.4430472367289,-79.9540952235797,7.53000020980835,-0.019683837890625,-0.95050048828125,0.23114013671875
629,40.4430711386297,-79.9540051806481,7.59999990463257,-0.118438720703125,-1.02972412109375,-0.012451171875
630,40.4430918585789,-79.9539271247234,6.73999977111816,0.247787475585938,-1.06101989746094,0.275131225585938
631,40.4431087350374,-79.9538635479475,6.0,-0.014862060546875,-0.964523315429688,0.153152465820312
632,40.4431274131267,-79.9537931840913,6.46000003814697,0.286102294921875,-1.12765502929688,0.514389038085938
633,40.4431505928301,-79.9537058618125,7.51000022888184,0.191375732421875,-0.899200439453125,0.31976318359375
634,40.4431756925497,-79.9536113064732,8.77000045776367,0.116668701171875,-0.989547729492188,0.326400756835938
635,40.4431886497162,-79.9535603599055,10.3500003814697,-0.867813110351562,-1.07963562011719,-0.406845092773438
636,40.4432333607115,-79.953390881048,11.1599998474121,0.202392578125,-0.928878784179688,0.342697143554688
637,40.4432692296217,-79.9532500703214,12.25,0.02227783203125,-0.964340209960938,0.29705810546875
638,40.4433056787608,-79.9531069817877,13.0200004577637,0.0155029296875,-1.00320434570312,0.156295776367188
639,40.4433424145516,-79.9529627679445,13.4499998092651,-0.06805419921875,-0.986404418945312,0.229873657226562
640,40.4433798340366,-79.9528158701198,13.789999961853,0.076904296875,-1.02818298339844,0.304336547851562
641,40.4434202702822,-79.9526571288403,14.2700004577637,0.017120361328125,-1.04750061035156,0.210647583007812
642,40.4434617733951,-79.9524941990094,14.5500001907349,0.0389251708984375,-0.959365844726562,0.302444458007812
643,40.4435028355932,-79.9523330000886,14.5,-0.06243896484375,-1.0845947265625,0.21539306640625
644,40.4435452377885,-79.952166540707,14.960000038147,-0.251296997070312,0.387863159179688,0.031951904296875
645,40.4435900599105,-79.9519924251477,15.5100002288818,0.118362426757812,-1.05805969238281,-0.0020751953125
646,40.4436341277013,-79.9518221521488,15.3500003814697,-0.122940063476562,-1.15460205078125,0.44976806640625
647,40.4436785720852,-79.9516504240359,15.210000038147,-0.0370330810546875,-1.00627136230469,0.238815307617188
648,40.4437219107623,-79.9514829682504,14.9200000762939,0.252426147460938,-1.23989868164062,0.265228271484375
649,40.4437661786852,-79.9513119219634,15.4700002670288,0.103240966796875,-1.02752685546875,0.201446533203125
650,40.4438117477361,-79.9511393668792,15.3599996566772,-0.107254028320312,-0.851516723632812,0.2596435546875
651,40.4438567970092,-79.9509687999298,14.539999961853,-0.308868408203125,-0.498504638671875,0.719436645507812
652,40.4439004488025,-79.9508035241617,14.8800001144409,0.571807861328125,-1.11691284179688,0.026397705078125
653,40.4439422355742,-79.9506390383076,14.710000038147,0.120895385742188,-0.936004638671875,0.349349975585938
654,40.4439840320646,-79.9504738881122,14.9300003051758,0.0799102783203125,-0.873367309570312,0.349411010742188
655,40.4440254770751,-79.950310126717,14.8199996948242,-0.262649536132812,-0.891006469726562,0.1827392578125
656,40.4440480775441,-79.9502208256341,14.8900003433228,-0.011383056640625,-0.95361328125,0.186614990234375
657,40.4441067388454,-79.9499823680121,15.0200004577637,0.0054473876953125,-0.85150146484375,0.180999755859375
658,40.4441472207869,-79.9498178022094,14.789999961853,0.00213623046875,-1.01582336425781,0.0240936279296875
659,40.444189899103,-79.9496453484356,14.3999996185303,0.04791259765625,-0.985610961914062,0.37225341796875
660,40.4442302028788,-79.9494865829369,13.8299999237061,-0.092529296875,-0.83612060546875,0.0771331787109375
661,40.4442667510014,-79.9493491019938,12.7799997329712,0.0009307861328125,-1.03036499023438,0.0641632080078125
662,40.4443011515338,-79.9492099763713,11.5799999237061,-0.0628204345703125,-1.01664733886719,0.0139312744140625
663,40.4443300993566,-79.9490929030705,9.43000030517578,-0.0931549072265625,-1.054931640625,0.04779052734375
664,40.4443527163852,-79.9490014333181,7.17999982833862,0.001953125,-1.04078674316406,-0.0590972900390625
665,40.4443674396965,-79.9489418880231,4.51000022888184,-0.012908935546875,-0.966323852539062,0.0462188720703125
666,40.4443756294721,-79.9489087662208,2.09999990463257,-0.0139312744140625,-1.00924682617188,0.0952911376953125
667,40.4443784198472,-79.9488974811433,0.560000002384186,0.0580291748046875,-0.980758666992188,0.223342895507812
668,40.4443765027238,-79.9489052345406,0.0,0.0483551025390625,-0.9735107421875,0.212371826171875
669,40.4443775633353,-79.9489009451235,0.0,0.047637939453125,-0.976150512695312,0.211456298828125
670,40.4443775663044,-79.9489009331156,0.0,0.0482177734375,-0.975234985351562,0.213912963867188
671,40.4443789812967,-79.9488952104807,0.430000007152557,0.0480499267578125,-0.977676391601562,0.212509155273438
672,40.444342922457,-79.948880290687,0.0,0.04693603515625,-0.975997924804688,0.212844848632812
673,40.444342922457,-79.948880290687,0.0,0.055877685546875,-0.984344482421875,0.206268310546875
674,40.444342922457,-79.948880290687,0.0,0.055908203125,-0.975372314453125,0.212005615234375
675,40.444342922457,-79.948880290687,0.0,0.0614776611328125,-0.966781616210938,0.24542236328125
676,40.444342922457,-79.948880290687,0.0,0.04840087890625,-0.977325439453125,0.220138549804688
677,40.444342922457,-79.948880290687,0.0,0.0307159423828125,-0.961395263671875,0.193679809570312
678,40.444342922457,-79.948880290687,0.0,0.0472259521484375,-0.975204467773438,0.212738037109375
679,40.444342922457,-79.948880290687,0.0,0.04754638671875,-0.975860595703125,0.214706420898438
680,40.444342922457,-79.948880290687,0.0,0.0472564697265625,-0.977752685546875,0.210830688476562
681,40.444342922457,-79.948880290687,0.0,0.0490264892578125,-0.978256225585938,0.212432861328125
682,40.444342922457,-79.948880290687,0.0,0.047515869140625,-0.978591918945312,0.209930419921875
683,40.444342922457,-79.948880290687,0.0,0.0898895263671875,-0.944808959960938,0.323867797851562
684,40.4443244403605,-79.9488730822503,0.310000002384186,0.06707763671875,-0.902755737304688,0.41705322265625
685,40.4443304753308,-79.9488569889962,2.00999999046326,0.126617431640625,-0.952911376953125,0.379837036132812
686,40.4443497956176,-79.9488160853087,4.23999977111816,0.091064453125,-0.901153564453125,0.34710693359375
687,40.4444094252914,-79.9487720862316,6.05999994277954,0.0931549072265625,-1.17486572265625,0.557510375976562
688,40.4444283399875,-79.9486955897739,7.28999996185303,0.256378173828125,-1.47505187988281,0.114852905273438
689,40.4444098100443,-79.9485802185535,8.82999992370605,-0.030487060546875,-1.01614379882812,0.350173950195312
690,40.4444233887274,-79.9484616146236,9.77000045776367,0.02691650390625,-0.939483642578125,0.29632568359375
691,40.444432944097,-79.9483398255705,10.4700002670288,-0.291549682617188,-0.78851318359375,0.103652954101562
692,40.4444385180626,-79.9482045416533,11.3699998855591,0.0406341552734375,-1.00520324707031,0.2945556640625
693,40.4444383504246,-79.9480603729188,12.289999961853,0.12860107421875,-0.924041748046875,0.335952758789062
694,40.4444502946366,-79.9479139410704,12.9499998092651,0.0642852783203125,-1.09068298339844,0.241119384765625
695,40.4444590956349,-79.9477634020894,13.2799997329712,0.0829620361328125,-1.04696655273438,0.434768676757812
696,40.4444613587488,-79.9475918245315,13.8699998855591,0.182418823242188,-1.10597229003906,0.246429443359375
697,40.4444759013508,-79.9474317301809,13.7200002670288,-0.178924560546875,-0.723678588867188,0.246231079101562
698,40.4444860853631,-79.9472722225636,13.6599998474121,-0.113357543945312,-0.754776000976562,0.09539794921875
699,40.4444984905798,-79.9471211806684,13.3699998855591,-0.195556640625,-0.85919189453125,0.200668334960938
700,40.4445004603271,-79.946958823204,13.4700002670288,-0.0082855224609375,-0.979019165039062,0.2440185546875
701,40.4445013823364,-79.9468025007098,13.8400001525879,0.108367919921875,-1.00541687011719,0.255691528320312
702,40.4445057409261,-79.9466385506838,13.8299999237061,0.212203979492188,-0.826309204101562,0.139541625976562
703,40.4445102252443,-79.9464826472848,13.6300001144409,-0.0578765869140625,-0.90240478515625,0.0143890380859375
704,40.444518732876,-79.9463221338391,14.1800003051758,0.0725555419921875,-1.11184692382812,0.22955322265625
705,40.4445296712596,-79.9461508915573,14.6700000762939,0.049102783203125,-0.928802490234375,0.289413452148438
706,40.4445479438086,-79.9459769670665,15.1800003051758,0.062530517578125,-1.02790832519531,0.178298950195312
707,40.4445660906289,-79.9458152801543,14.9399995803833,-0.063507080078125,-0.973007202148438,0.291412353515625
708,40.444580884688,-79.945642780587,14.8999996185303,-0.0474090576171875,-1.07949829101562,0.213287353515625
709,40.4445375083391,-79.9455146212875,13.289999961853,-0.0751495361328125,-0.826736450195312,0.30908203125
710,40.4445495782797,-79.9453636632114,13.210000038147,-0.03497314453125,-0.9146728515625,0.264907836914062
711,40.444561061487,-79.9452179019153,13.3900003433228,0.0180511474609375,-0.934967041015625,0.260482788085938
712,40.4445632826914,-79.9450622499734,13.3500003814697,0.0299530029296875,-0.973770141601562,0.264419555664062
713,40.444560977668,-79.9448993895947,13.2399997711182,-0.086669921875,-0.889205932617188,0.206390380859375
714,40.444564875253,-79.9447596632689,12.7299995422363,0.044677734375,-1.21330261230469,0.189895629882812
715,40.4445691500236,-79.9446104653924,12.6300001144409,0.0278472900390625,-0.962112426757812,0.368423461914062
716,40.4445718741421,-79.9444668833911,12.7399997711182,0.0737457275390625,-0.836929321289062,0.258743286132812
717,40.4445727123324,-79.9443162605911,12.9799995422363,0.115020751953125,-1.01945495605469,0.277816772460938
718,40.4445706587661,-79.9441598542779,13.25,0.04168701171875,-0.795761108398438,0.276519775390625
719,40.4445694433902,-79.9439980835467,13.5100002288818,0.0518646240234375,-0.950149536132812,0.223541259765625
720,40.4445685213808,-79.943840336129,13.4300003051758,-0.133224487304688,-0.949630737304688,0.279647827148438
721,40.4445659649004,-79.9436824210733,12.5100002288818,0.024017333984375,-1.00991821289062,0.2120361328125
722,40.4445639532436,-79.9435463827848,11.5100002288818,-0.143798828125,-0.976486206054688,-0.250595092773438
723,40.444560977668,-79.9434235879033,9.11999988555908,0.0152740478515625,-0.97662353515625,0.02117919921875
724,40.4445553198833,-79.9433318898826,7.09000015258789,-0.0426788330078125,-1.06285095214844,0.04364013671875
725,40.4445496620987,-79.9432674330472,4.98999977111816,-0.040740966796875,-1.03483581542969,0.0375823974609375
726,40.4445480276276,-79.9432292953878,2.19000005722046,0.0082244873046875,-0.960037231445312,0.194046020507812
727,40.4445455968757,-79.9432273675501,0.479999989271164,0.0300445556640625,-0.97601318359375,0.236495971679688
728,40.4445496201892,-79.9432226736843,0.579999983310699,0.0471649169921875,-0.964370727539062,0.251754760742188
729,40.4445494525511,-79.9432183150947,0.889999985694885,0.0462799072265625,-0.965591430664062,0.267105102539062
730,40.4445494525511,-79.9432183150947,0.0,0.0428924560546875,-0.96533203125,0.26470947265625
731,40.4445494525511,-79.9432183150947,0.0,0.0457611083984375,-0.9644775390625,0.263900756835938
732,40.4445494525511,-79.9432183150947,0.0,0.0460968017578125,-0.963119506835938,0.267257690429688
733,40.4445494525511,-79.9432183150947,0.0,0.0482025146484375,-0.96221923828125,0.26776123046875
734,40.4445494525511,-79.9432183150947,0.0,0.047027587890625,-0.9659423828125,0.26116943359375
735,40.4445494525511,-79.9432183150947,0.0,0.0447845458984375,-0.961318969726562,0.266311645507812
736,40.4445494525511,-79.9432183150947,0.0,0.048919677734375,-0.963470458984375,0.266128540039062
737,40.4445494525511,-79.9432183150947,0.0,0.044189453125,-0.962631225585938,0.27252197265625
738,40.4445494525511,-79.9432183150947,0.0,0.046905517578125,-0.966705322265625,0.259246826171875
739,40.4445494525511,-79.9432183150947,0.0,0.0445404052734375,-0.96295166015625,0.269088745117188
740,40.4445494525511,-79.9432183150947,0.0,0.04913330078125,-0.965057373046875,0.26580810546875
741,40.4445494525511,-79.9432183150947,0.0,0.04754638671875,-0.96490478515625,0.270339965820312
742,40.4445494525511,-79.9432183150947,0.0,0.0451202392578125,-0.965362548828125,0.262374877929688
743,40.4445494525511,-79.9432183150947,0.0,0.046295166015625,-0.9639892578125,0.270553588867188
744,40.4445494525511,-79.9432183150947,0.0,0.046844482421875,-0.964462280273438,0.26629638671875
745,40.4445494525511,-79.9432183150947,0.0,0.047393798828125,-0.9632568359375,0.267440795898438
746,40.4445494525511,-79.9432183150947,0.0,0.044219970703125,-0.966400146484375,0.268753051757812
747,40.4445494525511,-79.9432183150947,0.0,0.046844482421875,-0.964630126953125,0.268051147460938
748,40.4445494525511,-79.9432183150947,0.0,0.0471038818359375,-0.961639404296875,0.2625732421875
749,40.4445494525511,-79.9432183150947,0.0,0.0494232177734375,-0.961593627929688,0.263137817382812
750,40.4445494525511,-79.9432183150947,0.0,0.0491485595703125,-0.966903686523438,0.267974853515625
751,40.4445494525511,-79.9432183150947,0.0,0.047027587890625,-0.963882446289062,0.261032104492188
752,40.4445494525511,-79.9432183150947,0.0,0.0424957275390625,-0.963302612304688,0.272720336914062
753,40.4445494525511,-79.9432183150947,0.0,0.045806884765625,-0.961898803710938,0.266311645507812
754,40.4445494525511,-79.9432183150947,0.0,0.04632568359375,-0.963851928710938,0.262969970703125
755,40.4445494525511,-79.9432183150947,0.0,0.04339599609375,-0.9658203125,0.265884399414062
756,40.4445494525511,-79.9432183150947,0.0,0.04425048828125,-0.9637451171875,0.2677001953125
757,40.4445494525511,-79.9432183150947,0.0,0.065216064453125,-0.949111938476562,0.35595703125
758,40.4445313057308,-79.9432228413224,0.270000010728836,0.17413330078125,-0.946975708007812,0.508819580078125
759,40.4445314733688,-79.9432085082679,1.97000002861023,0.18475341796875,-0.8961181640625,0.435302734375
760,40.444530593269,-79.9431674369424,4.23999977111816,0.0995330810546875,-0.902633666992188,0.425308227539062
761,40.4445324372877,-79.943102896288,5.96999979019165,0.157302856445312,-0.89385986328125,0.465911865234375
762,40.4445274919648,-79.9430166465043,7.82000017166138,-0.020599365234375,-0.927871704101562,0.395599365234375
763,40.44452271428,-79.9429190811514,9.10000038146973,0.130996704101562,-0.983489990234375,0.429672241210938
764,40.4445129074533,-79.9428063445538,10.1599998474121,0.0572052001953125,-1.04974365234375,0.32244873046875
765,40.4444977362086,-79.9426838849484,11.2299995422363,-0.027984619140625,-0.849624633789062,0.355056762695312
766,40.4444805113975,-79.9425418955087,12.2399997711182,0.54791259765625,-1.35050964355469,0.358749389648438
767,40.4444588441778,-79.9423952960222,13.0200004577637,0.040435791015625,-0.94378662109375,0.31561279296875
768,40.4444347881157,-79.9422391411662,13.6899995803833,0.036712646484375,-0.899703979492188,0.316024780273438
769,40.4444088880349,-79.9420785439014,14.1700000762939,0.046661376953125,-1.00572204589844,0.30303955078125
770,40.4443807667498,-79.9419128336757,14.539999961853,-0.064239501953125,-0.840530395507812,0.279510498046875
771,40.4443524778266,-79.9417430163174,14.6000003814697,-0.0363311767578125,-1.02433776855469,0.173110961914062
772,40.4443247337271,-79.941583424881,14.1199998855591,-0.29364013671875,-0.377914428710938,0.298248291015625
773,40.444298079275,-79.9414283596724,13.6999998092651,0.04815673828125,-1.02874755859375,0.213516235351562
774,40.4442731850226,-79.9412680976837,13.5100002288818,-0.0084381103515625,-0.953948974609375,0.247268676757812
775,40.4442500090603,-79.9411123619228,13.7200002670288,0.101364135742188,-0.968917846679688,0.284896850585938
776,40.4442267911885,-79.9409546145051,14.039999961853,0.0943450927734375,-1.090576171875,0.3370361328125
777,40.4441988375415,-79.9407859706133,14.5200004577637,-0.186737060546875,-0.802490234375,0.249053955078125
778,40.4441689979662,-79.940616153255,14.9799995422363,0.116287231445312,-0.941177368164062,0.209442138671875
779,40.444136727639,-79.9404462520778,15.1800003051758,0.0678253173828125,-0.85186767578125,0.311935424804688
780,40.4441030323882,-79.9402734172344,15.460000038147,-0.0573272705078125,-0.999710083007812,0.159332275390625
781,40.4440678703044,-79.9401024264097,15.4799995422363,0.0086669921875,-0.963623046875,0.0444793701171875
782,40.4440322472159,-79.939926238805,14.9899997711182,-0.108612060546875,-1.02662658691406,0.163101196289062
783,40.4439996416126,-79.9397588521987,14.3100004196167,-0.051788330078125,-1.03489685058594,0.085540771484375
784,40.4439665750046,-79.9396061339229,13.1999998092651,-0.0725860595703125,-0.937255859375,0.0214080810546875
785,40.4439380765338,-79.9394621328264,11.6700000762939,-0.0999908447265625,-1.00062561035156,0.0295257568359375
786,40.4439167026807,-79.939339421764,10.1000003814697,-0.0305328369140625,-1.05751037597656,0.0615081787109375
787,40.4438966280226,-79.939241772592,8.39000034332275,-0.01116943359375,-1.01344299316406,0.0138702392578125
788,40.4438886652146,-79.9391761422902,5.82000017166138,-0.0988006591796875,-1.0067138671875,0.0121917724609375
789,40.443880576678,-79.9391296227276,4.0,-0.07977294921875,-1.01754760742188,0.006561279296875
790,40.4438771400977,-79.939104225561,1.8400000333786,0.0123443603515625,-0.9853515625,0.213180541992188
791,40.4438779782881,-79.9390996993333,0.540000021457672,0.010986328125,-0.979110717773438,0.214599609375
792,40.4438801575829,-79.9390999507904,0.340000003576279,0.00970458984375,-0.9737548828125,0.209304809570312
793,40.443881792054,-79.9390999507904,0.319999992847443,0.0063018798828125,-0.976791381835938,0.214111328125
794,40.443881792054,-79.9390999507904,0.0,0.0094146728515625,-0.977706909179688,0.21319580078125
795,40.443881792054,-79.9390999507904,0.0,0.019073486328125,-0.977508544921875,0.217483520507812
796,40.443881792054,-79.9390999507904,0.0,0.0059356689453125,-0.981948852539062,0.208694458007812
797,40.443881792054,-79.9390999507904,0.0,0.0083160400390625,-0.979736328125,0.207489013671875
798,40.443881792054,-79.9390999507904,0.0,0.0963897705078125,-0.939834594726562,0.4190673828125
799,40.4438834265251,-79.9390985258668,0.769999980926514,0.0831756591796875,-0.920303344726562,0.581832885742188
800,40.4438784392927,-79.939070027396,3.52999997138977,-0.0122833251953125,-0.912338256835938,0.46710205078125
801,40.44385790363,-79.9390060734748,6.40999984741211,0.0593109130859375,-0.900146484375,0.380905151367188
802,40.443835649677,-79.9389198236912,8.72999954223633,-0.0485382080078125,-0.956069946289062,0.414093017578125
803,40.4437969671939,-79.9388169777393,9.97000026702881,-0.286270141601562,-0.803359985351562,0.07769775390625
804,40.443740347438,-79.9387088511884,11.6800003051758,-0.171524047851562,-0.897369384765625,0.435531616210938
805,40.4436635272954,-79.9386028201132,12.7600002288818,0.043243408203125,-0.879898071289062,0.205123901367188
806,40.443563321643,-79.9384967890381,14.0600004196167,0.0126953125,-1.04441833496094,0.248138427734375
807,40.4434626968954,-79.9383979663997,14.7700004577637,-0.022613525390625,-1.02011108398438,0.218917846679688
808,40.4433530616019,-79.9382966291904,15.0,0.067138671875,-1.07748413085938,0.2650146484375
809,40.4432400316377,-79.9381923583149,14.9700002670288,-0.0963592529296875,-1.0601806640625,0.107223510742188
810,40.4431340843816,-79.938094709143,14.6800003051758,-0.359893798828125,-0.945770263671875,-0.1253662109375
811,40.4430302326013,-79.937999574542,13.8999996185303,-0.0901641845703125,-0.991485595703125,0.0680999755859375
812,40.4429357685525,-79.9379162584245,12.1899995803833,-0.0811004638671875,-1.06539916992188,0.0417327880859375
813,40.4428541707252,-79.937846437171,10.5799999237061,-0.109298706054688,-1.00308227539062,0.01702880859375
814,40.4427847266574,-79.9377904460579,8.64000034332275,0.104156494140625,-0.93878173828125,0.0767364501953125
815,40.4427287774537,-79.9377425015717,7.48999977111816,0.0879058837890625,-1.01626586914062,0.078094482421875
816,40.442692483813,-79.9377056211978,5.59999990463257,-0.147354125976562,-0.8350830078125,0.209243774414062
817,40.4426561901723,-79.9376782961934,3.89000010490417,-0.3070068359375,-0.921249389648438,0.222457885742188
818,40.4426267696921,-79.937669243738,3.51999998092651,-0.207260131835938,-0.9315185546875,0.257171630859375
819,40.44260011524,-79.9376813974976,3.49000000953674,-0.0098724365234375,-0.865890502929688,0.52423095703125
820,40.4425786994774,-79.9377214629948,4.8600001335144,0.183990478515625,-0.949615478515625,0.428955078125
821,40.4425512906541,-79.9377838243544,6.86999988555908,0.104232788085938,-0.931716918945312,0.324569702148438
822,40.4425175534938,-79.9378683977574,8.39000034332275,0.098846435546875,-1.00276184082031,0.261917114257812
823,40.4424774460871,-79.9379633647203,9.72000026702881,0.150421142578125,-0.944046020507812,0.3394775390625
